timestamp,acc-x,acc-y,acc-z,gyr-x,gyr-y,gyr-z,mag-x,mag-y,mag-z
1700075908,0.8842620849609375,0.2247467041015625,-0.4734039306640625,0.7236692905426025,0.8969164490699768,2.0921874046325684,135.7721710205078,-48.03912353515625,216.1057586669922
1700075908,0.8336029052734375,0.385009765625,-0.4908294677734375,0.8057423233985901,0.8632887005805969,2.0779590606689453,135.63975524902344,-47.72819519042969,216.16905212402344
1700075908,0.9307861328125,0.5031585693359375,-0.3967437744140625,0.873968243598938,0.8641901612281799,2.021656274795532,136.02371215820312,-47.85545349121094,215.78414916992188
1700075908,0.9712677001953124,0.493743896484375,-0.3761138916015625,0.8307856321334839,0.8112744688987732,2.003861427307129,135.8115692138672,-47.88442993164063,216.0802154541016
1700075908,0.834320068359375,0.4024658203125,-0.473968505859375,0.8590606451034546,0.7943778038024902,2.029012680053711,135.56651306152344,-48.072509765625,216.21734619140625
1700075908,0.74542236328125,0.349029541015625,-0.528778076171875,0.855803370475769,0.7666133046150208,2.07843279838562,135.98680114746094,-48.12013244628906,216.7191925048828
1700075908,0.8396148681640625,0.4020538330078125,-0.47052001953125,0.8325827121734619,0.7090232372283936,2.123056173324585,135.73439025878906,-48.24635314941406,216.54498291015625
1700075908,0.93792724609375,0.5446624755859375,-0.45111083984375,0.8323291540145874,0.6884928941726685,2.140241861343384,135.85702514648438,-47.97050476074219,216.3010406494141
1700075908,1.16046142578125,0.606353759765625,-0.4111480712890625,0.830866277217865,0.6609182953834534,2.1894519329071045,135.74365234375,-47.57281494140625,216.4336700439453
1700075908,1.347442626953125,0.511810302734375,-0.512939453125,0.8661018013954163,0.5564576387405396,2.362636089324951,135.77603149414062,-48.06362915039063,216.5077667236328
1700075908,1.4619293212890625,0.4582061767578125,-0.5647735595703125,0.9262937307357788,0.4841208755970001,2.5282416343688965,135.7984161376953,-48.03273010253906,216.62632751464844
1700075908,1.5177459716796875,0.454193115234375,-0.5025634765625,0.9272149205207824,0.4637961685657501,2.670424222946167,136.01934814453125,-47.99983215332031,215.89697265625
1700075908,1.6378631591796875,0.4908905029296875,-0.4716644287109375,0.9184203743934632,0.3654163181781769,2.7661571502685547,135.8070526123047,-47.812103271484375,216.3372802734375
1700075908,1.7500152587890625,0.42633056640625,-0.4820709228515625,0.9035362601280212,0.2562006115913391,2.8330302238464355,135.66433715820312,-47.743682861328125,216.1513061523437
1700075908,1.70074462890625,0.3839874267578125,-0.53790283203125,0.8316945433616638,0.1242583021521568,2.809361457824707,135.5460205078125,-47.78108215332031,216.8398895263672
1700075908,1.7685394287109375,0.3946075439453125,-0.546875,0.6566356420516968,-0.0680634751915931,2.6320927143096924,135.67388916015625,-47.74708557128906,216.64976501464844
1700075908,1.817840576171875,0.321197509765625,-0.503448486328125,0.4516848921775818,-0.2468316256999969,2.3559458255767822,135.6174774169922,-47.57170104980469,216.7833251953125
1700075908,1.713897705078125,0.2335205078125,-0.5087890625,0.3706701993942261,-0.3753120899200439,2.17982029914856,135.52572631835938,-47.27818298339844,216.2387084960937
1700075908,1.45050048828125,0.231170654296875,-0.556488037109375,0.1738242506980896,-0.3978557586669922,1.9736769199371336,135.92909240722656,-47.27384948730469,216.29690551757807
1700075908,1.0345001220703125,0.194915771484375,-0.5729827880859375,-0.0346969924867153,-0.3482429385185241,1.6606324911117554,135.82122802734375,-47.62742614746094,216.835189819336
1700075908,0.602935791015625,0.0777740478515625,-0.4686737060546875,-0.1305726617574691,-0.2170388400554657,1.168120265007019,136.03611755371094,-47.79638671875,216.3891143798828
1700075908,0.2534027099609375,-0.090484619140625,-0.4117431640625,-0.3433445692062378,-0.2194010615348816,0.7649371027946472,135.72808837890625,-47.14842224121094,216.6051177978516
1700075908,-0.13653564453125,-0.1119537353515625,-0.33099365234375,-0.4953418374061584,-0.3184117972850799,0.3368547260761261,135.8363037109375,-47.387298583984375,216.66183471679688
1700075908,-0.39727783203125,-0.128082275390625,-0.1493072509765625,-0.5057079195976257,-0.490070641040802,-0.2319240421056747,135.8917236328125,-47.49288940429688,216.89059448242188
1700075908,-0.4350128173828125,-0.1474456787109375,0.101470947265625,-0.5200397372245789,-0.7336769104003906,-0.9877376556396484,136.0864715576172,-47.16915893554688,217.14454650878903
1700075908,-0.25634765625,-0.300262451171875,0.13555908203125,-0.4136240780353546,-0.9010928273200988,-1.6935139894485474,136.32940673828125,-47.17518615722656,217.1007843017578
1700075908,-0.0761871337890625,-0.42254638671875,-0.0207672119140625,-0.2990634143352508,-1.0092443227767944,-2.279782772064209,136.2467803955078,-47.49835205078125,217.12628173828125
1700075908,0.149322509765625,-0.4453887939453125,-0.1031646728515625,-0.1169889345765113,-1.0900118350982666,-2.771448850631714,136.22515869140625,-47.22059631347656,217.2163543701172
1700075908,0.340850830078125,-0.5060882568359375,-0.0077667236328125,-0.0725354552268982,-1.0891695022583008,-2.9950814247131348,136.14749145507812,-47.13383483886719,217.7702789306641
1700075908,0.3645172119140625,-0.39337158203125,0.0123443603515625,-0.2407092750072479,-1.010698914527893,-3.1778175830841064,135.91580200195312,-46.809173583984375,217.804443359375
1700075908,0.3907928466796875,-0.303680419921875,-0.08599853515625,-0.4477926790714264,-0.9171769618988036,-3.3980143070220947,136.4835205078125,-46.68746948242188,217.576416015625
1700075908,0.449249267578125,-0.2628631591796875,-0.1491241455078125,-0.5270869731903076,-0.8424656987190247,-3.6033527851104736,136.26112365722656,-46.57640075683594,217.61070251464844
1700075908,0.490814208984375,-0.1748199462890625,-0.1548309326171875,-0.5880150198936462,-0.789691686630249,-3.7975594997406006,136.04869079589844,-46.396514892578125,217.97659301757807
1700075908,0.552764892578125,-0.01702880859375,-0.16363525390625,-0.5992804765701294,-0.7716178894042969,-3.953944206237793,135.94830322265625,-46.24897766113281,217.995849609375
1700075908,0.6336669921875,0.1779327392578125,-0.1551971435546875,-0.4914664030075073,-0.8191838264465332,-4.041482448577881,136.27777099609375,-45.972991943359375,217.5519256591797
1700075908,0.76348876953125,0.3460845947265625,-0.1024169921875,-0.449311226606369,-0.9256399273872375,-4.194544315338135,136.33868408203125,-45.67753601074219,217.8343505859375
1700075908,0.94329833984375,0.4521331787109375,-0.0418243408203125,-0.4084114730358124,-1.0173150300979614,-4.397754192352295,136.37698364257812,-45.255279541015625,218.03219604492188
1700075908,1.045135498046875,0.4963836669921875,-0.0119476318359375,-0.4240351617336273,-1.067953109741211,-4.536062240600586,135.72296142578125,-44.67555236816406,217.58531188964844
1700075908,1.0926971435546875,0.536468505859375,-0.030181884765625,-0.3135917484760284,-1.230528473854065,-4.472016334533691,135.74368286132812,-44.40095520019531,217.573486328125
1700075908,1.1248931884765625,0.6275787353515625,0.05194091796875,-0.1919942051172256,-1.368313550949097,-4.293989658355713,135.73480224609375,-43.628692626953125,217.42486572265625
1700075908,1.1752166748046875,0.689544677734375,-0.0309600830078125,-0.0712291747331619,-1.3123629093170166,-4.179261684417725,135.52972412109375,-43.56849670410156,217.0983428955078
1700075908,1.203765869140625,0.7179107666015625,-0.2514801025390625,-0.0843353867530822,-1.1290444135665894,-4.079870223999023,135.4899139404297,-42.80198669433594,217.7579803466797
1700075908,1.1988372802734375,0.8207855224609375,-0.510986328125,-0.3024312257766723,-0.9730266332626344,-4.011767387390137,135.08599853515625,-42.20794677734375,217.70431518554688
1700075908,1.1943511962890625,0.9440155029296876,-0.74432373046875,-0.6032893657684326,-1.1851212978363037,-3.905189275741577,134.8535614013672,-41.06935119628906,216.9244842529297
1700075908,1.30322265625,1.0342254638671875,-0.6148223876953125,-0.7261465787887573,-1.3885918855667114,-3.776028871536255,134.66563415527344,-40.0736083984375,217.32760620117188
1700075908,1.4268646240234375,1.0116424560546875,-0.418670654296875,-0.6601552963256836,-1.3584808111190796,-3.580977201461792,134.81678771972656,-39.33183288574219,217.40625
1700075908,1.427276611328125,0.977264404296875,-0.2881622314453125,-0.2629842162132263,-1.242862343788147,-3.3059215545654297,134.18988037109375,-38.48429870605469,216.99078369140625
1700075908,1.36175537109375,1.016082763671875,-0.1968994140625,0.095785915851593,-1.162519097328186,-3.05012583732605,134.110595703125,-37.50321960449219,217.38259887695312
1700075908,1.22332763671875,1.0293426513671875,-0.2465362548828125,0.4164076149463653,-1.127056121826172,-2.753678560256958,133.4229736328125,-36.58883666992188,216.9135284423828
1700075908,1.0699005126953125,1.01800537109375,-0.3238525390625,0.5391700267791748,-1.0827076435089111,-2.453709840774536,132.87203979492188,-35.424102783203125,217.42176818847656
1700075908,1.01324462890625,0.93096923828125,-0.3766937255859375,0.5759474635124207,-0.9662113189697266,-2.2357935905456543,132.56747436523438,-34.52394104003906,216.36279296875
1700075908,1.0253143310546875,0.7718658447265625,-0.412689208984375,0.489511638879776,-0.8063668012619019,-2.0240044593811035,131.971923828125,-33.84716796875,216.22415161132807
1700075908,0.9912567138671876,0.6431121826171875,-0.450836181640625,0.2894565761089325,-0.6471787691116333,-1.7336935997009275,131.36769104003906,-32.59742736816406,215.954833984375
1700075908,0.8854522705078125,0.5834197998046875,-0.5045318603515625,0.1363210827112198,-0.5448648929595947,-1.39140522480011,130.69381713867188,-32.0338134765625,216.01443481445312
1700075908,0.7713623046875,0.538909912109375,-0.4858856201171875,0.0972437262535095,-0.4408863186836242,-1.1121368408203125,130.0839385986328,-31.602462768554688,216.2019958496093
1700075908,0.688446044921875,0.475921630859375,-0.4091949462890625,0.1656531393527984,-0.2829395532608032,-0.8716326355934143,129.69131469726562,-31.174468994140625,215.4211578369141
1700075908,0.65576171875,0.4465789794921875,-0.2889862060546875,0.2891790866851806,-0.1059197783470153,-0.581386148929596,129.33981323242188,-30.291519165039062,215.429428100586
1700075908,0.67462158203125,0.4639129638671875,-0.1658782958984375,0.4044049978256225,-0.0246981550008058,-0.2503935992717743,128.4945831298828,-29.498947143554688,215.49331665039065
1700075908,0.73138427734375,0.4708709716796875,-0.0566253662109375,0.3497023284435272,0.0357366912066936,0.0619067773222923,128.6365966796875,-29.173065185546875,215.61383056640625
1700075908,0.8191070556640625,0.4230499267578125,-0.0825653076171875,0.2591157257556915,0.1004547029733657,0.3161342740058899,128.31568908691406,-28.811782836914062,215.006103515625
1700075908,0.8812713623046875,0.3260498046875,-0.2028656005859375,0.1212316155433654,0.2415764033794403,0.5035286545753479,127.99290466308594,-28.766616821289062,215.01858520507807
1700075908,0.860870361328125,0.245391845703125,-0.43157958984375,-0.0926138237118721,0.5675691366195679,0.7334907650947571,128.2541961669922,-29.179244995117188,214.3734130859375
1700075908,0.7671051025390625,0.256591796875,-0.7393341064453125,-0.418118953704834,1.154468655586243,0.8940324783325195,128.55545043945312,-29.764404296875,214.6478271484375
1700075908,0.551116943359375,0.3361053466796875,-1.1451568603515625,-0.7831563353538513,1.0647927522659302,1.3961310386657717,128.90988159179688,-30.55409240722656,214.42596435546875
1700075908,0.63360595703125,0.572174072265625,-0.9261932373046876,-1.028254747390747,1.569871425628662,1.5722652673721311,129.44546508789062,-31.22944641113281,214.078353881836
1700075908,0.8703460693359375,0.4837646484375,-1.348480224609375,0.0430247001349926,4.111245632171631,1.968519687652588,130.71461486816406,-32.248291015625,213.92501831054688
1700075908,0.0963897705078125,1.03753662109375,-3.0979156494140625,0.5673105716705322,-0.2331312596797943,2.946406602859497,131.55503845214844,-33.72325134277344,213.525131225586
1700075908,2.0047149658203125,1.4345245361328125,0.3787078857421875,0.1229512244462966,-1.4058477878570557,1.0940427780151367,132.61300659179688,-35.06617736816406,213.2263946533203
1700075908,3.857833862304688,-0.713714599609375,0.6331024169921875,1.4537192583084106,1.0274536609649658,-0.4808478355407715,134.03872680664062,-37.46221923828125,212.5045166015625
1700075908,2.1034698486328125,-1.5645751953125,0.6024627685546875,1.4965462684631348,1.8251063823699951,-0.2326758503913879,135.09471130371094,-39.43136596679688,212.26307678222656
1700075908,0.9307708740234376,-0.909881591796875,1.0504608154296875,0.0312319546937942,1.524064540863037,0.4160118699073791,136.42263793945312,-41.5772705078125,212.4203338623047
1700075908,0.6973724365234375,-0.560699462890625,-0.0026092529296875,-1.2605282068252563,1.007124900817871,0.9915899634361268,138.03675842285156,-44.42013549804688,212.3519592285156
1700075908,0.7697296142578125,-0.5299224853515625,-0.3430633544921875,-1.4345154762268066,0.7204505801200867,1.2298656702041626,139.79891967773438,-47.41134643554688,211.98794555664065
1700075908,1.2161407470703125,-0.7379150390625,-0.10595703125,-1.188537836074829,0.7626885771751404,1.4182590246200562,141.13304138183594,-50.7607421875,211.9489898681641
1700075908,1.6485748291015625,-0.6866607666015625,-0.017730712890625,-1.257724642753601,0.707577645778656,1.9135408401489256,142.46287536621094,-54.01307678222656,212.2039489746093
1700075908,1.7596588134765625,-0.1194000244140625,-0.07379150390625,-1.1034996509552002,0.497579425573349,2.389253616333008,143.73977661132812,-57.95985412597656,212.3143615722656
1700075908,1.540069580078125,0.410003662109375,-0.21221923828125,-0.7740094065666199,0.06723602861166,1.9800211191177368,145.0878143310547,-61.79545593261719,212.7484588623047
1700075908,1.13665771484375,0.5203857421875,-0.4384307861328125,-0.611333429813385,-0.2499688267707824,1.033824443817139,145.5504150390625,-65.56520080566406,213.6248474121093
1700075908,0.995025634765625,0.591094970703125,-0.302459716796875,-0.5415388941764832,0.1266362369060516,0.6563480496406555,146.46348571777344,-69.65290832519531,214.18850708007807
1700075908,1.654541015625,0.44464111328125,0.3720855712890625,0.053809966892004,0.7608144879341125,0.4744623899459839,146.77317810058594,-74.24441528320312,214.719970703125
1700075908,2.218719482421875,0.01068115234375,0.38299560546875,0.050638411194086,0.9344451427459716,0.8913554549217224,146.91184997558594,-78.13067626953125,215.04986572265625
1700075908,1.9550628662109373,0.34283447265625,-0.267608642578125,0.0380206182599067,0.551784873008728,1.1210273504257202,147.00575256347656,-82.06654357910156,215.6444854736328
1700075908,1.25213623046875,0.404144287109375,-0.5306854248046875,0.1018419414758682,0.1729786992073059,0.860369086265564,146.9225311279297,-85.63290405273438,216.93716430664065
1700075908,0.8275146484375,0.267974853515625,-0.5790863037109375,-0.0319036059081554,0.0756204575300216,0.5276890993118286,146.3809051513672,-89.11332702636719,217.86485290527344
1700075908,0.6529998779296875,0.276458740234375,-0.4478607177734375,0.1079006344079971,0.1731795072555542,0.3564704954624176,145.8216094970703,-92.92195129394533,219.2493133544922
1700075908,0.60589599609375,0.2100372314453125,-0.2870025634765625,0.2797293961048126,0.1146594732999801,0.3531825542449951,145.29452514648438,-95.54060363769533,220.5005340576172
1700075908,0.7479400634765625,0.1363067626953125,-0.321746826171875,0.2714799642562866,-0.0122036691755056,0.3770383596420288,144.5716552734375,-98.00241088867188,220.84283447265625
1700075908,0.9456024169921876,0.104888916015625,-0.371246337890625,0.1981476992368698,-0.0273144450038671,0.3821561634540558,143.99327087402344,-100.35702514648438,222.15318298339844
1700075908,1.0431060791015625,0.0468292236328125,-0.3088531494140625,0.0787821635603904,0.0045012747868895,0.412961483001709,143.46798706054688,-102.45445251464844,223.7449188232422
1700075908,1.0516357421875,0.0277099609375,-0.2835235595703125,0.0442643985152244,0.0163392927497625,0.4941679239273071,143.05552673339844,-104.27256774902344,224.49859619140625
1700075908,1.021331787109375,0.0627899169921875,-0.28839111328125,0.0672139227390289,0.0325765833258628,0.5639427304267883,142.3772430419922,-105.5206298828125,225.51785278320312
1700075908,0.998504638671875,0.112548828125,-0.278900146484375,0.0901077911257743,0.0882630199193954,0.5990740656852722,142.32177734375,-106.73101806640624,225.5498504638672
1700075908,0.9743499755859376,0.12677001953125,-0.242095947265625,0.1240596324205398,0.1569970697164535,0.6699873805046082,141.63734436035156,-107.81069946289062,226.34793090820312
1700075908,0.906951904296875,0.1074981689453125,-0.224365234375,0.1612208485603332,0.2194458097219467,0.7674438953399658,141.50994873046875,-108.15524291992188,226.62905883789065
1700075908,0.8643951416015625,0.05914306640625,-0.211669921875,0.1996526569128036,0.2853449285030365,0.9008381962776184,141.33518981933594,-108.37974548339844,226.01759338378903
1700075908,0.8256683349609375,-0.0121917724609375,-0.2044830322265625,0.2507315576076507,0.3504389822483063,1.0577229261398315,141.3509979248047,-108.76539611816406,226.0333709716797
1700075908,0.7837066650390625,-0.0635223388671875,-0.2418060302734375,0.3122788071632385,0.4306914806365967,1.1990208625793457,141.0209197998047,-108.1936492919922,225.942123413086
1700075908,0.80389404296875,-0.0876312255859375,-0.2660369873046875,0.3658741116523742,0.5069803595542908,1.3395823240280151,141.53482055664062,-108.09217834472656,225.68365478515625
1700075908,0.8762664794921875,-0.05072021484375,-0.234588623046875,0.402498185634613,0.5925485491752625,1.4837015867233276,141.72955322265625,-107.48558044433594,225.0830993652344
1700075909,0.9599456787109376,0.053253173828125,-0.244232177734375,0.4893318712711334,0.650946855545044,1.6077735424041748,141.80264282226562,-107.50840759277344,224.7386932373047
1700075909,1.0146331787109375,0.1648712158203125,-0.245025634765625,0.5738099813461304,0.6891927719116211,1.7023077011108398,141.64028930664062,-107.6510009765625,224.307861328125
1700075909,1.0447540283203125,0.1888275146484375,-0.2286224365234375,0.6517543196678162,0.7404035329818726,1.774237871170044,141.4462432861328,-108.31439208984376,223.96522521972656
1700075909,0.982513427734375,0.1411590576171875,-0.2956085205078125,0.7339594960212708,0.765403687953949,1.8504348993301392,140.9923553466797,-108.70880126953124,223.4335021972656
1700075909,0.8484649658203125,0.1391754150390625,-0.3914642333984375,0.8739541172981262,0.8004732728004456,1.926233530044556,140.77194213867188,-107.99430847167967,223.62391662597656
1700075909,0.684173583984375,0.2240447998046875,-0.4065399169921875,0.9871792197227478,0.8591184616088867,1.890207052230835,140.62619018554688,-106.6275634765625,223.55645751953125
1700075909,0.6405792236328125,0.386932373046875,-0.30548095703125,1.044015884399414,0.924535036087036,1.8227366209030151,141.01144409179688,-106.16476440429688,223.94873046875
1700075909,0.756134033203125,0.5144500732421875,-0.1898345947265625,1.1114490032196045,0.9925284385681152,1.822733998298645,140.70736694335938,-105.76687622070312,223.3861083984375
1700075909,0.9588775634765624,0.495452880859375,-0.217437744140625,1.0917987823486328,0.9851890206336976,1.904746055603028,140.23965454101562,-105.38653564453124,223.67404174804688
1700075909,1.1804962158203125,0.3614044189453125,-0.25262451171875,0.9042121767997742,0.9802706837654114,2.0316600799560547,140.29298400878906,-105.05140686035156,223.5369873046875
1700075909,1.2066802978515625,0.2421417236328125,-0.358245849609375,0.7529358267784119,1.0043896436691284,2.236440658569336,140.0723876953125,-104.68637084960938,222.62957763671875
1700075909,0.9696807861328124,0.1941986083984375,-0.5058746337890625,0.8371137976646423,0.998823344707489,2.4101479053497314,139.88037109375,-104.36726379394533,222.9416961669922
1700075909,0.8263397216796875,0.2589569091796875,-0.4874114990234375,0.9273590445518494,0.9890985488891602,2.4223861694335938,139.69570922851562,-104.30686950683594,222.2545623779297
1700075909,0.9594879150390624,0.4652557373046875,-0.42596435546875,0.9783084988594056,1.0077215433120728,2.39296817779541,139.89532470703125,-103.8706512451172,221.59542846679688
1700075909,1.0785675048828125,0.5622406005859375,-0.3763885498046875,1.1013214588165283,0.9876761436462402,2.398906707763672,139.48606872558594,-103.97543334960938,221.6488494873047
1700075909,1.0538787841796875,0.5567474365234375,-0.4152069091796875,1.1520613431930542,0.9445329308509828,2.461066484451294,139.50860595703125,-104.05477905273438,221.353759765625
1700075909,1.21270751953125,0.5230712890625,-0.41387939453125,1.028256893157959,0.9331154227256776,2.5436384677886963,139.4298553466797,-103.68946838378906,220.90626525878903
1700075909,1.3016510009765625,0.4027099609375,-0.4423065185546875,0.9508653879165648,0.8584492206573486,2.660773992538452,139.3024444580078,-103.56411743164062,220.599853515625
1700075909,1.2347412109375,0.4285125732421875,-0.526611328125,1.043965220451355,0.7917191982269287,2.723106384277344,139.50827026367188,-103.18666076660156,221.38247680664065
1700075909,1.4266357421875,0.5987091064453125,-0.4779205322265625,1.0934851169586182,0.7704418301582336,2.70076322555542,139.28097534179688,-103.26112365722656,220.69493103027344
1700075909,1.7624359130859375,0.5879669189453125,-0.3909454345703125,1.065535306930542,0.6636093854904175,2.6469085216522217,139.0028076171875,-103.45660400390624,220.3916015625
1700075909,1.9709320068359373,0.402313232421875,-0.3737640380859375,1.0487805604934692,0.5209867358207703,2.593555450439453,138.92153930664062,-103.34748840332033,219.85011291503903
1700075909,2.033798217773437,0.242706298828125,-0.4302520751953125,0.8912907838821411,0.3164599537849426,2.5542287826538086,138.75283813476562,-103.27522277832033,220.1685791015625
1700075909,1.982330322265625,0.1869964599609375,-0.507720947265625,0.5218256115913391,0.1376188546419143,2.499106407165528,138.7982177734375,-103.29257202148438,219.9709930419922
1700075909,1.7224884033203125,0.204803466796875,-0.6317291259765625,0.1644203662872314,0.0201513413339853,2.2656595706939697,139.06118774414062,-102.6934051513672,220.19142150878903
1700075909,1.2555084228515625,0.1731414794921875,-0.696533203125,-0.0267980583012104,0.0379404574632644,1.9362813234329224,138.69749450683594,-102.91018676757812,219.6437225341797
1700075909,0.7594757080078125,0.1081390380859375,-0.57257080078125,-0.0493427813053131,0.1304541528224945,1.3282132148742676,138.35301208496094,-102.6589813232422,220.0262145996093
1700075909,0.435272216796875,-0.059173583984375,-0.4741058349609375,-0.3287951946258545,0.106030561029911,0.9131414890289308,138.2875518798828,-102.55624389648438,219.53005981445312
1700075909,-0.043182373046875,-0.0291900634765625,-0.4875030517578125,-0.420093685388565,0.007676828186959,0.407727301120758,138.1317138671875,-102.543212890625,219.1885986328125
1700075909,-0.494659423828125,-0.1300048828125,-0.19451904296875,0.1602154970169067,-0.1532553285360336,-0.2814625799655914,138.24673461914062,-102.16542053222656,218.7050018310547
1700075909,-0.853973388671875,-0.2704315185546875,0.332122802734375,0.456853300333023,-0.4223917126655578,-1.017434000968933,138.2332000732422,-101.81288146972656,219.0414428710937
1700075909,-0.6750640869140625,-0.158294677734375,0.3485870361328125,0.2294273376464843,-0.6511191725730896,-1.7062252759933472,137.74151611328125,-101.5594482421875,218.9920959472656
1700075909,-0.0128936767578125,-0.1780242919921875,-0.070281982421875,0.1384249925613403,-0.8536674976348877,-2.501797914505005,138.2098846435547,-101.2165069580078,218.6967315673828
1700075909,0.33343505859375,-0.603424072265625,-0.0509185791015625,0.2527459561824798,-0.8533945083618164,-3.006314992904663,138.2733154296875,-101.17584228515624,218.5174255371093
1700075909,0.2994537353515625,-0.7590179443359375,0.0512237548828125,0.1105784401297569,-0.84946608543396,-3.116865396499634,138.04306030273438,-100.88449096679688,218.0967712402344
1700075909,0.232208251953125,-0.5345458984375,-0.0761260986328125,-0.1832502484321594,-0.9554886817932128,-3.203288555145264,138.13565063476562,-100.7080535888672,218.48252868652344
1700075909,0.301788330078125,-0.24871826171875,-0.1725311279296875,-0.4021085500717163,-0.9966113567352296,-3.480708360671997,137.95330810546875,-100.02017211914062,218.2331695556641
1700075909,0.3787078857421875,-0.1480255126953125,-0.1602020263671875,-0.592144787311554,-0.928212583065033,-3.848716974258423,137.9598846435547,-99.74324035644533,217.8201904296875
1700075909,0.429412841796875,-0.1502838134765625,-0.14825439453125,-0.6167577505111694,-0.8713982701301575,-4.146283149719238,137.78384399414062,-99.888671875,217.9576873779297
1700075909,0.498382568359375,-0.1469268798828125,-0.1673126220703125,-0.5463355183601379,-0.8246520757675171,-4.307931423187256,137.57801818847656,-99.4534912109375,217.6273193359375
1700075909,0.5628814697265625,-0.021240234375,-0.23101806640625,-0.4595228433609009,-0.8324477076530457,-4.426362037658691,137.5844268798828,-98.91928100585938,217.6978454589844
1700075909,0.67681884765625,0.125244140625,-0.236328125,-0.3596433997154236,-0.9346941709518432,-4.484611034393311,137.6323699951172,-98.41165161132812,217.6775665283203
1700075909,0.817657470703125,0.24810791015625,-0.1593780517578125,-0.3914450109004974,-1.0337475538253784,-4.479285717010498,137.9298553466797,-98.2998046875,218.1797790527344
1700075909,1.0135040283203125,0.357940673828125,-0.1124725341796875,-0.4568405151367187,-1.1307276487350464,-4.50502347946167,137.42498779296875,-97.91836547851562,217.4180145263672
1700075909,1.203399658203125,0.4376220703125,-0.0821533203125,-0.2907125353813171,-1.2074873447418213,-4.483423709869385,137.67715454101562,-97.57061767578124,217.3915557861328
1700075909,1.2702484130859375,0.5556488037109375,-0.0987091064453125,0.0022991069126874,-1.2234452962875366,-4.420313358306885,137.69566345214844,-97.1463623046875,216.81753540039065
1700075909,1.2986907958984375,0.6736602783203125,-0.242034912109375,0.1703238040208816,-1.31368088722229,-4.368419647216797,137.26187133789062,-97.09805297851562,217.3763885498047
1700075909,1.3545074462890625,0.786773681640625,-0.354339599609375,0.0517063364386558,-1.3722312450408936,-4.28650426864624,137.17034912109375,-96.84597778320312,216.71121215820312
1700075909,1.3726959228515625,0.9405059814453124,-0.50048828125,-0.3218531310558319,-1.3703458309173584,-4.220256328582764,137.40940856933594,-96.3501434326172,216.894760131836
1700075909,1.3594512939453125,1.0839996337890625,-0.5764617919921875,-0.6497332453727722,-1.3516796827316284,-4.156766414642334,137.49964904785156,-95.6095733642578,217.2529296875
1700075909,1.3161468505859375,1.158050537109375,-0.479034423828125,-0.6478360295295715,-1.28557288646698,-4.087837219238281,137.42539978027344,-95.15858459472656,217.1181488037109
1700075909,1.2745819091796875,1.1173248291015625,-0.32464599609375,-0.4468632340431213,-1.1959556341171265,-3.956050157546997,137.4588623046875,-94.40452575683594,216.67266845703125
1700075909,1.2719268798828125,1.0599517822265625,-0.243408203125,-0.2070325464010238,-1.162101984024048,-3.712143659591675,137.1837921142578,-94.17683410644533,216.3955535888672
1700075909,1.2812042236328125,1.0595855712890625,-0.254180908203125,0.0515651889145374,-1.1761232614517212,-3.354886770248413,137.39175415039062,-93.6936492919922,216.1951599121093
1700075909,1.279083251953125,1.063812255859375,-0.313140869140625,0.2499941289424896,-1.2008429765701294,-2.945696830749512,136.8983917236328,-92.68438720703124,216.472412109375
1700075909,1.2255096435546875,1.02838134765625,-0.323699951171875,0.316609114408493,-1.1972395181655884,-2.602452278137207,136.89796447753906,-91.93472290039062,216.1800842285156
1700075909,1.164337158203125,0.941436767578125,-0.348358154296875,0.1724151819944381,-1.1082510948181152,-2.27252197265625,136.75338745117188,-91.0619659423828,215.8143920898437
1700075909,1.0914459228515625,0.8606414794921875,-0.4068145751953125,-0.0217311289161443,-0.9416982531547546,-1.8736326694488523,136.7322998046875,-90.04751586914062,215.15040588378903
1700075909,1.0009918212890625,0.82965087890625,-0.495849609375,-0.2110853493213653,-0.7658971548080444,-1.393031120300293,136.2205047607422,-88.69638061523438,214.5792694091797
1700075909,0.88214111328125,0.8221893310546875,-0.6256561279296875,-0.4590919613838196,-0.5850400328636169,-0.9322150349617004,136.25936889648438,-87.84967041015625,214.44509887695312
1700075909,0.6891326904296875,0.77734375,-0.69366455078125,-0.6556870341300964,-0.3785238564014435,-0.5440028309822083,135.81138610839844,-86.87762451171875,214.0548553466797
1700075909,0.511962890625,0.6864471435546875,-0.5959320068359375,-0.673191487789154,-0.1462200582027435,-0.2113085091114044,135.6487579345703,-85.49310302734375,213.9279327392578
1700075909,0.4420928955078125,0.5819091796875,-0.3798370361328125,-0.6220095157623291,0.1335988044738769,0.1579736620187759,135.05955505371094,-83.95854187011719,213.59915161132807
1700075909,0.4956207275390625,0.5395965576171875,-0.226776123046875,-0.538566529750824,0.3942287862300873,0.5233154296875,134.30172729492188,-82.34249877929688,212.8853759765625
1700075909,0.644439697265625,0.5277099609375,-0.2442169189453125,-0.4166315793991089,0.523401141166687,0.8664504289627075,134.24038696289062,-80.66270446777344,212.66607666015625
1700075909,0.8211517333984375,0.55865478515625,-0.3484649658203125,-0.3251948654651642,0.8545836210250854,1.1269911527633667,133.45718383789062,-78.89884948730469,211.4386444091797
1700075909,0.8450164794921875,0.6496734619140625,-0.70367431640625,-0.2264270186424255,0.8270478844642639,1.272014617919922,132.87107849121094,-77.31916809082031,211.88885498046875
1700075909,0.6920318603515625,0.6753692626953125,-0.7239837646484375,-0.0364264510571956,0.6809234023094177,1.1106319427490234,131.98797607421875,-75.28378295898438,210.6747436523437
1700075909,1.086700439453125,0.357666015625,-0.47265625,0.0750369578599929,3.4909162521362305,1.4703898429870603,130.98634338378906,-73.77276611328125,210.54200744628903
1700075909,0.35174560546875,0.68975830078125,-2.591033935546875,0.7460983991622925,3.498664379119873,2.1460299491882324,130.426513671875,-72.12712097167969,209.53846740722656
1700075909,0.4128265380859375,1.4243011474609375,-2.0635528564453125,-0.4844023585319519,-1.0304441452026367,1.574885010719299,129.3048095703125,-70.752685546875,209.4670562744141
1700075909,3.896026611328125,-0.0936737060546875,1.31640625,0.1549235433340072,0.2123905569314956,-0.371982604265213,129.0321807861328,-69.31594848632812,208.43536376953125
1700075909,3.2581939697265625,-1.5132293701171875,-0.0945587158203125,1.4485191106796265,1.118894338607788,-0.6542041897773743,128.3232879638672,-68.14004516601562,208.270751953125
1700075909,1.4444732666015625,-1.2115325927734375,0.8491058349609375,1.6039960384368896,1.2795639038085938,0.4858852028846741,127.20291137695312,-66.90042114257812,207.7139587402344
1700075909,0.5937652587890625,-0.883880615234375,0.77618408203125,0.4217949211597442,1.1066877841949463,1.5514923334121704,126.90936279296876,-65.31727600097656,207.14878845214844
1700075909,0.43450927734375,-0.7796173095703125,0.0843963623046875,-0.995824098587036,0.9963828325271606,1.7589459419250488,126.38754272460938,-63.68562316894531,206.7107696533203
1700075909,0.891082763671875,-0.7813262939453125,-0.0374908447265625,-1.879709959030152,1.2600107192993164,1.9872395992279053,125.84584045410156,-62.35920715332031,207.19140625
1700075909,1.2264404296875,-0.449462890625,-0.198089599609375,-1.9558393955230715,1.2579201459884644,2.298764944076538,124.76397705078124,-60.556396484375,206.3775177001953
1700075909,1.603729248046875,-0.0489044189453125,-0.1815338134765625,-1.6069071292877195,0.8951795101165771,2.408186912536621,123.67828369140624,-59.28245544433594,206.9967498779297
1700075909,1.756591796875,0.347412109375,-0.3372955322265625,-1.2935771942138672,0.0011347729014232,1.911094188690185,123.03334045410156,-57.51080322265625,206.84844970703125
1700075909,1.5558319091796875,0.6261444091796875,-0.4188995361328125,-1.1589161157608032,-0.4779247641563415,1.159092903137207,121.81243896484376,-56.19300842285156,206.7039031982422
1700075909,1.4375,0.7646942138671875,-0.1775665283203125,-0.7570642828941345,0.0849085003137588,0.8097389340400696,120.76504516601562,-54.54830932617188,205.929443359375
1700075909,1.7024383544921875,0.5280303955078125,0.2879180908203125,0.2578904032707214,0.7313884496688843,0.5726819038391113,119.9463348388672,-52.958404541015625,205.80226135253903
1700075909,2.241806030273437,0.0258026123046875,0.396240234375,0.3803324103355407,0.8327020406723022,0.8183502554893494,118.56843566894533,-51.257415771484375,205.5044708251953
1700075909,2.000701904296875,0.29791259765625,-0.2317352294921875,0.2217941731214523,0.4429020583629608,1.119579553604126,117.99790954589844,-49.75848388671875,205.7605133056641
1700075909,1.284454345703125,0.4341583251953125,-0.568572998046875,0.1576519459486007,0.0337185487151145,0.9278677105903624,116.57078552246094,-48.44235229492188,205.34950256347656
1700075909,0.845458984375,0.2432098388671875,-0.574615478515625,-0.0137863857671618,0.0326711274683475,0.693379282951355,115.24649047851562,-47.16444396972656,205.73025512695312
1700075909,0.5438232421875,0.2750701904296875,-0.388275146484375,0.1246228888630867,0.2712669372558594,0.5728901624679565,113.91143798828124,-45.69976806640625,205.9145355224609
1700075909,0.3976287841796875,0.232696533203125,-0.22503662109375,0.3383908271789551,0.2983672618865967,0.5359795689582825,112.1046905517578,-44.26707458496094,206.4541778564453
1700075909,0.614410400390625,0.125,-0.3084716796875,0.4040502607822418,0.1698668003082275,0.5883055925369263,110.1748504638672,-43.0184326171875,207.1141052246093
1700075909,0.889923095703125,0.078857421875,-0.3347930908203125,0.3749786615371704,0.2087415009737014,0.6775776743888855,108.56948852539062,-42.1376953125,208.2013092041016
1700075909,1.00299072265625,0.0103302001953125,-0.2883453369140625,0.2664212882518768,0.3045700192451477,0.7374029159545898,107.07339477539062,-41.5189208984375,209.79579162597656
1700075909,1.0300140380859375,-0.0816802978515625,-0.25946044921875,0.1433430463075637,0.3711618185043335,0.8425331115722656,105.76930236816406,-41.17835998535156,210.2635498046875
1700075909,1.0016632080078125,-0.080657958984375,-0.2868804931640625,0.1048569083213806,0.3967534601688385,1.0451894998550415,104.33633422851562,-40.9176025390625,211.1079559326172
1700075909,0.9412078857421876,0.0240020751953125,-0.3072662353515625,0.1681613177061081,0.4061943888664245,1.156468629837036,102.55824279785156,-41.38653564453125,211.92010498046875
1700075909,0.91888427734375,0.131072998046875,-0.2968292236328125,0.1841623783111572,0.4515445530414581,1.1832187175750732,101.35491943359376,-42.31034851074219,212.200424194336
1700075909,0.885650634765625,0.2386322021484375,-0.3080596923828125,0.2742645740509033,0.4750996828079223,1.1653438806533811,100.33998107910156,-43.33793640136719,212.042221069336
1700075909,0.8825531005859375,0.25640869140625,-0.2248687744140625,0.4720008373260498,0.5482963919639587,1.1596146821975708,99.99635314941406,-44.64799499511719,212.5864105224609
1700075909,0.8755645751953125,0.2176666259765625,-0.21099853515625,0.6973345875740051,0.6285526156425476,1.2031666040420532,99.72848510742188,-45.96792602539063,213.1494140625
1700075909,0.88623046875,0.1645355224609375,-0.246551513671875,0.8028908371925354,0.6940133571624756,1.3061281442642212,100.52964782714844,-46.89605712890625,214.0360717773437
1700075910,0.9432373046875,0.1318511962890625,-0.27435302734375,0.8016911149024963,0.7461865544319153,1.4113041162490845,100.9978485107422,-48.08598327636719,214.69692993164065
1700075910,0.997833251953125,0.106292724609375,-0.322265625,0.7230958938598633,0.7593641877174377,1.5036654472351074,101.57012939453124,-49.7410888671875,215.0186462402344
1700075910,0.9489288330078124,0.10443115234375,-0.397003173828125,0.7346774339675903,0.7669901251792908,1.632140874862671,102.99528503417967,-51.871429443359375,216.37481689453125
1700075910,0.834808349609375,0.110748291015625,-0.419036865234375,0.819580614566803,0.7823262214660645,1.7418378591537476,103.88360595703124,-54.14884948730469,217.1847381591797
1700075910,0.7648468017578125,0.1779937744140625,-0.398773193359375,0.8718936443328857,0.8122074007987976,1.750035285949707,105.1955108642578,-56.70765686035156,217.6103973388672
1700075910,0.7520599365234375,0.328033447265625,-0.38067626953125,0.8940953612327576,0.850795567035675,1.704768180847168,106.19010925292967,-59.72538757324219,218.7056579589844
1700075910,0.8182373046875,0.4774017333984375,-0.336456298828125,0.9943212866783142,0.8978296518325806,1.669280767440796,107.03898620605467,-61.67681884765625,220.1460418701172
1700075910,0.9340667724609376,0.5157318115234375,-0.2957611083984375,1.1609104871749878,0.9509977698326112,1.715526103973389,108.4619140625,-64.84956359863281,221.49658203125
1700075910,1.0579376220703125,0.44256591796875,-0.3223876953125,1.2054790258407593,0.9733981490135192,1.784990310668945,108.90170288085938,-67.85523986816406,222.4381866455078
1700075910,1.278228759765625,0.3245086669921875,-0.3458404541015625,1.000300049781799,0.9537967443466188,1.983291745185852,109.4779815673828,-71.15223693847656,224.29214477539065
1700075910,1.3309478759765625,0.213287353515625,-0.349090576171875,0.9362832903862,1.0350865125656128,2.2339909076690674,109.86184692382812,-74.11921691894531,225.262924194336
1700075910,0.974853515625,0.082550048828125,-0.4600830078125,0.9914085865020752,1.0252845287322998,2.426149845123291,109.76954650878906,-76.72488403320312,226.78775024414065
1700075910,0.8091888427734375,0.2334442138671875,-0.5382843017578125,1.0071686506271362,1.052841305732727,2.399730920791626,109.7743682861328,-79.59605407714844,228.302490234375
1700075910,0.880828857421875,0.4647979736328125,-0.4786376953125,1.078926920890808,1.1150681972503662,2.2897815704345703,109.1943817138672,-82.33940124511719,230.00347900390625
1700075910,0.8115386962890625,0.602447509765625,-0.4317626953125,1.2228695154190063,1.1302732229232788,2.212648868560791,108.64625549316406,-85.02523803710938,230.94845581054688
1700075910,1.006072998046875,0.7119903564453125,-0.4637451171875,1.256379008293152,1.0901250839233398,2.2396163940429688,108.44509887695312,-87.19953918457031,232.22091674804688
1700075910,1.528839111328125,0.6491546630859375,-0.446533203125,1.1842342615127563,1.0199637413024902,2.352144718170166,107.83967590332033,-89.39356994628906,233.76336669921875
1700075910,1.7207489013671875,0.36181640625,-0.43536376953125,1.098779797554016,0.9796094298362732,2.588076114654541,106.8060302734375,-90.9697265625,234.3397979736328
1700075910,1.6519775390625,0.23980712890625,-0.486907958984375,0.962662935256958,0.894217848777771,2.7161624431610107,106.08934020996094,-92.9071807861328,234.8018493652344
1700075910,1.748687744140625,0.2679901123046875,-0.536865234375,0.8528839945793152,0.786767303943634,2.7392477989196777,105.20333862304688,-94.97238159179688,235.77789306640625
1700075910,1.79132080078125,0.2862091064453125,-0.5664215087890625,0.7355397939682007,0.6819530129432678,2.6526408195495605,104.21516418457033,-97.05992126464844,236.8404693603516
1700075910,1.788238525390625,0.2521820068359375,-0.5841064453125,0.5351614356040955,0.5426981449127197,2.515131950378418,103.49397277832033,-98.263671875,237.6187896728516
1700075910,1.65625,0.237823486328125,-0.6380157470703125,0.3275126218795776,0.3247732818126678,2.301316499710083,102.17527770996094,-99.825439453125,238.3013458251953
1700075910,1.398223876953125,0.213470458984375,-0.5860443115234375,0.1568604558706283,0.2064964473247528,1.9599765539169312,101.60862731933594,-100.7074737548828,238.677963256836
1700075910,1.0105438232421875,0.1431427001953125,-0.5275115966796875,0.0524261891841888,0.2704716920852661,1.5808700323104858,100.50450134277344,-101.63609313964844,238.67819213867188
1700075910,0.519805908203125,0.0863037109375,-0.580780029296875,0.242361769080162,0.3403160274028778,0.9216800928115844,100.2991943359375,-102.48248291015624,239.37413024902344
1700075910,0.2585296630859375,-0.105560302734375,-0.43353271484375,0.2108525782823562,0.3684568703174591,0.4748357534408569,99.5540008544922,-102.98869323730467,239.07925415039065
1700075910,-0.1351470947265625,-0.089996337890625,-0.3618316650390625,0.2690546214580536,0.3247354626655578,-0.0210885070264339,98.82522583007812,-103.36569213867188,239.6607208251953
1700075910,-0.5400543212890625,-0.0877685546875,-0.082183837890625,0.7319368124008179,0.0847524404525756,-0.7287572622299194,98.43576049804688,-104.01882934570312,239.8709259033203
1700075910,-0.7047576904296875,-0.05615234375,0.322418212890625,0.8531580567359924,-0.2492162138223648,-1.3684991598129272,98.38803100585938,-104.35067749023438,240.50534057617188
1700075910,-0.395050048828125,0.0916290283203125,0.3164215087890625,0.5966692566871643,-0.4410956501960754,-2.1255900859832764,97.94358825683594,-104.79969787597656,239.7994384765625
1700075910,0.13360595703125,-0.25518798828125,-0.028228759765625,0.3414644002914428,-0.4531472325325012,-2.885977029800415,97.08438110351562,-104.7518310546875,239.85255432128903
1700075910,0.29296875,-0.7100830078125,-0.117919921875,0.1801684349775314,-0.4061797261238098,-3.4284346103668213,96.66317749023438,-105.44612121582033,240.0003204345703
1700075910,0.3314971923828125,-0.9143524169921876,-0.01318359375,-0.1495237052440643,-0.4896184206008911,-3.4731249809265137,96.07989501953124,-105.47373962402344,239.6710968017578
1700075910,0.379974365234375,-0.6826629638671875,-0.055511474609375,-0.4816569089889526,-0.5675010085105896,-3.396618366241455,95.63075256347656,-105.75230407714844,238.82449340820312
1700075910,0.4559173583984375,-0.2786712646484375,-0.1956024169921875,-0.5542368292808533,-0.6129060387611389,-3.673580884933472,95.50251770019533,-105.24772644042967,238.5762634277344
1700075910,0.6253814697265625,-0.130706787109375,-0.22503662109375,-0.4698023796081543,-0.6439304947853088,-4.0166015625,95.21270751953124,-105.03131103515624,237.951400756836
1700075910,0.749603271484375,0.030426025390625,-0.1142120361328125,-0.4212689399719238,-0.6502965092658997,-4.190431594848633,95.41705322265624,-104.6957550048828,237.5828857421875
1700075910,0.8262176513671875,0.205047607421875,-0.01165771484375,-0.3762298226356506,-0.664989709854126,-4.207828998565674,94.56227111816406,-104.59197998046876,237.26377868652344
1700075910,0.8875274658203125,0.31964111328125,0.036468505859375,-0.329391747713089,-0.6492592096328735,-4.257539749145508,94.908447265625,-104.3060302734375,236.8216247558593
1700075910,0.967193603515625,0.345245361328125,-0.034576416015625,-0.255380630493164,-0.7299489974975586,-4.300696849822998,94.43496704101562,-103.77813720703124,236.0996856689453
1700075910,0.959503173828125,0.3744659423828125,-0.1377716064453125,-0.3476170897483825,-0.7951685190200806,-4.409060001373291,94.54031372070312,-103.64874267578124,235.67320251464844
1700075910,0.98779296875,0.388702392578125,-0.2161102294921875,-0.3557040393352508,-0.8749634623527527,-4.540532112121582,94.72129821777344,-103.0564422607422,235.2090301513672
1700075910,1.0057220458984375,0.401123046875,-0.113525390625,-0.1157915815711021,-0.9994584918022156,-4.633355140686035,93.3581085205078,-102.21696472167967,233.45123291015625
1700075910,1.0087738037109375,0.4259490966796875,0.0174560546875,0.2969184815883636,-1.1694000959396362,-4.570981502532959,93.40681457519533,-101.5378875732422,233.24542236328125
1700075910,1.0168304443359375,0.56573486328125,0.0761566162109375,0.6552071571350098,-1.1567254066467283,-4.323221683502197,94.5135498046875,-101.85343933105467,234.03561401367188
1700075910,1.013702392578125,0.8310546875,-0.14202880859375,0.8621195554733276,-1.073556423187256,-4.091655254364014,94.23793029785156,-102.78341674804688,233.85693359375
1700075910,1.0500946044921875,1.1048431396484375,-0.3864593505859375,0.8325038552284241,-1.270496129989624,-3.932652235031128,92.98353576660156,-102.58795166015624,232.3532257080078
1700075910,1.21099853515625,1.388214111328125,-0.422576904296875,0.4625205099582672,-1.4650741815567017,-3.9955997467041016,92.48396301269533,-102.3170166015625,231.86007690429688
1700075910,1.4764556884765625,1.4935150146484375,-0.3921356201171875,0.4479077458381653,-1.3914244174957275,-4.236289024353027,92.44256591796876,-102.01266479492188,232.4539489746093
1700075910,1.6577606201171875,1.2817840576171875,-0.2467193603515625,0.7736855745315552,-1.2036925554275513,-4.297391891479492,92.60401916503906,-101.64840698242188,231.9654541015625
1700075910,1.6496429443359375,1.0625,-0.1663665771484375,0.680009663105011,-1.085269331932068,-4.097263336181641,92.7935028076172,-100.97492980957033,232.2805328369141
1700075910,1.4685211181640625,0.9453887939453124,-0.303863525390625,0.7684450149536133,-1.0616856813430786,-3.605938196182251,92.92774963378906,-101.0389404296875,232.6639709472656
1700075910,1.3101654052734375,0.9018402099609376,-0.383636474609375,0.8828115463256836,-1.154136300086975,-3.139040231704712,93.72288513183594,-100.89263916015624,232.81463623046875
1700075910,1.1476287841796875,0.8036956787109375,-0.40234375,0.8203585147857666,-1.120154857635498,-2.7496426105499268,93.68058776855467,-101.2505340576172,233.00143432617188
1700075910,0.994781494140625,0.728546142578125,-0.45703125,0.7840449810028076,-0.9726884365081788,-2.4370925426483154,93.41975402832033,-100.6287841796875,233.156478881836
1700075910,0.9198760986328124,0.677337646484375,-0.3925323486328125,0.9130248427391052,-0.7878022193908691,-2.163306713104248,93.21705627441406,-100.36129760742188,233.2577972412109
1700075910,0.908294677734375,0.6244354248046875,-0.294403076171875,1.0588808059692385,-0.6371620893478394,-1.9372339248657229,93.322265625,-100.00009155273438,232.8196716308593
1700075910,0.9061279296875,0.5629425048828125,-0.278228759765625,1.1241333484649658,-0.522341787815094,-1.726879358291626,93.91659545898438,-99.32795715332033,232.45217895507807
1700075910,0.887237548828125,0.4947967529296875,-0.323028564453125,1.1714571714401243,-0.4157061278820038,-1.4670497179031372,94.1805419921875,-98.78111267089844,232.01710510253903
1700075910,0.8629150390625,0.431884765625,-0.35418701171875,1.3011057376861572,-0.3592891991138458,-1.2210657596588137,94.65457153320312,-98.58108520507812,232.1935272216797
1700075910,0.860870361328125,0.3270111083984375,-0.2846527099609375,1.4471150636672974,-0.367948979139328,-0.9991391897201538,94.81431579589844,-98.25340270996094,232.89178466796875
1700075910,0.8886871337890625,0.21734619140625,-0.150146484375,1.4782993793487549,-0.3719477355480194,-0.744262158870697,94.46965026855467,-98.46417236328124,232.8813934326172
1700075910,0.8736419677734375,0.1687469482421875,-0.083404541015625,1.4150538444519043,-0.284822940826416,-0.4789647161960602,94.43743896484376,-98.36647033691406,232.5657196044922
1700075910,0.8235015869140625,0.14697265625,-0.13592529296875,1.3258209228515625,-0.1447662413120269,-0.2164851725101471,94.668701171875,-98.83921813964844,232.909423828125
1700075910,0.761688232421875,0.1665191650390625,-0.2732086181640625,1.2321224212646484,-0.0068075722083449,0.0736401304602623,94.92140197753906,-98.71989440917967,232.86795043945312
1700075910,0.7012481689453125,0.22442626953125,-0.44482421875,1.1851873397827148,0.1145737171173095,0.3658903539180755,94.74421691894533,-98.5991668701172,233.0711364746093
1700075910,0.6376190185546875,0.271697998046875,-0.585479736328125,1.0878533124923706,0.2198953479528427,0.6558364629745483,94.87730407714844,-98.38600158691406,232.96470642089844
1700075910,0.5921783447265625,0.2878265380859375,-0.6644439697265625,0.6042227745056152,0.8606410026550293,1.0345661640167236,95.0258331298828,-98.54550170898438,233.07028198242188
1700075910,0.5648956298828125,0.3991546630859375,-1.0747528076171875,0.1175015941262245,1.21034836769104,1.3713774681091309,95.10137939453124,-98.42161560058594,232.7406616210937
1700075910,0.38250732421875,0.5059051513671875,-1.2304229736328125,0.0160402189940214,2.04738450050354,1.6351913213729858,95.23802185058594,-98.25935363769533,232.91604614257807
1700075910,0.41436767578125,0.5645294189453125,-1.762542724609375,0.7156347632408142,4.023121356964111,2.1526637077331543,95.26321411132812,-97.40354919433594,232.8281097412109
1700075910,0.018585205078125,1.0952606201171875,-3.058349609375,0.1901611536741256,-0.5665087103843689,2.736003160476685,95.41909790039062,-96.96263122558594,232.6347503662109
1700075910,2.3635406494140625,0.8046875,0.6996917724609375,-0.7309871315956116,-1.0083109140396118,1.0120978355407717,95.501953125,-96.316162109375,232.4132843017578
1700075910,3.9371337890625,-1.162811279296875,0.4399566650390625,0.3007750213146209,0.9978877902030944,-0.2253175377845764,95.63027954101562,-95.57687377929688,231.91763305664065
1700075910,2.2104644775390625,-1.5849609375,0.3984222412109375,0.7681983709335327,1.5406339168548584,0.2315655797719955,95.88926696777344,-94.86753845214844,231.8988342285156
1700075910,0.952392578125,-1.0638275146484375,0.9669189453125,-0.184662789106369,1.2712152004241943,1.4621779918670654,95.83953857421876,-94.04942321777344,231.7406616210937
1700075910,0.4722442626953125,-0.6237640380859375,0.16424560546875,-1.0274267196655271,0.917155921459198,2.149554252624512,96.100341796875,-93.16293334960938,231.94004821777344
1700075910,0.5869903564453125,-0.6068572998046875,-0.084197998046875,-1.3432159423828125,0.9365218877792358,2.1573307514190674,95.94857788085938,-92.17184448242188,231.5977020263672
1700075910,1.012603759765625,-0.498870849609375,-0.0048370361328125,-1.6771280765533447,1.1401737928390503,2.3277084827423096,95.77366638183594,-91.6522216796875,230.6850433349609
1700075910,1.386199951171875,-0.0189056396484375,-0.0814208984375,-1.8859875202178955,1.185686707496643,2.490938663482666,96.1385498046875,-90.45933532714844,230.74188232421875
1700075910,1.5644073486328125,0.336212158203125,-0.284515380859375,-1.5346596240997314,0.6789857149124146,2.032641887664795,96.11447143554688,-89.61672973632812,230.13052368164065
1700075910,1.4562835693359375,0.43194580078125,-0.4900054931640625,-0.748371958732605,0.2590768337249756,1.2512545585632324,95.89466857910156,-88.5849609375,229.9540100097656
1700075910,1.5498199462890625,0.4159088134765625,-0.491241455078125,0.154156818985939,0.2679222524166107,0.8942135572433472,95.61526489257812,-87.73928833007812,229.2394256591797
1700075910,2.42120361328125,0.212249755859375,0.173675537109375,0.7979898452758789,0.6288418173789978,1.31639301776886,95.3127899169922,-86.72795104980469,228.75634765625
1700075910,2.681137084960937,0.1861724853515625,0.5042266845703125,0.201831117272377,0.9428272247314452,2.062095642089844,95.25576782226562,-85.37489318847656,229.3734436035156
1700075910,1.7264862060546875,0.428436279296875,-0.027069091796875,-0.1393001079559326,0.5568235516548157,1.816213846206665,95.11346435546876,-84.2626953125,228.6869201660156
1700075910,0.8297882080078125,0.33282470703125,-0.4705047607421875,-0.1740101426839828,0.2085127234458923,1.0888326168060305,94.85552978515624,-83.1729736328125,227.97802734375
1700075910,0.3102264404296875,0.23431396484375,-0.8067626953125,0.167194589972496,0.2139271944761276,0.7644063234329224,94.50201416015624,-82.44593811035156,227.84507751464844
1700075910,0.140533447265625,0.317779541015625,-0.6492767333984375,0.6269515156745911,0.2270904034376144,0.7453356981277466,94.36831665039062,-80.97216796875,227.3303375244141
1700075910,0.7065887451171875,0.3184356689453125,-0.2619476318359375,0.5906388163566589,0.1228763908147811,0.6850675344467163,94.31071472167967,-80.23532104492188,226.76364135742188
1700075910,1.1697845458984375,0.3117218017578125,-0.3782501220703125,0.3434465825557709,0.0647875219583511,0.5788378119468689,93.80735778808594,-79.090576171875,226.3780212402344
1700075910,1.1794891357421875,0.26434326171875,-0.5631103515625,0.3009150922298431,0.0170913692563772,0.5197023153305054,94.1551513671875,-77.64205932617188,226.3665313720703
1700075910,1.0515899658203125,0.155975341796875,-0.500152587890625,0.3026157915592193,0.0156125156208872,0.5909698009490967,93.4290008544922,-77.20687866210938,226.14161682128903
1700075910,0.920989990234375,0.078765869140625,-0.4009246826171875,0.25534388422966,0.0611512400209903,0.6784288287162781,93.1011199951172,-75.60725402832031,225.6282196044922
1700075910,0.8810882568359375,0.067138671875,-0.3638458251953125,0.2071212232112884,0.0623659044504165,0.714449942111969,93.06584167480467,-74.73521423339844,226.11502075195312
1700075910,0.93621826171875,0.1612091064453125,-0.350616455078125,0.1114301234483718,0.0702874809503555,0.693895697593689,92.88249206542967,-72.94288635253906,225.6041259765625
1700075910,0.9753570556640624,0.241424560546875,-0.33001708984375,0.0178980398923158,0.0939483344554901,0.670735776424408,92.10768127441406,-71.57894897460938,225.30563354492188
1700075910,0.93902587890625,0.28131103515625,-0.319671630859375,0.04321750998497,0.1028685942292213,0.6292080283164978,91.71923828125,-70.6572265625,224.8848876953125
1700075911,0.9174346923828124,0.257354736328125,-0.2988739013671875,0.1888652592897415,0.1265198588371276,0.6043245196342468,91.28591918945312,-68.98500061035156,224.62164306640625
1700075911,0.8957366943359375,0.2064666748046875,-0.2891693115234375,0.3575906157493591,0.1779031604528427,0.6308506727218628,91.23428344726562,-67.45828247070312,225.3722686767578
1700075911,0.88427734375,0.140960693359375,-0.2691802978515625,0.4595313668251037,0.2237318903207779,0.715055525302887,90.33599853515624,-65.85331726074219,224.83338928222656
1700075911,0.884735107421875,0.0721435546875,-0.2753448486328125,0.4888817965984344,0.2709318995475769,0.8669974207878113,90.07919311523438,-64.69293212890625,225.16929626464844
1700075911,0.8714599609375,0.029327392578125,-0.2700653076171875,0.3771917521953583,0.3824794590473175,1.0526492595672607,89.57640075683594,-63.23898315429688,225.83448791503903
1700075911,0.869842529296875,0.001953125,-0.270477294921875,0.273496001958847,0.4304214119911194,1.2323788404464722,89.21299743652344,-62.1295166015625,225.66018676757807
1700075911,0.8742218017578125,0.0047149658203125,-0.2880401611328125,0.2740693688392639,0.4942970871925354,1.3944101333618164,88.77937316894531,-60.89622497558594,225.4594268798828
1700075911,0.8487701416015625,0.07232666015625,-0.3638916015625,0.3287834823131561,0.5454729199409485,1.4704960584640503,88.12197875976562,-60.056427001953125,226.3511505126953
1700075911,0.844879150390625,0.15576171875,-0.354522705078125,0.3880119025707245,0.5890518426895142,1.4878838062286377,87.66319274902344,-59.43217468261719,225.8248443603516
1700075911,0.8201904296875,0.263519287109375,-0.308197021484375,0.4745611846446991,0.666550874710083,1.493078589439392,87.40472412109375,-58.80503845214844,226.98455810546875
1700075911,0.842498779296875,0.3781280517578125,-0.29058837890625,0.6071648001670837,0.7355871796607971,1.493804097175598,86.83413696289062,-58.71197509765625,226.83778381347656
1700075911,0.938751220703125,0.3985595703125,-0.2730255126953125,0.7875374555587769,0.8207406997680664,1.5804595947265625,86.83721923828125,-58.48626708984375,226.8172607421875
1700075911,1.0136566162109375,0.363739013671875,-0.244598388671875,0.9080183506011964,0.8636178374290466,1.772236466407776,86.53684997558594,-58.44049072265625,226.99615478515625
1700075911,1.0050048828125,0.3350982666015625,-0.2265777587890625,0.6361373066902161,0.9386553764343262,1.868390679359436,86.48179626464844,-58.6815185546875,226.8328094482422
1700075911,0.96942138671875,0.2664794921875,-0.3690643310546875,0.5506224036216736,1.0092434883117676,1.9190278053283687,86.777099609375,-59.21437072753906,227.3491973876953
1700075911,0.965484619140625,0.1637725830078125,-0.4984130859375,0.733121931552887,1.035204529762268,2.09921932220459,87.28793334960938,-60.14642333984375,227.8028106689453
1700075911,0.97442626953125,0.1879119873046875,-0.527099609375,1.0156422853469849,1.1060792207717896,2.200071334838867,87.77497863769531,-60.93272399902344,227.8008575439453
1700075911,0.96405029296875,0.2522430419921875,-0.502471923828125,1.18725323677063,1.1838525533676147,2.166818618774414,88.21778869628906,-61.52107238769531,228.33824157714844
1700075911,0.9311065673828124,0.3953704833984375,-0.491424560546875,1.3222222328186035,1.2859249114990234,2.1250369548797607,88.46446228027344,-62.56558227539063,228.3182678222656
1700075911,0.994873046875,0.5094757080078125,-0.4462890625,1.4441726207733154,1.335191249847412,2.179377555847168,89.26399230957031,-63.538909912109375,229.5020446777344
1700075911,1.18682861328125,0.495697021484375,-0.377593994140625,1.405977487564087,1.3335739374160769,2.306737899780273,89.53529357910156,-64.47378540039062,229.37939453125
1700075911,1.244415283203125,0.3841094970703125,-0.420928955078125,1.402423858642578,1.3199830055236816,2.524761915206909,89.89230346679688,-65.73524475097656,229.8181915283203
1700075911,0.9916534423828124,0.22198486328125,-0.498443603515625,1.3860161304473877,1.3150068521499634,2.670816421508789,90.01544189453125,-66.68992614746094,229.686767578125
1700075911,0.8211669921875,0.350616455078125,-0.62774658203125,1.4892479181289673,1.381954550743103,2.629544258117676,90.33308410644533,-68.0882568359375,230.0696563720703
1700075911,0.8706207275390625,0.579345703125,-0.6269378662109375,1.7285659313201904,1.4684635400772097,2.50818133354187,90.50935363769533,-69.34335327148438,230.4598999023437
1700075911,1.0172271728515625,0.592376708984375,-0.594512939453125,1.883408784866333,1.4739965200424194,2.491292953491211,90.7777862548828,-70.6575927734375,230.4661865234375
1700075911,1.2572021484375,0.49102783203125,-0.6365966796875,1.9734060764312744,1.4338581562042236,2.574805974960327,91.18690490722656,-72.16145324707031,230.4718017578125
1700075911,1.5236053466796875,0.36492919921875,-0.7050018310546875,1.875190019607544,1.2447564601898191,2.678239822387696,91.11419677734376,-73.39105224609375,231.2000732421875
1700075911,1.83843994140625,0.3273162841796875,-0.791259765625,2.0091817378997803,1.1589860916137695,2.794956684112549,91.33343505859376,-74.63145446777344,231.37750244140625
1700075911,1.9347381591796875,0.2272491455078125,-0.670318603515625,2.16214370727539,1.2113984823226929,2.5856175422668457,91.27737426757812,-75.96316528320312,231.31495666503903
1700075911,2.1677703857421875,-0.100982666015625,-0.505828857421875,2.1941678524017334,1.233513355255127,2.040098190307617,91.01290893554688,-76.58500671386719,232.0947113037109
1700075911,2.1456298828125,-0.4890594482421875,-0.586517333984375,1.891552448272705,0.8835124969482422,2.087621688842773,91.04820251464844,-78.03985595703125,232.1888122558593
1700075911,1.5293426513671875,-0.3041534423828125,-0.5150146484375,1.1330312490463257,0.906852662563324,2.5480637550354004,90.980712890625,-79.25750732421875,232.18165588378903
1700075911,0.8137664794921875,0.0673828125,-0.6680450439453125,0.7003583908081055,1.103188157081604,2.467772483825684,91.39591979980467,-80.56294250488281,233.01695251464844
1700075911,0.2958221435546875,0.16436767578125,-0.83868408203125,0.5841622352600098,1.262560486793518,1.7804869413375854,91.08349609375,-81.95089721679688,233.57693481445312
1700075911,-0.0374603271484375,0.319915771484375,-0.9204864501953124,0.5471440553665161,1.2929255962371826,0.6764010787010193,91.45391845703124,-83.13424682617188,233.7357635498047
1700075911,-0.242401123046875,0.4392852783203125,-0.44287109375,0.4918304681777954,1.122685432434082,-0.3326493203639984,91.05339050292967,-84.13655090332031,234.7640075683593
1700075911,0.032135009765625,-0.066009521484375,0.2860260009765625,0.0093836477026343,0.8553503155708313,-0.9327369928359984,91.07730102539062,-83.85591125488281,234.3389129638672
1700075911,0.32818603515625,-0.7186431884765625,0.155059814453125,-0.56867915391922,0.5788569450378418,-1.5657306909561155,90.88197326660156,-85.16383361816406,234.5888519287109
1700075911,0.46343994140625,-1.08197021484375,-0.0608367919921875,-1.1683777570724487,0.4857930839061737,-2.218862533569336,90.948974609375,-85.11439514160156,234.7753143310547
1700075911,0.3737335205078125,-1.0701141357421875,-0.343292236328125,-1.1584396362304688,0.3455379605293274,-2.8724231719970703,90.93099975585938,-85.63006591796875,235.1089630126953
1700075911,0.326568603515625,-0.784759521484375,-0.3047027587890625,-0.7420229911804199,0.293713629245758,-3.495014905929565,90.98739624023438,-86.35981750488281,235.1493682861328
1700075911,0.5282135009765625,-0.461822509765625,-0.0321197509765625,-0.1620517522096634,0.3339960873126983,-4.0121378898620605,90.681640625,-86.82540893554688,235.06182861328125
1700075911,0.7093048095703125,-0.0714111328125,0.1211700439453125,0.3997609913349151,0.3691679239273071,-4.4656291007995605,90.85787963867188,-86.91676330566406,235.1266326904297
1700075911,0.91162109375,0.287872314453125,0.20306396484375,0.7866437435150146,0.3448593914508819,-4.835836887359619,90.63714599609376,-87.06852722167969,235.10714721679688
1700075911,1.093109130859375,0.5621490478515625,0.2446441650390625,0.9953764081001282,0.3456807136535644,-5.281555652618408,90.56280517578124,-86.97840881347656,235.5489196777344
1700075911,1.2999420166015625,0.5807647705078125,0.2471923828125,1.0153543949127195,0.3517865240573883,-5.656530857086182,90.62565612792967,-86.98246765136719,235.07765197753903
1700075911,1.383453369140625,0.467041015625,0.2192230224609375,0.8878534436225891,0.3282572329044342,-5.87710428237915,90.63998413085938,-86.79176330566406,235.78286743164065
1700075911,1.3587493896484375,0.33489990234375,0.238037109375,0.664016604423523,0.2745982706546783,-6.032905578613281,90.32536315917967,-86.70416259765625,235.04795837402344
1700075911,1.3677978515625,0.2094879150390625,0.2450408935546875,0.4644885659217834,0.188449278473854,-6.151527404785156,90.38632202148438,-86.33877563476562,235.4311981201172
1700075911,1.416290283203125,0.1694183349609375,0.1699981689453125,0.3646690547466278,0.1064380258321762,-6.272906303405762,90.41569519042967,-86.13002014160156,235.0135040283203
1700075911,1.484588623046875,0.1685333251953125,0.0926361083984375,0.4772869348526001,-0.0594880953431129,-6.363037586212158,89.72480773925781,-85.84303283691406,234.54283142089844
1700075911,1.545379638671875,0.22821044921875,0.1455078125,0.7851038575172424,-0.2565287351608276,-6.348970890045166,89.80714416503906,-86.04975891113281,234.76931762695312
1700075911,1.60784912109375,0.3510894775390625,0.24676513671875,1.091539978981018,-0.3552470505237579,-6.330182075500488,89.18962097167969,-86.25445556640625,234.8120574951172
1700075911,1.719268798828125,0.4010009765625,0.2401580810546875,1.2553390264511108,-0.3668006360530853,-6.273110389709473,88.35845947265625,-85.28857421875,233.10418701171875
1700075911,1.8292999267578125,0.463836669921875,0.151031494140625,1.4241772890090942,-0.4360305666923523,-6.162738800048828,88.7008056640625,-84.40534973144531,233.4108123779297
1700075911,1.931549072265625,0.55242919921875,0.10711669921875,1.689265489578247,-0.5838485360145569,-6.082892417907715,89.79197692871094,-84.39762878417969,233.42495727539065
1700075911,1.9823760986328125,0.6074371337890625,0.087493896484375,1.929794192314148,-0.6644206047058105,-6.03004264831543,89.63192749023438,-84.30288696289062,233.886459350586
1700075911,1.97955322265625,0.6521148681640625,0.015380859375,2.192257642745972,-0.6346267461776733,-6.022315502166748,88.76535034179688,-84.14543151855469,232.5817108154297
1700075911,1.9206085205078125,0.714385986328125,-0.00897216796875,2.4190545082092285,-0.5743594169616699,-6.007176399230957,87.95265197753906,-83.63511657714844,232.3471527099609
1700075911,1.8217010498046875,0.7954864501953125,-0.019866943359375,2.855602502822876,-0.5165589451789856,-6.001081943511963,87.69285583496094,-84.05073547363281,232.0813446044922
1700075911,1.757049560546875,0.8337860107421875,0.0444488525390625,3.245816469192505,-0.5028295516967773,-5.861700534820557,87.62037658691406,-83.9375,232.04006958007807
1700075911,1.6337127685546875,0.8980255126953125,0.097991943359375,3.756297826766968,-0.4106730222702026,-5.668756484985352,87.58438110351562,-84.33425903320312,232.0419464111328
1700075911,1.5603485107421875,0.914459228515625,0.08990478515625,4.149110317230225,-0.2775418758392334,-5.500901699066162,87.00001525878906,-83.97581481933594,232.01708984375
1700075911,1.5054931640625,0.91021728515625,0.0603179931640625,4.378787040710449,-0.1881720423698425,-5.301526069641113,87.49531555175781,-83.6702880859375,231.8382568359375
1700075911,1.43487548828125,0.943023681640625,0.066741943359375,4.377024173736572,-0.1719086468219757,-5.021379470825195,87.60078430175781,-83.24578857421875,231.8695373535156
1700075911,1.3854827880859375,0.9932403564453124,0.066741943359375,4.152573108673096,-0.1993511915206909,-4.623933792114258,87.6383056640625,-83.37364196777344,232.29991149902344
1700075911,1.3226470947265625,1.0041656494140625,0.076385498046875,3.766695022583008,-0.2801874577999115,-4.055502891540527,87.87506103515625,-83.62969970703125,232.1439819335937
1700075911,1.21282958984375,1.00714111328125,0.1056060791015625,3.1139721870422363,-0.3997308909893036,-3.274553298950196,87.4930419921875,-83.52175903320312,231.79122924804688
1700075911,1.058380126953125,1.0681915283203125,0.0758514404296875,2.31360936164856,-0.4285899698734283,-2.433626413345337,87.5257568359375,-83.448486328125,231.5176696777344
1700075911,0.8987274169921875,1.1074371337890625,0.0190277099609375,1.4079920053482056,-0.3800647854804992,-1.6434271335601809,87.23149108886719,-82.46124267578125,231.5087280273437
1700075911,0.8034515380859375,1.0862579345703125,-0.0333251953125,0.5394664406776428,-0.319305807352066,-0.750157356262207,87.20462036132812,-82.13490295410156,231.5682373046875
1700075911,0.7432403564453125,1.126495361328125,-0.06768798828125,-0.1647213101387024,-0.2335616201162338,0.1137761026620864,87.44209289550781,-81.96366882324219,231.72378540039065
1700075911,0.7216796875,1.1537322998046875,-0.111083984375,-0.7210623025894165,0.0106856673955917,0.6193114519119263,87.2037353515625,-81.91688537597656,231.6947021484375
1700075911,0.8061370849609375,1.0078582763671875,-0.314453125,-0.8627145290374756,0.1193522289395332,1.572510004043579,87.42021179199219,-81.70452880859375,230.8626708984375
1700075911,0.57098388671875,1.3022308349609375,-0.4525604248046875,-0.4140538871288299,0.0986341685056686,1.95774245262146,87.28500366210938,-81.50004577636719,231.6805419921875
1700075911,0.7677001953125,1.08074951171875,-0.6353302001953125,0.289299726486206,-0.1213586553931236,0.2604028284549713,87.58406066894531,-81.46759033203125,230.7846069335937
1700075911,2.065185546875,-0.63507080078125,-0.2053680419921875,1.5538463592529297,-0.1775028854608535,-1.4983519315719604,87.46286010742188,-81.11479187011719,231.3704833984375
1700075911,2.717391967773437,-1.3947296142578125,0.444854736328125,-0.1506337225437164,0.7114653587341309,1.0772286653518677,87.69438171386719,-81.36441040039062,231.4530487060547
1700075911,1.8740692138671875,0.0064544677734375,-0.5767822265625,-1.3808481693267822,0.7857688665390015,3.085532665252685,87.40335083007812,-81.136474609375,230.9774169921875
1700075911,2.102035522460937,-0.519561767578125,-0.4457244873046875,-1.674443602561951,0.3992131650447845,3.504037618637085,87.675537109375,-80.67327880859375,231.4129638671875
1700075911,1.36376953125,-0.7870025634765625,-0.2975616455078125,-1.4343937635421753,0.0054458980448544,3.217782497406006,87.502197265625,-80.72418212890625,231.175537109375
1700075911,0.18634033203125,-0.4710235595703125,-0.3669281005859375,-0.5621885061264038,0.0224483180791139,2.100059986114502,87.71549987792969,-80.61125183105469,231.4923095703125
1700075911,-0.372314453125,-0.1752166748046875,-0.6113433837890625,0.2017131447792053,0.9215911626815796,1.2315125465393066,87.63531494140625,-80.03575134277344,230.6736297607422
1700075911,-0.0032958984375,0.3636627197265625,-0.8086090087890625,0.5322763919830322,0.7963754534721375,1.5894639492034912,87.39186096191406,-79.46456909179688,231.27423095703125
1700075911,0.9730072021484376,0.910797119140625,-0.16912841796875,0.3299709856510162,0.2295999079942703,1.532077670097351,87.0020751953125,-79.03289794921875,231.26416015625
1700075911,1.79730224609375,0.823150634765625,-0.1370697021484375,0.545737087726593,0.3170490562915802,0.9333093166351318,87.25994873046875,-78.65252685546875,230.50308227539065
1700075911,1.6508941650390625,0.5975494384765625,-0.6136474609375,1.020152568817139,0.2571809291839599,0.6349269151687622,87.14396667480469,-77.77891540527344,230.2599029541016
1700075911,1.22418212890625,0.4449920654296875,-0.5269317626953125,1.3200533390045166,0.0626567229628562,0.537297785282135,87.14796447753906,-77.26657104492188,230.65773010253903
1700075911,1.0211944580078125,0.185516357421875,-0.3348236083984375,1.2565598487854004,0.0456215478479862,0.4633484780788421,86.81007385253906,-76.25332641601562,229.7621459960937
1700075911,0.9092864990234376,-0.0973358154296875,-0.24090576171875,0.9266127943992616,0.1997980624437332,0.4726714193820953,86.32737731933594,-75.70112609863281,229.57989501953125
1700075911,0.8156890869140625,-0.268768310546875,-0.25799560546875,0.6823122501373291,0.3457379639148712,0.5281804800033569,86.10777282714844,-74.77835083007812,229.8780059814453
1700075911,0.83074951171875,-0.2924957275390625,-0.364471435546875,0.7257127165794373,0.2511174380779266,0.5923677086830139,85.96015930175781,-74.46157836914062,229.2294921875
1700075911,0.9607391357421876,-0.1835479736328125,-0.3787689208984375,0.6133036017417908,0.1722332835197448,0.6112918853759766,85.26573181152344,-73.23516845703125,229.4232940673828
1700075911,0.9806976318359376,0.0127410888671875,-0.478424072265625,0.4763247370719909,0.157612532377243,0.5147554874420166,85.205078125,-72.47604370117188,228.87612915039065
1700075911,0.959869384765625,0.1710052490234375,-0.5551605224609375,0.4117156565189361,0.1179628521203994,0.3181952834129333,84.38636779785156,-71.51692199707031,228.70242309570312
1700075911,0.991424560546875,0.199462890625,-0.5730438232421875,0.4585076570510864,0.0535774752497673,0.1774621307849884,84.3343505859375,-70.68763732910156,227.9769897460937
1700075911,0.9618988037109376,0.138671875,-0.5594482421875,0.4633735120296478,-0.0105794072151184,0.1568213105201721,83.860107421875,-69.51358032226562,227.8437347412109
1700075911,0.9139251708984376,0.0314483642578125,-0.5464019775390625,0.3859554231166839,-0.0819095149636268,0.188194140791893,83.20845031738281,-69.09904479980469,228.0180511474609
1700075911,0.9065399169921876,-0.052093505859375,-0.5131683349609375,0.2922832667827606,-0.1198347881436348,0.2558123469352722,82.59466552734375,-68.26712036132812,227.1604919433593
1700075912,0.9051666259765624,-0.0870208740234375,-0.494598388671875,0.23054239153862,-0.1496305018663406,0.3012940585613251,82.05403137207031,-67.27734375,226.7200927734375
1700075912,0.899139404296875,-0.0879974365234375,-0.4773712158203125,0.2305149734020233,-0.1813173294067382,0.3265448212623596,81.54891967773438,-66.13137817382812,227.50347900390625
1700075912,0.9032745361328124,-0.048004150390625,-0.44775390625,0.2641221880912781,-0.1863914430141449,0.2995267808437347,80.78924560546875,-65.065185546875,226.70358276367188
1700075912,0.92388916015625,-0.012542724609375,-0.3929901123046875,0.2918550372123718,-0.1436612904071808,0.2595750987529754,80.09620666503906,-64.21661376953125,226.99639892578125
1700075912,0.924774169921875,-0.01177978515625,-0.3053436279296875,0.310599148273468,-0.1248641684651374,0.2261244803667068,79.55030822753906,-63.38316345214844,226.302734375
1700075912,0.921722412109375,-0.0566253662109375,-0.23870849609375,0.3655609488487243,-0.0768345966935157,0.2300092279911041,78.65849304199219,-62.19366455078125,225.9718780517578
1700075912,0.91046142578125,-0.0902099609375,-0.3106689453125,0.4885454475879669,-0.0579381361603736,0.2563984990119934,78.0863037109375,-61.35772705078125,226.72042846679688
1700075912,0.927154541015625,-0.0849761962890625,-0.374755859375,0.6391842365264893,-0.0789893567562103,0.3285749554634094,77.65431213378906,-60.45849609375,226.0098114013672
1700075912,0.9487457275390624,-0.0209503173828125,-0.39739990234375,0.6670835018157959,-0.0998847857117652,0.3503992855548858,76.47999572753906,-59.14335632324219,226.09176635742188
1700075912,0.97454833984375,0.0421142578125,-0.4113311767578125,0.5909567475318909,-0.0942069292068481,0.2948915660381317,76.20361328125,-58.43898010253906,226.27687072753903
1700075912,0.9884033203125,0.038116455078125,-0.4031524658203125,0.6232110857963562,-0.0785840228199958,0.2519915103912353,75.3336181640625,-57.53759765625,225.8856506347656
1700075912,0.9610748291015624,-0.0119476318359375,-0.385406494140625,0.7874165773391724,-0.1068561449646949,0.2955168783664703,74.87503051757812,-56.415283203125,226.5688323974609
1700075912,0.903961181640625,-0.04150390625,-0.392425537109375,0.8411921858787537,-0.105475828051567,0.3400443792343139,74.26295471191406,-56.32637023925781,225.8930511474609
1700075912,0.8789215087890625,-0.060272216796875,-0.4461669921875,0.7636510729789734,-0.0930487141013145,0.357225239276886,73.61965942382812,-56.09880065917969,226.08702087402344
1700075912,0.8775634765625,-0.057769775390625,-0.4338531494140625,0.6127185225486755,-0.0761964991688728,0.358532041311264,73.09098815917969,-55.323822021484375,225.9916229248047
1700075912,0.881500244140625,-0.0450286865234375,-0.4128265380859375,0.4682444334030151,-0.0483811162412166,0.3779579401016235,72.67959594726562,-55.8670654296875,225.8669586181641
1700075912,0.8868255615234375,-0.03558349609375,-0.3776702880859375,0.3332586586475372,-0.0123557355254888,0.4272208511829376,72.23887634277344,-56.01017761230469,225.8268280029297
1700075912,0.8870849609375,-0.0230255126953125,-0.3731536865234375,0.2169112712144851,0.0212251283228397,0.4805000424385071,72.52767944335938,-55.80049133300781,225.98681640625
1700075912,0.90838623046875,-0.0058441162109375,-0.370147705078125,0.1967205107212066,0.0499425269663333,0.5177070498466492,72.27481079101562,-55.49624633789063,225.79795837402344
1700075912,0.9389801025390624,0.009613037109375,-0.3482818603515625,0.2402131408452987,0.0955092087388038,0.5333477854728699,73.17376708984375,-55.8402099609375,225.15408325195312
1700075912,0.9595184326171876,0.0180511474609375,-0.3121795654296875,0.3214661777019501,0.1643383502960205,0.5340657830238342,73.23568725585938,-56.10005187988281,225.41354370117188
1700075912,0.9389190673828124,0.0182647705078125,-0.3014984130859375,0.4386388659477234,0.2283743172883987,0.5609791874885559,73.60905456542969,-56.294952392578125,226.1925201416016
1700075912,0.8984832763671875,0.0341033935546875,-0.3423614501953125,0.5671358704566956,0.255944162607193,0.585418701171875,74.22718811035156,-56.76658630371094,226.4449920654297
1700075912,0.8873291015625,0.06024169921875,-0.367919921875,0.6262327432632446,0.2694506347179413,0.5922931432723999,75.27096557617188,-57.07368469238281,225.8720092773437
1700075912,0.90386962890625,0.0605010986328125,-0.3584136962890625,0.6587616801261902,0.306231826543808,0.6055216193199158,75.70925903320312,-58.20170593261719,226.5701904296875
1700075912,0.9100799560546876,0.02215576171875,-0.3896942138671875,0.7052260637283325,0.3342927694320678,0.642867922782898,76.26799011230469,-58.716339111328125,225.81040954589844
1700075912,0.917724609375,-0.017730712890625,-0.4155426025390625,0.7599809765815735,0.3664027452468872,0.7019900679588318,76.92070007324219,-59.69009399414063,225.46047973632807
1700075912,0.92376708984375,-0.03497314453125,-0.3597259521484375,0.6787760853767395,0.4046327173709869,0.8204320669174194,77.52520751953125,-60.54342651367188,225.72593688964844
1700075912,0.904693603515625,0.012420654296875,-0.3379974365234375,0.513154923915863,0.4704671204090118,0.9254276752471924,78.04837036132812,-61.39756774902344,226.0796661376953
1700075912,0.904876708984375,0.0348968505859375,-0.3872222900390625,0.5415660738945007,0.5298036932945251,0.9828529357910156,78.50949096679688,-62.67808532714844,225.9838256835937
1700075912,0.93048095703125,-0.0088348388671875,-0.4536285400390625,0.7589540481567383,0.5588275790214539,1.0276163816452026,78.86149597167969,-63.76148986816406,226.3168182373047
1700075912,0.973968505859375,-0.0206298828125,-0.4838409423828125,1.0386035442352295,0.5835553407669067,1.0723843574523926,79.3360595703125,-64.835205078125,225.997299194336
1700075912,1.0076141357421875,0.035400390625,-0.4604644775390625,1.2465481758117676,0.6431323885917664,1.0987331867218018,80.21487426757812,-65.37892150878906,226.12745666503903
1700075912,1.019989013671875,0.0927734375,-0.4016571044921875,1.5020984411239624,0.6854625344276428,1.1447113752365112,80.39155578613281,-66.44154357910156,226.0053253173828
1700075912,1.053955078125,0.1065521240234375,-0.295867919921875,1.6009517908096311,0.6740702986717224,1.300170660018921,80.91888427734375,-67.41790771484375,226.09689331054688
1700075912,1.158966064453125,0.16937255859375,-0.20159912109375,1.3613579273223877,0.7557846307754517,1.452273964881897,81.14540100097656,-68.02842712402344,226.0508728027344
1700075912,1.1769561767578125,0.1871185302734375,-0.229400634765625,1.2050249576568604,0.8990717530250549,1.577641487121582,81.921630859375,-68.99679565429688,226.7607879638672
1700075912,1.1322784423828125,0.1296539306640625,-0.22222900390625,1.1728694438934326,1.010615348815918,1.7642837762832642,82.01646423339844,-70.11863708496094,226.776611328125
1700075912,1.1338958740234375,0.111663818359375,-0.207977294921875,1.2392569780349731,1.1113795042037964,1.924628973007202,82.46054077148438,-71.44197082519531,226.85308837890625
1700075912,1.215606689453125,0.1123046875,-0.2158355712890625,1.3957736492156982,1.2031503915786743,2.031001091003418,82.85470581054688,-72.40650939941406,226.63487243652344
1700075912,1.331451416015625,0.149688720703125,-0.207916259765625,1.5621846914291382,1.2107094526290894,2.149752378463745,82.73040771484375,-73.34449768066406,227.0638885498047
1700075912,1.4930267333984375,0.21484375,-0.20770263671875,1.7021740674972534,1.2037451267242432,2.241888999938965,82.93919372558594,-73.65888977050781,227.23696899414065
1700075912,1.6762847900390625,0.1936798095703125,-0.2571563720703125,1.878830552101136,1.225580811500549,2.2835726737976074,83.31494140625,-74.53848266601562,227.36782836914065
1700075912,1.794464111328125,0.115692138671875,-0.238677978515625,2.121632575988769,1.260991096496582,2.275276660919189,83.444091796875,-75.07334899902344,227.6219482421875
1700075912,1.8959503173828125,0.0347900390625,-0.1290435791015625,2.402085542678833,1.2793687582015991,2.2261228561401367,84.09379577636719,-75.83250427246094,227.82823181152344
1700075912,2.008895874023437,-0.06005859375,-0.0493011474609375,2.7532920837402344,1.3757847547531128,2.057955503463745,84.14607238769531,-75.92961120605469,227.86656188964844
1700075912,2.1223907470703125,-0.2314300537109375,-0.02978515625,3.3491311073303223,1.4187370538711548,1.725078821182251,83.92961120605469,-76.38847351074219,228.0770874023437
1700075912,2.179168701171875,-0.4275360107421875,0.02508544921875,3.7446985244750977,1.2880761623382568,1.5860387086868286,83.76701354980469,-76.93199157714844,228.40167236328125
1700075912,1.9355010986328125,-0.33209228515625,-0.0878143310546875,3.563131332397461,1.2920299768447876,1.7939015626907349,83.90089416503906,-77.00949096679688,228.3738250732422
1700075912,1.3575592041015625,0.0207672119140625,-0.5480804443359375,3.578168630599976,1.2437680959701538,1.7765934467315674,83.97248840332031,-77.39100646972656,228.04229736328125
1700075912,0.9228973388671876,0.2042999267578125,-0.8892669677734375,3.506665229797364,1.1308330297470093,1.6603235006332395,84.19645690917969,-77.43026733398438,228.7808837890625
1700075912,0.6677398681640625,0.437103271484375,-1.214569091796875,2.7975127696990967,1.2220593690872192,1.514140009880066,83.76240539550781,-77.86166381835938,228.86265563964844
1700075912,0.5688629150390625,0.6742706298828125,-1.44317626953125,2.229387760162353,1.36935555934906,1.205106258392334,83.56086730957031,-77.87156677246094,228.34332275390625
1700075912,0.68756103515625,0.761962890625,-0.9962615966796876,2.195202112197876,1.4846632480621338,0.588850200176239,83.19189453125,-77.54740905761719,228.19775390625
1700075912,0.7419281005859375,0.719573974609375,-0.55511474609375,2.469186544418335,1.5169637203216553,-0.1512233465909958,82.73838806152344,-77.51359558105469,228.3885192871093
1700075912,0.6556854248046875,0.4610748291015625,-0.5572662353515625,2.497299194335937,1.478792667388916,-0.863364040851593,82.61932373046875,-77.45013427734375,228.027572631836
1700075912,0.5208892822265625,0.071014404296875,-0.6141510009765625,2.4719901084899902,1.4833924770355225,-1.563381552696228,81.548828125,-77.41644287109375,227.7431182861328
1700075912,0.37774658203125,-0.3018646240234375,-0.41754150390625,2.438267946243286,1.6299991607666016,-2.076984167098999,79.60501098632812,-76.15484619140625,226.2754821777344
1700075912,0.1933746337890625,-0.5261383056640625,-0.2403411865234375,2.348947286605835,1.7162038087844849,-2.360328435897827,79.79325866699219,-76.45718383789062,226.43048095703125
1700075912,0.082244873046875,-0.6173858642578125,-0.1607818603515625,2.307197332382202,1.6526615619659424,-2.49476957321167,80.2945556640625,-76.9415283203125,227.5103912353516
1700075912,0.163909912109375,-0.654022216796875,-0.012298583984375,2.237387180328369,1.609493613243103,-2.619181632995605,79.64971923828125,-76.69290161132812,227.4114227294922
1700075912,0.3350067138671875,-0.6001739501953125,0.1294403076171875,1.9914405345916748,1.5745383501052856,-2.882673978805542,79.24246215820312,-76.21705627441406,226.9434356689453
1700075912,0.49029541015625,-0.341949462890625,0.158599853515625,1.7226593494415283,1.5076357126235962,-3.0808699131011963,78.92695617675781,-75.84111022949219,226.7690887451172
1700075912,0.5578460693359375,-0.00677490234375,0.160186767578125,1.496741533279419,1.3600467443466189,-3.229606866836548,78.56559753417969,-75.68807983398438,226.6282958984375
1700075912,0.62158203125,0.3144989013671875,0.2289886474609375,1.3527233600616455,1.159530520439148,-3.4677038192749023,78.00640869140625,-75.97418212890625,226.21066284179688
1700075912,0.7265472412109375,0.5078277587890625,0.2668304443359375,1.4484336376190186,1.013903021812439,-3.8904566764831534,77.57682800292969,-76.42059326171875,225.85411071777344
1700075912,0.824005126953125,0.43145751953125,0.2874755859375,1.670401692390442,0.8982616066932678,-4.259047508239746,76.86302185058594,-76.58599853515625,225.7792816162109
1700075912,0.818572998046875,0.2713470458984375,0.3080902099609375,1.6431429386138916,0.7927085161209106,-4.457180023193359,76.84957885742188,-76.47845458984375,225.3226776123047
1700075912,0.7376708984375,0.191009521484375,0.2440948486328125,1.4312796592712402,0.7499504089355469,-4.534992694854736,77.1732177734375,-77.07427978515625,225.67320251464844
1700075912,0.660064697265625,0.137298583984375,0.1752777099609375,1.1771140098571775,0.7043334245681763,-4.545359611511231,77.39401245117188,-77.14491271972656,226.09922790527344
1700075912,0.6354827880859375,0.1219329833984375,0.166046142578125,1.0368610620498655,0.6002647876739502,-4.532236576080322,77.20494079589844,-77.48121643066406,226.0841064453125
1700075912,0.68487548828125,0.1844635009765625,0.19342041015625,1.0020511150360107,0.3871141672134399,-4.501091957092285,76.90164184570312,-76.85041809082031,226.20545959472656
1700075912,0.7805633544921875,0.3162841796875,0.29034423828125,1.0090930461883545,0.1388660073280334,-4.441866874694824,76.51982116699219,-76.20585632324219,225.48611450195312
1700075912,0.8849029541015625,0.4998779296875,0.4208526611328125,1.0173767805099487,-0.083549752831459,-4.3205156326293945,76.57533264160156,-76.2738037109375,225.6012420654297
1700075912,0.970062255859375,0.6933441162109375,0.4678497314453125,0.9946741461753844,-0.2410019636154174,-4.14638090133667,76.45973205566406,-76.12153625488281,225.7568359375
1700075912,1.03936767578125,0.872802734375,0.3818511962890625,0.918280303478241,-0.3900716006755829,-3.94411039352417,76.36317443847656,-75.92929077148438,225.5940399169922
1700075912,1.0833587646484375,0.999725341796875,0.243011474609375,0.91297447681427,-0.5778260827064514,-3.796428442001343,76.49720764160156,-75.84031677246094,225.38706970214844
1700075912,1.1326751708984375,1.0435791015625,0.202911376953125,1.015104055404663,-0.7592352628707886,-3.743643522262573,76.17442321777344,-75.36820983886719,224.9929962158203
1700075912,1.1693878173828125,1.05670166015625,0.1938934326171875,1.1391807794570925,-0.7265236377716064,-3.764008760452272,76.07475280761719,-75.51625061035156,225.39854431152344
1700075912,1.1433258056640625,1.06805419921875,0.025054931640625,1.180242657661438,-0.6410683989524841,-3.783246994018554,76.2259521484375,-74.96833801269531,224.95623779296875
1700075912,1.0514984130859375,1.099456787109375,-0.1406097412109375,1.0959640741348269,-0.6236912608146667,-3.646858930587769,76.15303039550781,-74.91868591308594,225.3284912109375
1700075912,0.9835968017578124,1.1702880859375,-0.215606689453125,0.9996382594108582,-0.6713741421699524,-3.400639057159424,76.0882568359375,-74.8626708984375,224.95399475097656
1700075912,0.935028076171875,1.196929931640625,-0.2238922119140625,1.01325261592865,-0.7376316785812378,-3.1022841930389404,75.47688293457031,-74.27815246582031,225.09957885742188
1700075912,0.8731536865234375,1.176513671875,-0.1531219482421875,1.1695266962051392,-0.7358964085578918,-2.7841145992279053,75.5350341796875,-74.20942687988281,224.9562225341797
1700075912,0.8303375244140625,1.127227783203125,-0.0611724853515625,1.4275680780410769,-0.6803489923477173,-2.511438608169556,75.32321166992188,-73.94876098632812,225.2440948486328
1700075912,0.8564605712890625,1.04095458984375,-0.021820068359375,1.6597776412963867,-0.6545376181602478,-2.2939164638519287,75.31224060058594,-73.67080688476562,224.7452392578125
1700075912,0.916290283203125,0.90863037109375,-0.0484619140625,1.7599806785583496,-0.7055677771568298,-2.11301589012146,75.2943115234375,-73.11528015136719,224.4453582763672
1700075912,0.977783203125,0.7742767333984375,-0.0975189208984375,1.6881769895553589,-0.7795213460922241,-1.8794080018997192,74.8031005859375,-72.86334228515625,223.9979553222656
1700075912,0.9583740234375,0.68267822265625,-0.156097412109375,1.5099138021469116,-0.8266814351081848,-1.5732743740081787,74.48321533203125,-72.05514526367188,224.40264892578125
1700075912,0.8924560546875,0.60980224609375,-0.1800994873046875,1.2934043407440186,-0.8212608098983765,-1.2653048038482666,74.23602294921875,-71.26763916015625,223.8715209960937
1700075912,0.848602294921875,0.5292205810546875,-0.19769287109375,1.079905986785889,-0.7580147385597229,-1.046959400177002,73.70854187011719,-70.67205810546875,224.0826568603516
1700075912,0.817169189453125,0.4243316650390625,-0.2523040771484375,0.8893676996231079,-0.6682305335998535,-0.9021599292755128,73.04350280761719,-70.64201354980469,224.51614379882807
1700075912,0.7753143310546875,0.322296142578125,-0.2919158935546875,0.706817090511322,-0.5900550484657288,-0.7523701786994934,72.81295776367188,-69.83953857421875,224.0552978515625
1700075912,0.7342376708984375,0.2558441162109375,-0.25909423828125,0.5296196341514587,-0.52391517162323,-0.5957092046737671,72.48030090332031,-69.18711853027344,223.9279022216797
1700075912,0.7306976318359375,0.1752777099609375,-0.1916961669921875,0.3147843182086944,-0.4628411531448364,-0.4504640996456146,71.74632263183594,-68.84535217285156,223.6210784912109
1700075912,0.7797088623046875,0.0621337890625,-0.1326446533203125,-0.0500128343701362,-0.4085193276405334,-0.2499770820140838,71.47412109375,-68.28761291503906,223.4280700683593
1700075912,0.837890625,-0.0100860595703125,-0.1378631591796875,-0.555667519569397,-0.3329119086265564,-0.0147041110321879,70.92236328125,-67.32598876953125,223.1755523681641
1700075912,0.8615570068359375,-0.04888916015625,-0.2319488525390625,-1.1163060665130615,-0.187350183725357,0.2987363636493683,70.55909729003906,-66.62948608398438,223.2743682861328
1700075912,0.8137359619140625,-0.0365142822265625,-0.3880157470703125,-1.572503924369812,-0.0665324181318283,0.6437163949012756,69.90342712402344,-65.90365600585938,223.1991577148437
1700075913,0.7099761962890625,-0.0124359130859375,-0.5127105712890625,-1.8776726722717283,0.264538437128067,0.9529213905334472,69.47958374023438,-65.26611328125,222.8653259277344
1700075913,0.63519287109375,0.0382232666015625,-0.79193115234375,-2.006187677383423,0.5588449239730835,1.2639999389648438,68.67601013183594,-64.73663330078125,223.3456268310547
1700075913,0.3861541748046875,0.2894134521484375,-0.99053955078125,-2.1481692790985107,0.7619727253913879,2.002958297729492,67.42628479003906,-64.25347900390625,222.9845428466797
1700075913,0.3658294677734375,0.7512054443359375,-1.0771942138671875,-1.8898054361343384,2.842484951019287,1.960878610610962,66.73350524902344,-63.40452575683594,223.12945556640625
1700075913,0.248046875,0.694549560546875,-2.79803466796875,-0.6930738091468811,4.214354038238525,1.7273504734039309,66.18898010253906,-62.65058898925781,223.0484161376953
1700075913,0.0489654541015625,1.35626220703125,-3.60687255859375,-0.9546814560890198,-2.017047643661499,2.3567910194396973,65.33590698242188,-62.14772033691406,223.2634429931641
1700075913,3.621337890625,0.8983154296875,1.7752838134765625,0.3159331977367401,-0.517646849155426,0.2609599530696869,64.78189086914062,-61.38522338867188,222.6123504638672
1700075913,3.58331298828125,-1.5109710693359375,0.28411865234375,2.376915216445923,1.6349420547485352,-0.5937190055847168,63.6005859375,-60.8533935546875,222.79283142089844
1700075913,1.554595947265625,-1.5574493408203125,0.7864837646484375,2.006326198577881,1.5822734832763672,-0.374589592218399,62.677032470703125,-60.311309814453125,223.07257080078125
1700075913,0.6745758056640625,-0.878143310546875,0.35125732421875,0.9533339142799376,0.75823575258255,0.3437997102737427,61.93016052246094,-59.78955078125,223.1438140869141
1700075913,0.4290924072265625,-0.5507659912109375,-0.006561279296875,0.1557874679565429,0.3464034795761108,1.261226773262024,60.93339538574219,-59.122100830078125,223.5440673828125
1700075913,0.6955413818359375,-0.43548583984375,0.231964111328125,-0.7648731470108032,0.6606628894805908,1.7506142854690552,60.499053955078125,-58.847747802734375,223.00669860839844
1700075913,1.146209716796875,-0.189727783203125,0.32012939453125,-1.5806044340133667,0.8954391479492188,2.080603837966919,60.12498474121094,-58.62081909179688,223.6021270751953
1700075913,1.407135009765625,0.148590087890625,0.2025299072265625,-1.7289364337921145,0.8547886610031128,2.128173828125,59.11358642578125,-58.74864196777344,222.9617919921875
1700075913,1.6369171142578125,0.3912506103515625,0.0290985107421875,-1.410273194313049,0.3358901143074035,1.643859624862671,58.7310791015625,-58.28564453125,223.5110321044922
1700075913,1.7048797607421875,0.562744140625,-0.1126251220703125,-1.474857211112976,0.186022862792015,0.8875812292098999,58.14152526855469,-58.59815979003906,223.2419891357422
1700075913,1.841705322265625,0.3664093017578125,-0.205657958984375,-0.4529847800731659,0.6093522906303406,0.0943504720926284,57.87324523925781,-58.25236511230469,222.5126037597656
1700075913,2.484649658203125,-0.3401641845703125,0.068206787109375,0.8177376985549927,0.9999890327453612,0.0845905169844627,57.726593017578125,-57.99920654296875,223.2955322265625
1700075913,2.6016845703125,-0.3256683349609375,0.0452728271484375,0.5545409917831421,0.7451367378234863,1.2896597385406494,57.22245788574219,-57.48561096191406,223.48974609375
1700075913,1.5726165771484375,0.1781005859375,-0.4158477783203125,0.293867826461792,0.3764950633049011,1.7894303798675537,57.69549560546875,-57.02787780761719,223.53536987304688
1700075913,0.813385009765625,0.0040130615234375,-0.625213623046875,0.1145497485995292,-0.0781829506158828,1.4029223918914795,58.19685363769531,-56.77375793457031,223.1111602783203
1700075913,0.467193603515625,-0.0350341796875,-0.636199951171875,-0.1737725883722305,-0.188768059015274,0.8960186839103699,58.24046325683594,-56.34298706054688,223.35614013671875
1700075913,0.388641357421875,0.3255462646484375,-0.479095458984375,0.0293541606515645,0.02855627797544,0.617323637008667,58.60203552246094,-56.51210021972656,223.4034576416016
1700075913,0.5993194580078125,0.6144866943359375,-0.1734619140625,0.3541964292526245,0.1024483442306518,0.3801313638687134,59.12965393066406,-56.04618835449219,223.28024291992188
1700075913,0.92633056640625,0.5173797607421875,-0.2087249755859375,0.499710202217102,-0.0214237999171018,0.1913723647594452,59.18211364746094,-56.65596008300781,223.11968994140625
1700075913,1.1454620361328125,0.417022705078125,-0.379364013671875,0.4637615382671356,-0.1244508475065231,0.0553458146750927,60.2122802734375,-56.24673461914063,223.4339599609375
1700075913,1.2140350341796875,0.2341156005859375,-0.4032135009765625,0.3043503165245056,-0.0966208130121231,-0.0035627768374979,60.26371765136719,-56.86354064941406,222.7140350341797
1700075913,1.1275634765625,-0.0011138916015625,-0.3474578857421875,0.2120478153228759,-0.0413298644125461,0.1384478956460952,61.03704833984375,-56.92463684082031,222.8468475341797
1700075913,0.9586944580078124,-0.082000732421875,-0.3313140869140625,0.1724090576171875,-0.084078125655651,0.3221181333065033,61.56524658203125,-57.3292236328125,223.33956909179688
1700075913,0.9004669189453125,-0.0467071533203125,-0.372528076171875,0.1078375205397605,-0.1411946713924408,0.3804682493209839,62.48454284667969,-56.971588134765625,222.8258514404297
1700075913,0.9185028076171876,0.0684051513671875,-0.378875732421875,0.0470298267900943,-0.1353610157966613,0.3293496668338775,62.58537292480469,-56.93644714355469,223.010498046875
1700075913,0.9017181396484376,0.1707916259765625,-0.3119659423828125,0.0882965698838234,-0.0655065700411796,0.2395156472921371,63.43853759765625,-56.774169921875,222.7491149902344
1700075913,0.88836669921875,0.182403564453125,-0.23162841796875,0.1999477297067642,0.0081218425184488,0.2048692554235458,64.20684814453125,-57.34016418457031,222.610595703125
1700075913,0.8848876953125,0.1217803955078125,-0.1994781494140625,0.2546634376049042,0.0715671256184578,0.2752890884876251,64.55487060546875,-57.21089172363281,223.2774810791016
1700075913,0.8915252685546875,0.0349578857421875,-0.2555694580078125,0.2949919700622558,0.1148802489042282,0.4386250376701355,66.07598876953125,-57.3558349609375,222.47732543945312
1700075913,0.894073486328125,-0.0329132080078125,-0.2974853515625,0.2982426285743713,0.1436687558889389,0.6438407897949219,66.49844360351562,-56.916900634765625,223.04698181152344
1700075913,0.89422607421875,-0.069671630859375,-0.294036865234375,0.2859638333320617,0.2142214775085449,0.8470979928970337,67.38394165039062,-56.34327697753906,223.21365356445312
1700075913,0.9007110595703125,-0.09466552734375,-0.258087158203125,0.3021039366722107,0.2930686175823211,1.0155647993087769,67.88746643066406,-56.13703918457031,223.5283660888672
1700075913,0.9062652587890624,-0.13067626953125,-0.2093353271484375,0.2891580462455749,0.3811766505241394,1.1659740209579468,69.25027465820312,-56.24253845214844,224.1459350585937
1700075913,0.8890533447265625,-0.1537933349609375,-0.2629241943359375,0.313695877790451,0.4603449702262878,1.3126018047332764,70.14215087890625,-56.40754699707031,224.00059509277344
1700075913,0.848907470703125,-0.1394500732421875,-0.3208160400390625,0.3691343665122986,0.5134268403053284,1.4534406661987305,70.77214050292969,-56.16188049316406,223.91873168945312
1700075913,0.8172454833984375,-0.043670654296875,-0.3193817138671875,0.3761661648750305,0.5393276810646057,1.4974757432937622,72.00830078125,-55.84944152832031,223.9922332763672
1700075913,0.8411712646484375,0.1494293212890625,-0.308380126953125,0.3803561329841614,0.6093538999557495,1.4961063861846924,72.63307189941406,-55.89617919921875,224.64601135253903
1700075913,0.8980560302734375,0.3124237060546875,-0.2632598876953125,0.5114973783493042,0.7135969400405884,1.500470757484436,73.61054992675781,-55.475433349609375,224.96376037597656
1700075913,0.953887939453125,0.353851318359375,-0.2045135498046875,0.7387992143630981,0.7931162714958191,1.5301743745803833,74.24354553222656,-55.27488708496094,225.7916259765625
1700075913,1.008636474609375,0.252044677734375,-0.1878509521484375,0.8948303461074829,0.8724433183670044,1.6211249828338623,74.86808776855469,-54.95262145996094,225.853271484375
1700075913,1.0023040771484375,0.08831787109375,-0.271759033203125,0.9074135422706604,0.9254927039146424,1.741000056266785,75.29981994628906,-54.92286682128906,225.73538208007807
1700075913,0.9590606689453124,0.0188751220703125,-0.39410400390625,0.8082310557365417,0.9197498559951782,1.8949246406555176,75.78260803222656,-54.65348815917969,226.09323120117188
1700075913,0.9244232177734376,0.02166748046875,-0.48382568359375,0.8827798366546631,0.9645642042160034,2.0714921951293945,75.66574096679688,-54.21406555175781,226.8585968017578
1700075913,0.8918914794921875,0.0932159423828125,-0.5168304443359375,1.0539358854293823,0.9795199632644652,2.1713180541992188,76.43515014648438,-54.00392150878906,226.8671875
1700075913,0.9658966064453124,0.2613372802734375,-0.3853607177734375,1.1079213619232178,0.98513525724411,2.217326164245605,76.54768371582031,-53.32485961914063,227.48390197753903
1700075913,1.0621490478515625,0.426971435546875,-0.24542236328125,1.0336763858795166,1.0104265213012695,2.202686071395874,76.39987182617188,-52.97688293457031,227.66734313964844
1700075913,1.1201629638671875,0.4423980712890625,-0.2010498046875,0.9691751599311828,0.9983400106430054,2.225069284439087,76.49258422851562,-52.44606018066406,228.1412811279297
1700075913,1.0337066650390625,0.4117431640625,-0.319183349609375,0.8924300670623779,0.9820928573608398,2.24288272857666,76.46572875976562,-51.64712524414063,228.17437744140625
1700075913,0.872772216796875,0.3783416748046875,-0.4956512451171875,0.8813225626945496,0.972528338432312,2.2480454444885254,75.93202209472656,-51.17652893066406,228.81808471679688
1700075913,0.690826416015625,0.396942138671875,-0.49896240234375,0.9816238880157472,0.9900375604629515,2.163838148117065,75.91726684570312,-50.745880126953125,228.9854431152344
1700075913,0.5335693359375,0.468719482421875,-0.45819091796875,1.1294623613357544,1.0179256200790403,2.066450834274292,75.48004150390625,-50.11688232421875,230.0181579589844
1700075913,0.616455078125,0.5888671875,-0.396148681640625,1.164925217628479,0.9935678839683532,1.997950315475464,75.20748901367188,-49.320648193359375,229.4255828857422
1700075913,0.8557891845703125,0.6222991943359375,-0.31829833984375,1.1302125453948977,0.9688441753387452,2.0006556510925293,74.29415893554688,-48.77336120605469,229.7594451904297
1700075913,0.910980224609375,0.6055145263671875,-0.418548583984375,1.0627996921539309,0.931569755077362,2.0818233489990234,73.59452819824219,-48.43482971191406,229.6832733154297
1700075913,0.9867706298828124,0.6014556884765625,-0.515625,1.0474162101745603,0.843267560005188,2.166895627975464,71.594970703125,-47.99774169921875,229.6248474121093
1700075913,1.3695526123046875,0.63494873046875,-0.52166748046875,1.112254023551941,0.7106735706329346,2.276331663131714,69.70181274414062,-47.41386413574219,229.4331817626953
1700075913,1.7461090087890625,0.66033935546875,-0.4283599853515625,1.070709228515625,0.5926726460456848,2.3993964195251465,70.02850341796875,-47.62617492675781,229.4566345214844
1700075913,2.007568359375,0.4801177978515625,-0.31536865234375,0.8435466885566711,0.4682984948158264,2.5938844680786133,69.80003356933594,-48.072265625,229.428939819336
1700075913,2.0089874267578125,0.2108917236328125,-0.386962890625,0.6670427322387695,0.3293102383613586,2.815279483795166,69.15531921386719,-48.12098693847656,229.16131591796875
1700075913,1.9272308349609373,0.11029052734375,-0.562591552734375,0.5702448487281799,0.0663678348064422,2.843177080154419,68.02188110351562,-47.36222839355469,229.92315673828125
1700075913,1.8812713623046875,0.093780517578125,-0.6383514404296875,0.4046657383441925,-0.2350838929414749,2.595625400543213,67.20668029785156,-47.40361022949219,229.8601837158203
1700075913,1.7534637451171875,0.0792388916015625,-0.58697509765625,0.1431153416633606,-0.4123913049697876,2.286977767944336,66.23912048339844,-47.65863037109375,229.0994567871093
1700075913,1.349639892578125,0.174072265625,-0.56549072265625,-0.063588298857212,-0.4503716826438904,2.0586042404174805,65.40492248535156,-48.070556640625,228.76824951171875
1700075913,0.7752685546875,0.2864837646484375,-0.560089111328125,-0.2278968095779419,-0.3550800681114197,1.7156717777252195,64.30079650878906,-48.46000671386719,228.68536376953125
1700075913,0.3370513916015625,0.2465667724609375,-0.550323486328125,-0.3209069073200226,-0.2362586110830307,1.1655707359313965,63.19065856933594,-48.93780517578125,227.8243103027344
1700075913,0.0287628173828125,0.085174560546875,-0.514495849609375,-0.356404185295105,-0.2742400765419006,0.6055628657341003,62.78446960449219,-49.25216674804688,227.9156036376953
1700075913,-0.2764739990234375,-0.0163726806640625,-0.4425048828125,-0.3855324983596802,-0.3665497601032257,0.1512299925088882,62.5975341796875,-49.34138488769531,227.90626525878903
1700075913,-0.4685516357421875,-0.0983734130859375,-0.3821563720703125,-0.1875001192092895,-0.5246238112449646,-0.3476524949073791,62.05613708496094,-48.90303039550781,228.08058166503903
1700075913,-0.4116363525390625,-0.289642333984375,-0.185028076171875,0.1803513914346695,-0.7552538514137268,-1.0487475395202637,61.54962158203125,-48.70440673828125,227.9662933349609
1700075913,-0.1944732666015625,-0.5108184814453125,0.1538848876953125,0.1677290797233581,-0.9699544310569764,-1.7700178623199463,60.54777526855469,-48.41212463378906,227.8871307373047
1700075913,-0.078216552734375,-0.4236297607421875,0.114471435546875,-0.1759662330150604,-1.1244957447052002,-2.215704202651977,59.92347717285156,-48.39506530761719,227.60801696777344
1700075913,-0.0988311767578125,-0.0426483154296875,-0.2871246337890625,-0.1855293810367584,-1.2166826725006104,-2.5786173343658447,59.55915832519531,-48.26458740234375,227.39114379882807
1700075913,0.003204345703125,0.11468505859375,-0.3444366455078125,0.0371455028653144,-1.2582885026931765,-2.98742938041687,59.34117126464844,-48.025299072265625,228.02459716796875
1700075913,0.18438720703125,0.000244140625,-0.126495361328125,0.1929798424243927,-1.1674100160598757,-3.440213680267334,58.943756103515625,-48.18556213378906,227.79934692382807
1700075913,0.29827880859375,-0.19903564453125,-0.05010986328125,-0.0062365904450416,-1.043278455734253,-3.813946962356568,59.044281005859375,-47.69453430175781,228.4672393798828
1700075913,0.386993408203125,-0.2978363037109375,-0.1603546142578125,-0.4103915095329284,-0.9445798397064208,-3.981052875518799,58.63153076171875,-47.421722412109375,227.7341461181641
1700075913,0.45477294921875,-0.286468505859375,-0.23040771484375,-0.8547521829605103,-0.9254127740859984,-4.059930801391602,58.4427490234375,-47.57746887207031,227.9668426513672
1700075913,0.5706939697265625,-0.2784576416015625,-0.144683837890625,-1.321380853652954,-0.9696119427680968,-4.194935321807861,58.57865905761719,-47.18377685546875,227.900131225586
1700075913,0.7587890625,-0.2732391357421875,-0.0583038330078125,-1.7566471099853516,-1.0294337272644043,-4.332868576049805,58.48704528808594,-46.98716735839844,228.45364379882807
1700075913,0.9394989013671876,-0.17529296875,-0.05517578125,-1.841663479804993,-1.1501502990722656,-4.431420803070068,58.03739929199219,-47.04270935058594,227.9481201171875
1700075913,1.04412841796875,-0.0388946533203125,-0.0247039794921875,-1.698322296142578,-1.1841647624969482,-4.336950778961182,57.76777648925781,-47.15234375,228.4048767089844
1700075913,1.07415771484375,0.1585540771484375,-0.1094818115234375,-1.5248922109603882,-1.3172309398651123,-4.096632480621338,57.81187438964844,-47.30674743652344,228.27130126953125
1700075913,1.102935791015625,0.4008026123046875,-0.1690216064453125,-1.5076860189437866,-1.5778417587280271,-3.871379375457764,57.53251647949219,-47.00845336914063,228.20367431640625
1700075913,1.2749786376953125,0.6401214599609375,-0.183807373046875,-1.2786555290222168,-1.8855571746826167,-3.776302099227905,57.36083984375,-47.085052490234375,228.5940399169922
1700075913,1.4659271240234375,0.8544769287109375,-0.13134765625,-0.2852740883827209,-1.8692868947982788,-3.843986988067627,57.14566040039063,-46.7979736328125,228.5972442626953
1700075913,1.51629638671875,1.002105712890625,-0.2791595458984375,0.9151932001113892,-1.7575510740280151,-4.027193069458008,56.67306518554688,-46.53872680664063,228.61358642578125
1700075913,1.52001953125,1.1774444580078125,-0.4239959716796875,1.153407096862793,-1.7515122890472412,-4.164854526519775,56.125274658203125,-46.47557067871094,228.5897827148437
1700075913,1.5589447021484375,1.4191131591796875,-0.4465484619140625,0.7211214303970337,-1.580884575843811,-4.334012508392334,55.70716857910156,-46.28572082519531,229.0782470703125
1700075913,1.60809326171875,1.45111083984375,-0.394287109375,0.6524925827980042,-1.2941069602966309,-4.377457618713379,55.35758972167969,-46.508697509765625,228.95559692382807
1700075913,1.51934814453125,1.1863861083984375,-0.2523040771484375,0.7189011573791504,-1.1098591089248655,-4.1130547523498535,54.776885986328125,-46.18434143066406,229.1597595214844
1700075913,1.344940185546875,1.01129150390625,-0.28814697265625,0.5710325837135315,-1.0858272314071655,-3.694364547729492,54.31242370605469,-46.111846923828125,229.0684814453125
1700075913,1.22662353515625,0.9561309814453124,-0.4097900390625,0.5321435332298279,-1.1752766370773315,-3.182989835739136,53.486236572265625,-45.89122009277344,229.2355499267578
1700075913,1.1403350830078125,0.89764404296875,-0.4044952392578125,0.3996651172637939,-1.2055307626724243,-2.743947505950928,52.947174072265625,-45.6507568359375,229.6697998046875
1700075913,1.0926971435546875,0.81103515625,-0.4087982177734375,0.1484062522649765,-1.1473851203918457,-2.366517305374145,52.3131103515625,-45.528656005859375,229.84130859375
1700075914,1.0756683349609375,0.75311279296875,-0.4074249267578125,-0.0811782106757164,-1.0318523645401,-2.0214860439300537,51.21372985839844,-45.30003356933594,229.9765625
1700075914,1.0379638671875,0.708770751953125,-0.3834686279296875,-0.2028391361236572,-0.9257856011390686,-1.690315842628479,50.2410888671875,-45.23066711425781,230.84036254882807
1700075914,0.9790191650390624,0.662841796875,-0.3761138916015625,-0.2423878759145736,-0.8657845854759216,-1.3592220544815063,49.511962890625,-45.07957458496094,230.5608825683593
1700075914,0.885772705078125,0.615142822265625,-0.3681488037109375,-0.1848263144493103,-0.7746219635009766,-1.055452585220337,48.991790771484375,-45.2705078125,231.0865631103516
1700075914,0.776947021484375,0.574066162109375,-0.3586578369140625,-0.0768138244748115,-0.6192232966423035,-0.7836761474609375,47.93257141113281,-45.23490905761719,231.0906524658203
1700075914,0.6958770751953125,0.5461578369140625,-0.3195037841796875,0.0818453282117843,-0.4276386797428131,-0.5630353689193726,46.841644287109375,-44.68580627441406,232.23614501953125
1700075914,0.6714324951171875,0.5194244384765625,-0.240875244140625,0.2943711876869201,-0.2772547602653503,-0.3779201209545135,45.46603393554688,-44.36607360839844,232.24810791015625
1700075914,0.6979217529296875,0.4867706298828125,-0.130828857421875,0.4234279692173004,-0.1527743637561798,-0.2173810601234436,44.72282409667969,-44.15119934082031,233.2248992919922
1700075914,0.781585693359375,0.3912200927734375,-0.054473876953125,0.3697564899921417,-0.0448806546628475,-0.0397316999733448,43.69963073730469,-43.78765869140625,233.3328552246093
1700075914,0.861328125,0.2419281005859375,-0.072265625,0.1144570708274841,0.0684482976794242,0.1608727723360061,42.11933898925781,-43.77534484863281,234.42852783203125
1700075914,0.850830078125,0.1188812255859375,-0.2072601318359375,-0.3083674311637878,0.1607753038406372,0.3995798826217651,41.35688781738281,-43.77777099609375,234.297119140625
1700075914,0.7675018310546875,0.0561370849609375,-0.3484649658203125,-0.8194855451583862,0.2049102634191513,0.7050268650054932,39.847198486328125,-43.742218017578125,235.743896484375
1700075914,0.6811370849609375,0.0293426513671875,-0.3981170654296875,-1.2216784954071045,0.2098389863967895,1.0353443622589111,38.46343994140625,-43.47824096679688,235.5341033935547
1700075914,0.619232177734375,-0.0095062255859375,-0.3497314453125,-1.4896445274353027,0.4869763255119324,1.2625024318695068,37.16542053222656,-43.453643798828125,236.975830078125
1700075914,0.5962371826171875,-0.0175628662109375,-0.4981231689453125,-1.6814520359039309,0.7813631892204285,1.525192379951477,36.06410217285156,-43.120025634765625,238.0101623535156
1700075914,0.4770660400390625,0.221435546875,-0.68035888671875,-1.5182710886001587,0.9088109135627748,1.7207711935043335,35.04164123535156,-43.100128173828125,238.93214416503903
1700075914,0.6982879638671875,0.4844512939453125,-0.7562713623046875,-0.080262616276741,3.541400909423828,1.785754680633545,34.04541015625,-42.89593505859375,239.57061767578125
1700075914,0.228118896484375,0.84051513671875,-2.881134033203125,1.5431302785873413,2.50103759765625,2.799578905105591,32.85395812988281,-43.16206359863281,240.8017120361328
1700075914,0.39398193359375,2.2907257080078125,-2.3153533935546875,-0.1988979130983352,-2.304404020309448,3.022915840148926,31.388916015625,-42.50938415527344,241.612548828125
1700075914,4.005294799804688,1.138153076171875,1.1437835693359375,0.4227568507194519,0.0147387320175766,0.0451712049543857,30.587661743164062,-42.22633361816406,242.78160095214844
1700075914,3.36700439453125,-1.8729400634765625,-0.0450897216796875,1.5951578617095947,2.298525810241699,-0.9404397010803224,29.532485961914062,-42.06982421875,243.63429260253903
1700075914,1.492279052734375,-1.70782470703125,1.190093994140625,0.7122693657875061,2.374904155731201,-0.6667758822441101,28.407943725585938,-42.49919128417969,243.81057739257807
1700075914,0.8127899169921875,-0.6640777587890625,0.170623779296875,-0.5755322575569153,1.4423518180847168,0.3265392482280731,27.39208984375,-42.73210144042969,244.467025756836
1700075914,0.437957763671875,-0.159454345703125,-0.4933013916015625,-0.5007296800613403,0.463625967502594,1.0467925071716309,26.714523315429688,-43.018157958984375,244.8292236328125
1700075914,0.6741485595703125,-0.4965057373046875,-0.222015380859375,0.0674844980239868,0.4821543991565704,1.162750482559204,26.1170654296875,-42.388519287109375,245.6683349609375
1700075914,1.279693603515625,-0.75897216796875,0.0671539306640625,-0.2374692857265472,0.8106808662414551,1.5289756059646606,25.492507934570312,-41.44134521484375,246.4469451904297
1700075914,1.46856689453125,-0.269134521484375,0.044891357421875,-0.9170339703559875,0.8895567655563354,1.8233917951583865,25.80877685546875,-41.377960205078125,246.29977416992188
1700075914,1.4642333984375,0.1287689208984375,-0.072418212890625,-1.1068718433380127,0.7851909399032593,1.6113802194595337,25.94921875,-40.3621826171875,246.1477966308593
1700075914,1.35369873046875,0.2095947265625,-0.23602294921875,-0.6446471810340881,0.3131121098995209,0.8753344416618347,26.5489501953125,-39.22486877441406,246.635986328125
1700075914,1.2479705810546875,0.2233734130859375,-0.2158050537109375,-0.3686296939849853,0.0675939545035362,0.527211606502533,27.017837524414062,-37.94488525390625,246.91653442382807
1700075914,1.573944091796875,0.3660736083984375,-0.0558013916015625,-0.531983494758606,0.1475638896226883,0.5183537006378174,27.771560668945312,-36.32809448242188,246.6291656494141
1700075914,2.27288818359375,0.31365966796875,0.1475830078125,-0.4136810600757599,0.6694249510765076,0.5887809991836548,29.383529663085938,-34.57818603515625,246.50050354003903
1700075914,2.39337158203125,0.2146453857421875,0.00555419921875,-0.1834079027175903,0.6508073210716248,0.8117615580558777,30.752960205078125,-32.75758361816406,248.1206817626953
1700075914,1.5925750732421875,0.3431396484375,-0.231292724609375,-0.1452783644199371,0.1645013242959976,0.7604403495788574,32.057861328125,-30.389419555664062,248.1797790527344
1700075914,0.9657745361328124,0.3369903564453125,-0.473114013671875,-0.2755689918994903,-0.1943942457437515,0.4639833867549896,34.096954345703125,-28.46273803710937,249.1121368408203
1700075914,0.718536376953125,0.30712890625,-0.500091552734375,-0.1511567682027816,-0.1581994891166687,0.2057978957891464,36.54701232910156,-26.035919189453125,249.7840118408203
1700075914,0.5203704833984375,0.2845306396484375,-0.314056396484375,0.2809696197509765,0.0346093773841857,0.1252591162919998,38.68125915527344,-23.547821044921875,251.0373077392578
1700075914,0.52947998046875,0.202056884765625,-0.208404541015625,0.5703476071357727,0.0396328978240489,0.1173380762338638,41.58901977539063,-21.800308227539062,251.8458251953125
1700075914,0.825897216796875,0.161712646484375,-0.249603271484375,0.6213844418525696,-0.0428313538432121,0.146568939089775,44.65924072265625,-19.404373168945312,252.0614776611328
1700075914,1.0438232421875,0.1467132568359375,-0.3305816650390625,0.5510812401771545,-0.0538171604275703,0.1282820701599121,47.80596923828125,-17.263870239257812,252.08551025390625
1700075914,1.1212310791015625,0.0137786865234375,-0.299041748046875,0.3952261507511139,0.0217279326170682,0.138745367527008,51.15293884277344,-15.534713745117188,252.8958740234375
1700075914,1.1047515869140625,-0.1192169189453125,-0.2322235107421875,0.201543241739273,0.095834381878376,0.3043527007102966,55.0084228515625,-13.58740234375,252.7972717285156
1700075914,0.9785614013671876,-0.1359710693359375,-0.2686004638671875,0.0421099029481411,0.0929941236972808,0.5067095160484314,58.9195556640625,-12.107757568359377,254.0212860107422
1700075914,0.899261474609375,-0.1009979248046875,-0.3498077392578125,-0.0624535232782363,0.0444372408092021,0.630312979221344,62.87217712402344,-10.519256591796877,255.093505859375
1700075914,0.88458251953125,-0.04351806640625,-0.3601531982421875,-0.1160669475793838,0.0366890393197536,0.7096008658409119,67.39645385742188,-9.270599365234377,256.3016967773437
1700075914,0.836090087890625,0.074951171875,-0.2976226806640625,-0.1164046376943588,0.07725191116333,0.7412189841270447,72.11305236816406,-7.988601684570312,256.6305847167969
1700075914,0.819610595703125,0.1706085205078125,-0.2174072265625,0.009574064053595,0.1677349358797073,0.7420437335968018,77.09490966796875,-7.41864013671875,258.00372314453125
1700075914,0.850494384765625,0.1681060791015625,-0.1478424072265625,0.2355150580406189,0.287998765707016,0.8103330731391907,82.22682189941406,-6.8853302001953125,258.789306640625
1700075914,0.8787078857421875,0.1004638671875,-0.146881103515625,0.4457066357135772,0.3842991888523102,0.948458969593048,87.60787963867188,-7.1338958740234375,260.7070617675781
1700075914,0.926483154296875,0.0012054443359375,-0.1580352783203125,0.4847389757633209,0.4871760606765747,1.1052526235580444,93.0640869140625,-7.320449829101562,261.57666015625
1700075914,0.9810638427734376,-0.1153106689453125,-0.15771484375,0.3744708001613617,0.5894345045089722,1.292223572731018,98.31736755371094,-8.912353515625,262.9105529785156
1700075914,0.9741973876953124,-0.21600341796875,-0.193634033203125,0.2164585292339325,0.6715900897979736,1.5466654300689695,103.44113159179688,-10.184860229492188,265.15899658203125
1700075914,0.8914337158203125,-0.2183685302734375,-0.317718505859375,0.203075885772705,0.6932719349861145,1.7990456819534302,108.79319763183594,-12.337295532226562,266.68017578125
1700075914,0.801055908203125,-0.1271209716796875,-0.4068603515625,0.3031572103500366,0.6949484348297119,1.9460769891738887,113.2228546142578,-14.444198608398438,268.34210205078125
1700075914,0.758819580078125,0.1154632568359375,-0.3766937255859375,0.3125485777854919,0.7366389036178589,1.9027193784713743,117.84748840332033,-17.169876098632812,269.7846069335937
1700075914,0.8080902099609375,0.4191436767578125,-0.2642364501953125,0.4002560675144195,0.8917613625526428,1.7666654586791992,121.6942138671875,-19.43989562988281,270.8072814941406
1700075914,0.9119110107421876,0.5504150390625,-0.1465606689453125,0.7755221128463745,0.9898996353149414,1.7097872495651243,125.31796264648438,-22.15464782714844,272.0481872558594
1700075914,1.0299530029296875,0.411712646484375,-0.0832366943359375,1.040460228919983,1.057767391204834,1.814653992652893,127.68008422851562,-24.15464782714844,273.2869873046875
1700075914,1.0801544189453125,0.1730804443359375,-0.2719879150390625,1.0428317785263062,1.1011215448379517,1.9875019788742063,130.05751037597656,-25.823471069335938,273.2616577148437
1700075914,1.066192626953125,0.0527496337890625,-0.447540283203125,0.9539650678634644,1.0845941305160522,2.22770094871521,132.157470703125,-26.688751220703125,273.04473876953125
1700075914,1.0281829833984375,0.0491943359375,-0.4736175537109375,0.92685729265213,1.0952582359313965,2.465619802474976,133.38973999023438,-27.02474975585937,273.46405029296875
1700075914,0.9391021728515624,0.1171112060546875,-0.437591552734375,0.90901917219162,1.1488595008850098,2.529597759246826,134.59970092773438,-26.556411743164062,273.0203552246094
1700075914,1.0387115478515625,0.3076171875,-0.304962158203125,0.8889144062995911,1.1936488151550293,2.5223171710968018,135.4237060546875,-25.441574096679688,271.7887878417969
1700075914,1.1662139892578125,0.494110107421875,-0.262420654296875,0.9253273010253906,1.1620469093322754,2.526088237762451,135.53604125976562,-23.865478515625,270.4827575683594
1700075914,1.1758270263671875,0.5327606201171875,-0.2679595947265625,0.8782777786254883,1.1042864322662354,2.5567896366119385,135.7898712158203,-22.223663330078125,270.341064453125
1700075914,1.0130615234375,0.509765625,-0.3537750244140625,0.8074960112571716,1.0256859064102173,2.58756422996521,136.5673370361328,-21.94105529785156,271.00933837890625
1700075914,0.8393402099609375,0.516082763671875,-0.42364501953125,0.7944356203079224,1.0069444179534912,2.558699131011963,137.96249389648438,-22.64930725097656,270.8783874511719
1700075914,0.7531280517578125,0.5145721435546875,-0.3992156982421875,0.8162263631820679,0.973484992980957,2.520538568496704,137.96755981445312,-21.470947265625,269.8107604980469
1700075914,0.70245361328125,0.5420684814453125,-0.404876708984375,0.8781187534332275,0.9218255281448364,2.477169990539551,136.74058532714844,-19.03633117675781,267.7227783203125
1700075914,0.7450408935546875,0.5992279052734375,-0.4796905517578125,0.8520269989967346,0.8600193858146667,2.413077116012573,135.46865844726562,-16.799468994140625,266.4974365234375
1700075914,0.9996185302734376,0.650543212890625,-0.5439453125,0.8994147181510925,0.7186406850814819,2.423138380050659,134.227294921875,-14.63995361328125,265.3809814453125
1700075914,1.2310333251953125,0.6362152099609375,-0.5181732177734375,0.9535219073295592,0.6253549456596375,2.508141040802002,134.12730407714844,-13.589096069335938,264.566162109375
1700075914,1.3883514404296875,0.6254119873046875,-0.471771240234375,0.9037396907806396,0.5552685260772705,2.628542423248291,134.38209533691406,-12.359085083007812,263.7140197753906
1700075914,1.725738525390625,0.583099365234375,-0.421630859375,0.7862905859947205,0.4396250545978546,2.759899139404297,133.67703247070312,-11.072494506835938,262.568359375
1700075914,1.98291015625,0.425048828125,-0.3921051025390625,0.7160537242889404,0.303390771150589,2.9480080604553223,133.3520050048828,-9.959259033203123,262.3485107421875
