timestamp,acc-x,acc-y,acc-z,gyr-x,gyr-y,gyr-z,mag-x,mag-y,mag-z
1700074782,1.0377349853515625,0.179656982421875,-0.8610382080078125,1.0137304067611694,-3.3194966316223145,-0.2486172765493393,118.9955596923828,-28.70936584472656,198.788803100586
1700074782,1.0257720947265625,0.1305084228515625,-0.9018096923828124,0.6713163256645203,-3.19905972480774,-0.1216774359345436,119.08203125,-28.49163818359375,198.0901641845703
1700074782,1.0006256103515625,0.1082611083984375,-0.913055419921875,0.4653636813163757,-3.082897901535034,-0.0113610448315739,118.83169555664062,-27.833816528320312,198.46746826171875
1700074782,0.9791107177734376,0.105255126953125,-0.89166259765625,0.4233794808387756,-2.946631908416748,0.0724821910262107,118.4600067138672,-27.556869506835938,198.2245483398437
1700074782,0.9657135009765624,0.115386962890625,-0.849884033203125,0.5101279616355896,-2.79951810836792,0.1268149316310882,118.1540069580078,-26.913742065429688,197.7645568847656
1700074782,0.9640350341796876,0.1396942138671875,-0.8134002685546875,0.6469558477401733,-2.6476640701293945,0.1546486914157867,118.0898895263672,-26.522476196289062,197.50718688964844
1700074782,0.9700775146484376,0.1683349609375,-0.7929840087890625,0.8033923506736755,-2.4929535388946533,0.1642131805419922,117.94149780273438,-25.875717163085938,197.4753570556641
1700074782,0.9789581298828124,0.180084228515625,-0.7684326171875,0.9354361295700072,-2.339421510696411,0.1437430530786514,117.30169677734376,-25.57333374023437,197.8206024169922
1700074782,0.9857025146484376,0.1623992919921875,-0.7415771484375,1.028929591178894,-2.183103084564209,0.1276093572378158,117.18406677246094,-25.32456970214844,196.63385009765625
1700074782,0.9661712646484376,0.1282501220703125,-0.7097320556640625,1.0840128660202026,-2.014409065246582,0.1227054148912429,116.98489379882812,-24.762115478515625,196.98440551757807
1700074782,0.9378662109375,0.08294677734375,-0.6699371337890625,1.0797014236450195,-1.8429386615753167,0.1020770967006683,116.4731903076172,-24.60946655273437,196.5270538330078
1700074782,0.914459228515625,0.03271484375,-0.6292572021484375,1.0305231809616089,-1.6739901304244995,0.0738678351044654,115.7076416015625,-24.68617248535156,196.41310119628903
1700074782,0.8935394287109375,-0.002349853515625,-0.595428466796875,0.9786733388900756,-1.5080506801605225,0.0528054237365722,115.58213806152344,-24.015884399414062,196.16812133789065
1700074782,0.873992919921875,-0.008026123046875,-0.5544586181640625,0.9606258869171144,-1.3346282243728638,0.0354908816516399,115.08956909179688,-23.610382080078125,196.1654663085937
1700074782,0.8610382080078125,0.0013427734375,-0.5057220458984375,0.9775212407112122,-1.163487672805786,0.0047896951436996,114.61314392089844,-22.800216674804688,195.1696014404297
1700074782,0.855133056640625,0.0175018310546875,-0.4631195068359375,0.9983434677124025,-0.990674078464508,-0.0259242746978998,113.805419921875,-22.208816528320312,195.1187438964844
1700074782,0.8470611572265625,0.036285400390625,-0.4315032958984375,1.009804606437683,-0.8106297254562378,-0.0444526858627796,113.48410034179688,-21.804656982421875,194.9652099609375
1700074782,0.830108642578125,0.049957275390625,-0.3957977294921875,1.0309317111968994,-0.6469817161560059,-0.0525066182017326,112.59384155273438,-21.374755859375,194.40956115722656
1700074782,0.8013458251953125,0.0537109375,-0.356597900390625,1.035423994064331,-0.4799564778804779,-0.0667792931199073,111.56187438964844,-20.84429931640625,193.44384765625
1700074782,0.7821044921875,0.04974365234375,-0.328125,1.019822120666504,-0.3338024616241455,-0.0619163624942302,110.78517150878906,-20.075729370117188,193.1826629638672
1700074782,0.767181396484375,0.0507354736328125,-0.3013153076171875,0.991713523864746,-0.192655473947525,-0.0452790632843971,109.51724243164062,-19.52133178710937,193.0149078369141
1700074782,0.7489471435546875,0.052215576171875,-0.2742462158203125,0.9434887170791626,-0.0615456514060497,-0.0261754114180803,108.4977569580078,-18.76283264160156,193.49948120117188
1700074782,0.7391815185546875,0.04754638671875,-0.2483367919921875,0.8781208992004395,0.0426936671137809,-0.0004980111261829,107.5638427734375,-18.388107299804688,192.2679443359375
1700074782,0.7429656982421875,0.04974365234375,-0.2174072265625,0.8092190623283386,0.1214489340782165,0.0263607669621706,106.58084106445312,-17.920562744140625,191.92449951171875
1700074782,0.7788543701171875,0.0587921142578125,-0.1850433349609375,0.747549295425415,0.1738903075456619,0.052842441946268,105.33956909179688,-17.46466064453125,191.7037506103516
1700074782,0.8177337646484375,0.0784759521484375,-0.156402587890625,0.733582615852356,0.2215744704008102,0.082571305334568,104.13601684570312,-17.516708374023438,191.34703063964844
1700074782,0.81982421875,0.0955352783203125,-0.128875732421875,0.7434432506561279,0.2658508419990539,0.1098673790693283,102.93505859375,-17.50323486328125,191.67739868164065
1700074782,0.7967376708984375,0.091888427734375,-0.106658935546875,0.7430757284164429,0.3055298328399658,0.1301297694444656,101.38014221191406,-17.24591064453125,192.25376892089844
1700074782,0.779052734375,0.066253662109375,-0.0975189208984375,0.6884902715682983,0.3254435956478119,0.142186164855957,100.934814453125,-16.604095458984375,193.2853240966797
1700074782,0.78033447265625,0.0246429443359375,-0.099365234375,0.551037073135376,0.3371452689170837,0.1603025943040847,99.542236328125,-15.186721801757812,194.3051605224609
1700074782,0.8003692626953125,-0.0278167724609375,-0.1018524169921875,0.3415000736713409,0.3375532627105713,0.1756836771965026,98.97663879394533,-13.975677490234377,196.01580810546875
1700074782,0.8155059814453125,-0.07025146484375,-0.1130523681640625,0.1221930235624313,0.338954895734787,0.1882370114326477,98.4195556640625,-12.959121704101562,197.753173828125
1700074783,0.825927734375,-0.08380126953125,-0.1109771728515625,-0.0380030423402786,0.3387945592403412,0.1708047688007354,98.172607421875,-12.03411865234375,200.04367065429688
1700074783,0.84027099609375,-0.0661468505859375,-0.0759124755859375,-0.0924266055226326,0.3300665915012359,0.1388497650623321,98.75941467285156,-11.410614013671877,202.08279418945312
1700074783,0.872528076171875,-0.0144500732421875,-0.019775390625,-0.0931674912571907,0.3126308619976043,0.1231421679258346,99.474853515625,-10.726837158203123,204.5824432373047
1700074783,0.8979949951171875,0.0471954345703125,-0.0047149658203125,-0.0530331246554851,0.2855332195758819,0.1221871599555015,100.33670043945312,-10.4403076171875,206.5606842041016
1700074783,0.9106903076171876,0.0722503662109375,-0.008087158203125,0.0310370121151208,0.2807006239891052,0.1130874082446098,101.76535034179688,-10.051116943359377,209.21319580078125
1700074783,0.91357421875,0.0511322021484375,0.01263427734375,0.1445904672145843,0.2856514453887939,0.108853243291378,103.07470703125,-9.646835327148438,211.84030151367188
1700074783,0.889404296875,0.03778076171875,0.0071563720703125,0.2348095774650573,0.3199503123760223,0.1320914626121521,104.8022003173828,-9.49298095703125,213.86021423339844
1700074783,0.8430023193359375,0.04638671875,-0.020751953125,0.2787400186061859,0.3701660633087158,0.1274037659168243,106.54531860351562,-9.632080078125,216.0657653808593
1700074783,0.83062744140625,-0.006011962890625,-0.0383148193359375,0.1657665967941284,0.4967668950557709,0.0101261371746659,108.34635925292967,-10.106903076171877,219.1058654785156
1700074783,0.835174560546875,-0.162353515625,-0.153656005859375,-0.2285807132720947,0.6308528184890747,-0.0712113305926323,110.38302612304688,-10.086196899414062,221.908203125
1700074783,0.7757720947265625,-0.30963134765625,-0.320709228515625,-0.8141392469406128,0.7068820595741272,0.0246305111795663,112.35626220703124,-11.007217407226562,224.3267974853516
1700074783,0.669189453125,-0.4012298583984375,-0.3343353271484375,-1.5410501956939695,0.8277722597122192,0.0223319362848997,114.03819274902344,-11.879653930664062,227.0265045166016
1700074783,0.6798858642578125,-0.545013427734375,-0.408111572265625,-2.208048343658448,1.1119424104690552,-0.0640008226037025,116.348876953125,-12.572036743164062,229.20022583007807
1700074783,0.58416748046875,-0.6461181640625,-0.6076507568359375,-2.509619235992432,1.4663032293319702,0.0724305212497711,118.18179321289062,-14.0306396484375,231.1600036621093
1700074783,0.5489501953125,-0.3979339599609375,-0.912689208984375,-3.1135640144348145,3.1850833892822266,-1.16470468044281,120.14747619628906,-15.787094116210938,233.6836853027344
1700074783,0.7625885009765625,-0.9380340576171876,-2.3922271728515625,-0.7714663743972778,1.2542383670806885,-3.054408311843872,122.16085815429688,-17.043197631835938,235.87950134277344
1700074783,1.72357177734375,-1.8301849365234373,-0.3677825927734375,-0.8143094182014465,1.6262166500091553,0.2545364201068878,123.85989379882812,-18.22993469238281,238.0346527099609
1700074783,2.214874267578125,-0.2819366455078125,2.5871124267578125,-0.8811816573143005,1.371674418449402,0.8738886117935181,125.11602783203124,-19.348175048828125,240.72039794921875
1700074783,1.9419097900390625,0.4236297607421875,0.1396331787109375,-0.2514271736145019,1.4058723449707031,-0.8049867749214172,125.92481994628906,-20.51889038085937,243.7612762451172
1700074783,2.0751495361328125,-0.0667877197265625,0.8177337646484375,0.0939142480492591,1.4061144590377808,-0.9034502506256104,126.89434814453124,-21.368133544921875,246.16213989257807
1700074783,1.040313720703125,0.8661346435546875,0.2640228271484375,0.8297818899154663,1.3420270681381226,-0.55821692943573,127.54019165039062,-22.086105346679688,249.56163024902344
1700074783,0.64227294921875,0.8280029296875,0.019927978515625,0.9834033846855164,1.2462289333343506,-0.5793214440345764,128.4200439453125,-22.680419921875,253.6664428710937
1700074783,1.12445068359375,0.3157958984375,-0.025146484375,0.0381889306008815,1.2698711156845093,-0.5383737087249756,128.74978637695312,-23.54766845703125,257.1209716796875
1700074783,1.3299102783203125,0.1791839599609375,-0.473114013671875,-0.5888866782188416,1.277737021446228,-0.3170133829116821,128.9509735107422,-24.01034545898437,260.3536376953125
1700074783,1.4559783935546875,0.040863037109375,-0.4644317626953125,-0.6711714267730713,1.2802484035491943,-0.2758068144321441,128.69964599609375,-24.792388916015625,264.24676513671875
1700074783,1.6189727783203125,-0.0206146240234375,-0.1967010498046875,-0.6486855745315552,1.211534857749939,-0.3477209508419037,128.532958984375,-25.433181762695312,267.2901306152344
1700074783,1.6040802001953125,0.0761871337890625,-0.06317138671875,-0.3872579634189605,1.145360827445984,-0.3146783113479614,127.97052001953124,-25.776885986328125,270.48638916015625
1700074783,1.3844451904296875,-0.04522705078125,-0.0969085693359375,0.0151936002075672,1.0679467916488647,-0.2640196681022644,127.15518188476562,-26.695144653320312,273.2701721191406
1700074783,1.219970703125,-0.234161376953125,-0.1744384765625,0.1786514967679977,0.9404426217079164,-0.2139554321765899,126.73643493652344,-26.97906494140625,275.5585327148437
1700074783,1.0821685791015625,-0.2271728515625,-0.33404541015625,0.2708538770675659,0.842965304851532,-0.0588111169636249,125.8020477294922,-27.1749267578125,277.8963623046875
1700074783,0.8924560546875,-0.11810302734375,-0.5415496826171875,0.3231114745140075,0.7682239413261414,0.1052936688065528,124.91766357421876,-27.64634704589844,279.9658203125
1700074783,0.796112060546875,-0.02069091796875,-0.69342041015625,0.1557395309209823,0.6845588684082031,0.1904120147228241,123.9127960205078,-27.954559326171875,281.71685791015625
1700074783,0.9086151123046876,0.0994873046875,-0.6624908447265625,-0.1578913629055023,0.6076867580413818,0.1318946480751037,123.1062469482422,-28.152084350585938,284.05181884765625
1700074783,1.149810791015625,0.137664794921875,-0.519073486328125,-0.3425506949424743,0.5483448505401611,0.0478878952562809,122.2698211669922,-28.53997802734375,285.76806640625
1700074783,1.3307342529296875,0.034881591796875,-0.3596954345703125,-0.3434321880340576,0.5280774235725403,0.0163427535444498,121.5259246826172,-29.123260498046875,287.486328125
1700074783,1.3504180908203125,-0.0822296142578125,-0.30731201171875,-0.2108901292085647,0.5065385699272156,0.0416427850723266,120.93931579589844,-29.75518798828125,289.05078125
1700074783,1.2499847412109375,-0.0903167724609375,-0.2910614013671875,-0.0974783524870872,0.4481602013111114,0.0264345370233058,120.20957946777344,-29.98350524902344,290.40234375
1700074783,1.16033935546875,-0.092376708984375,-0.241668701171875,-0.0953190624713897,0.3878254890441894,0.0159099902957677,119.20144653320312,-30.12628173828125,291.9427490234375
1700074783,1.0243072509765625,-0.115020751953125,-0.3435211181640625,0.0491041615605354,0.3347178101539612,0.0378400571644306,118.77220153808594,-30.503890991210938,293.2869873046875
1700074783,0.9147491455078124,-0.1792144775390625,-0.3894805908203125,0.1942397803068161,0.2977395355701446,0.0779323503375053,118.48878479003906,-30.898910522460938,295.3798217773437
1700074783,0.8610992431640625,-0.1910552978515625,-0.370758056640625,0.1950027793645858,0.253699392080307,0.1035508960485458,117.6880340576172,-31.56190490722656,295.6883850097656
1700074783,0.8667449951171875,-0.16192626953125,-0.3490142822265625,0.1678531765937805,0.2357416898012161,0.1192049533128738,117.19705200195312,-31.823776245117188,296.8056030273437
1700074783,0.88812255859375,-0.16455078125,-0.342498779296875,0.1069845035672187,0.2268131673336029,0.1440839320421219,117.02377319335938,-32.10020446777344,297.38653564453125
1700074783,0.919525146484375,-0.17559814453125,-0.32861328125,-0.0178357232362031,0.2220668941736221,0.1656606048345565,116.31886291503906,-32.72023010253906,298.5239562988281
1700074783,0.945953369140625,-0.1684417724609375,-0.349884033203125,-0.1218127235770225,0.2361659258604049,0.1827157586812973,116.42848205566406,-33.00978088378906,299.1129150390625
1700074783,0.952362060546875,-0.1696624755859375,-0.3548126220703125,-0.1852992922067642,0.2676484882831573,0.1909150928258896,116.26568603515624,-33.42643737792969,300.461669921875
1700074783,0.9451446533203124,-0.153472900390625,-0.3438873291015625,-0.206588864326477,0.3177973926067352,0.180572971701622,116.17054748535156,-33.979400634765625,300.6727294921875
1700074783,0.9383544921875,-0.1212158203125,-0.3120574951171875,-0.1641332805156707,0.3940010964870453,0.1560974568128585,116.5705108642578,-33.87150573730469,300.963134765625
1700074783,0.92254638671875,-0.083709716796875,-0.2787933349609375,-0.0462244860827922,0.501356840133667,0.1102247759699821,116.31192016601562,-34.43778991699219,301.27752685546875
1700074783,0.91717529296875,-0.05523681640625,-0.2124176025390625,0.0999987721443176,0.6301484107971191,0.0527263283729553,116.4192352294922,-34.47776794433594,302.25762939453125
1700074783,0.9177093505859376,-0.0509796142578125,-0.1428070068359375,0.2551891505718231,0.7788372039794922,-0.0099314600229263,116.36802673339844,-34.811065673828125,302.4705810546875
1700074783,0.907135009765625,-0.075408935546875,-0.0761871337890625,0.303685575723648,0.9212073683738708,-0.0469595193862915,116.46519470214844,-34.89215087890625,303.0650329589844
1700074783,0.887664794921875,-0.092498779296875,-0.1054229736328125,0.3647180497646332,1.0776406526565552,-0.0854405984282493,116.833740234375,-34.93180847167969,303.4516296386719
1700074783,0.8638153076171875,-0.1186981201171875,-0.145355224609375,0.3433043658733368,1.1955922842025757,-0.1059791594743728,116.79830932617188,-35.168792724609375,303.9212341308594
1700074783,0.863128662109375,-0.1042022705078125,-0.1565704345703125,0.2876717150211334,1.3151520490646362,-0.141585886478424,117.1519012451172,-35.37486267089844,304.4627685546875
1700074783,0.874298095703125,-0.094207763671875,-0.19940185546875,0.2593527436256408,1.3813738822937012,-0.1749244034290313,116.79869079589844,-35.220306396484375,305.1362609863281
1700074783,0.8956451416015625,-0.10162353515625,-0.2176361083984375,0.260130375623703,1.489111065864563,-0.1918967366218567,117.12380981445312,-35.20469665527344,305.15606689453125
1700074783,0.87969970703125,-0.0922088623046875,-0.3501739501953125,0.413968950510025,1.6063511371612549,-0.2090152651071548,117.11653137207033,-35.15386962890625,304.98175048828125
1700074783,0.8629913330078125,-0.0920257568359375,-0.32623291015625,0.4294115602970123,1.6549726724624634,-0.2301738113164901,117.12223815917967,-34.845672607421875,304.897216796875
1700074783,0.8436279296875,-0.0613250732421875,-0.336151123046875,0.4817205667495727,1.6909056901931765,-0.2557135224342346,117.1151123046875,-34.701324462890625,305.7875061035156
1700074783,0.8125152587890625,-0.10662841796875,-0.41180419921875,0.6407445669174194,1.7432801723480225,-0.2745010554790497,117.70944213867188,-34.350372314453125,305.05767822265625
1700074783,0.81494140625,-0.1469573974609375,-0.4221343994140625,0.7106764912605286,1.8317663669586184,-0.2956185936927795,117.56118774414062,-34.394561767578125,305.2348022460937
1700074783,0.8985748291015625,-0.077362060546875,-0.4177703857421875,0.667605459690094,1.904507160186768,-0.3364690840244293,117.5615692138672,-34.203399658203125,305.6929016113281
1700074783,0.9850311279296876,-0.0424346923828125,-0.3752593994140625,0.6215319633483887,1.9625380039215088,-0.3645912706851959,117.73797607421876,-33.81837463378906,306.5810546875
1700074783,0.978973388671875,-0.1099090576171875,-0.43212890625,0.6988078951835632,2.026379346847534,-0.3633276224136352,117.52899169921876,-33.75517272949219,305.9693908691406
1700074783,0.90283203125,-0.2156982421875,-0.4955902099609375,0.7507954239845276,2.0863497257232666,-0.3571480214595794,117.5104522705078,-33.47312927246094,306.412109375
1700074783,0.85784912109375,-0.231231689453125,-0.5218048095703125,0.7527515292167664,2.1473910808563232,-0.3445190191268921,118.07656860351562,-33.54632568359375,307.03839111328125
1700074783,0.8774871826171875,-0.1540985107421875,-0.5300750732421875,0.757175862789154,2.2377634048461914,-0.2882038354873657,118.43861389160156,-33.58790588378906,306.45684814453125
1700074783,0.9235382080078124,-0.0801544189453125,-0.5879058837890625,0.7601079940795898,2.3439512252807617,-0.2159653156995773,118.65765380859376,-33.14208984375,306.4128112792969
1700074783,1.028533935546875,-0.03131103515625,-0.5896759033203125,0.6625257730484009,2.4625070095062256,-0.1813029497861862,118.7092742919922,-32.17808532714844,306.2340393066406
1700074783,1.1669158935546875,-0.0128021240234375,-0.6310882568359375,0.6807242035865784,2.586377143859864,-0.1517173498868942,119.2405242919922,-31.09716796875,305.0556640625
1700074783,1.12945556640625,-0.0666656494140625,-0.6071319580078125,0.6760391592979431,2.628411054611206,-0.1273225396871566,120.06031799316406,-30.45372009277344,304.7525939941406
1700074783,0.991485595703125,-0.1328125,-0.55902099609375,0.6062531471252441,2.601181507110596,-0.1541703939437866,121.1044921875,-29.259765625,302.916748046875
1700074783,0.749481201171875,-0.2022857666015625,-0.638397216796875,0.6980810761451721,2.555572509765625,-0.154845505952835,123.5142822265625,-30.52305603027344,301.6092529296875
1700074783,0.5233612060546875,-0.2628326416015625,-0.66400146484375,0.6771047115325928,2.4378912448883057,-0.1548633426427841,124.429443359375,-31.060073852539062,301.1932983398437
1700074783,0.41461181640625,-0.1826629638671875,-0.706451416015625,0.7606954574584961,2.357951402664185,-0.1677490472793579,124.9866180419922,-30.430221557617188,299.70025634765625
1700074783,0.3240203857421875,-0.0876617431640625,-0.8557586669921875,0.9078777432441713,2.287159919738769,-0.1022219732403755,125.26730346679688,-30.466110229492188,299.2998352050781
1700074783,0.4777374267578125,-0.0568084716796875,-0.909393310546875,0.8563506007194519,2.2933051586151123,0.0590329580008983,126.19268798828124,-31.293746948242188,298.41845703125
1700074783,0.7850341796875,0.0377044677734375,-1.017852783203125,0.6604889631271362,2.355200290679932,0.2602598071098327,126.72444152832033,-32.32099914550781,298.2457275390625
1700074783,1.1060028076171875,0.06005859375,-1.05303955078125,0.3467225432395935,2.43284559249878,0.4751084744930267,127.56109619140624,-32.91949462890625,297.9996337890625
1700074783,1.3930206298828125,0.0241546630859375,-1.03619384765625,0.0723136141896247,2.4726486206054688,0.6616207957267761,127.9307098388672,-33.231536865234375,298.1405639648437
1700074783,1.5066375732421875,-0.027069091796875,-0.9619598388671876,-0.0549644492566585,2.4401113986968994,0.7921705842018127,128.5118865966797,-33.4300537109375,297.5401611328125
1700074783,1.544189453125,-0.088287353515625,-0.8529815673828125,-0.1152102127671241,2.343777656555176,0.8507865071296692,128.81515502929688,-33.35255432128906,296.7788391113281
1700074783,1.53204345703125,-0.16583251953125,-0.7978973388671875,-0.1254878789186477,2.195907592773437,0.8684283494949341,128.86947631835938,-33.4237060546875,294.7336730957031
1700074783,1.4287261962890625,-0.2689208984375,-0.7711944580078125,-0.0765088871121406,1.998997449874878,0.8837425708770752,129.3424835205078,-33.52687072753906,294.32647705078125
1700074783,1.2630157470703125,-0.3658447265625,-0.7261962890625,-0.0561365075409412,1.7384390830993652,0.9362078905105592,129.52716064453125,-33.89543151855469,293.7582092285156
1700074783,1.0702362060546875,-0.3966217041015625,-0.5982666015625,-0.0973609089851379,1.455729365348816,0.9349929690361024,129.79058837890625,-33.787139892578125,292.66925048828125
1700074783,0.8397369384765625,-0.3875732421875,-0.536865234375,-0.1004267409443855,1.160138726234436,0.8683513402938843,129.58016967773438,-34.06134033203125,291.7429504394531
1700074783,0.6214447021484375,-0.38348388671875,-0.4996337890625,-0.0479254461824893,0.8226802945137024,0.802611768245697,129.6595001220703,-34.05867004394531,292.3026123046875
1700074783,0.4298553466796875,-0.342987060546875,-0.451873779296875,-0.0809078961610794,0.3509258031845093,0.8240296840667725,129.92884826660156,-34.27503967285156,291.65631103515625
1700074783,0.338836669921875,-0.196990966796875,-0.2936553955078125,-0.0957116112112999,-0.0917951688170433,0.8388440608978271,130.2254638671875,-34.25288391113281,291.8883056640625
1700074783,0.28668212890625,-0.079833984375,-0.1953125,0.0732257440686225,-0.4298491179943084,0.7268128991127014,130.022216796875,-34.08476257324219,291.20465087890625
1700074783,0.1622467041015625,-0.140106201171875,-0.2045135498046875,0.2976780235767364,-0.7542130947113037,0.6094196438789368,130.12770080566406,-34.07395935058594,290.9483642578125
1700074783,0.052825927734375,-0.2110748291015625,-0.165802001953125,0.358233243227005,-1.2212787866592407,0.5596460103988647,130.0859375,-34.01258850097656,289.98260498046875
1700074783,0.0135345458984375,-0.215911865234375,0.0225372314453125,0.1689293682575225,-1.5932468175888062,0.3619456887245178,129.75425720214844,-33.97544860839844,289.7178955078125
1700074783,-0.0778350830078125,-0.31109619140625,0.01239013671875,0.0226728208363056,-2.080625534057617,0.1711499094963073,130.39358520507812,-33.96028137207031,289.2654113769531
1700074783,-0.11944580078125,-0.430633544921875,0.0452117919921875,-0.1440194845199585,-2.618642091751098,0.0690136849880218,130.51937866210938,-33.708465576171875,288.6015319824219
1700074783,0.2473297119140625,-0.405914306640625,0.3404388427734375,-0.5941152572631836,-3.10563588142395,-0.0005470133037306,130.1163787841797,-33.66618347167969,288.93243408203125
1700074783,0.5932464599609375,-0.2387237548828125,0.3775482177734375,-1.2580714225769043,-3.405872106552124,-0.0833106040954589,130.00108337402344,-33.49180603027344,288.7680053710937
1700074783,0.7244873046875,-0.0958404541015625,0.127899169921875,-1.7041146755218506,-3.610476016998291,-0.1376065909862518,129.76498413085938,-33.61143493652344,288.98004150390625
1700074784,0.7283172607421875,-0.0887603759765625,-0.0712432861328125,-1.816810607910156,-3.909357309341431,-0.04753103479743,130.01072692871094,-33.38246154785156,288.36737060546875
1700074784,0.723388671875,-0.0670623779296875,-0.163238525390625,-1.8050775527954104,-4.274064540863037,0.0826661139726638,129.84335327148438,-33.63282775878906,288.0130615234375
1700074784,0.7643585205078125,-0.015380859375,-0.26171875,-1.7748695611953735,-4.61894416809082,0.1606309562921524,129.9539031982422,-33.26124572753906,287.9861145019531
1700074784,0.82275390625,0.0681304931640625,-0.3950042724609375,-1.6371129751205444,-4.888147830963135,0.1105715185403823,129.9701690673828,-33.2271728515625,288.25323486328125
1700074784,0.8814849853515625,0.1564178466796875,-0.4048919677734375,-1.180633306503296,-5.045812129974365,-0.021764151751995,130.0208740234375,-33.31172180175781,288.1231689453125
1700074784,0.908172607421875,0.202056884765625,-0.3678436279296875,-0.3904263377189636,-5.1163249015808105,-0.1056345477700233,129.61874389648438,-33.21763610839844,287.55035400390625
1700074784,0.899322509765625,0.2275543212890625,-0.38543701171875,0.5140955448150635,-5.150086402893066,-0.0805321261286735,129.76329040527344,-33.20439147949219,287.3880920410156
1700074784,0.8975677490234375,0.2607269287109375,-0.44049072265625,1.4757531881332395,-5.1206817626953125,-0.0204038079828023,129.75735473632812,-33.12809753417969,287.0218200683594
1700074784,0.9457855224609376,0.297271728515625,-0.4649505615234375,2.261625528335572,-5.053980350494385,-0.079868197441101,129.86981201171875,-33.4403076171875,285.7249755859375
1700074784,1.090667724609375,0.27947998046875,-0.6457672119140625,2.589015245437622,-5.009121417999268,-0.2234983295202255,130.0942840576172,-33.01472473144531,285.73199462890625
1700074784,1.2086944580078125,0.2622833251953125,-0.967529296875,2.39906907081604,-4.944437026977539,-0.3356344699859619,130.07516479492188,-33.41984558105469,284.8482360839844
1700074784,1.2324676513671875,0.2594757080078125,-1.2235260009765625,1.879860639572144,-4.77472734451294,-0.3533122539520263,130.1456298828125,-33.56123352050781,284.10986328125
1700074784,1.18072509765625,0.2128753662109375,-1.37451171875,1.2107646465301514,-4.544430732727051,-0.261437714099884,130.11325073242188,-33.5184326171875,283.13360595703125
1700074784,1.124053955078125,0.121673583984375,-1.4177093505859375,0.5391916036605835,-4.29895544052124,-0.1363692879676818,130.3171844482422,-33.555450439453125,282.8516845703125
1700074784,1.1609954833984375,0.0020599365234375,-1.393157958984375,0.0415586270391941,-4.079485893249512,0.0461493842303752,130.4676971435547,-33.9510498046875,281.5101318359375
1700074784,1.241424560546875,-0.061981201171875,-1.33404541015625,-0.3280434012413025,-3.839528799057007,0.2992338538169861,130.36705017089844,-34.36415100097656,280.6685791015625
1700074784,1.2769622802734375,-0.039520263671875,-1.2818145751953125,-0.6097856163978577,-3.5330843925476074,0.5229201912879944,129.8907928466797,-33.964569091796875,279.8565979003906
1700074784,1.2201080322265625,0.0104827880859375,-1.234039306640625,-0.7678332924842834,-3.1928646564483643,0.6425904035568237,129.99526977539062,-34.410675048828125,278.3743896484375
1700074784,1.116973876953125,0.0208282470703125,-1.135528564453125,-0.6743896007537842,-2.865731954574585,0.678281307220459,130.0709686279297,-34.724853515625,277.3290405273437
1700074784,1.027557373046875,0.0303802490234375,-1.0012969970703125,-0.3398979008197784,-2.5399811267852783,0.6602985858917236,130.19601440429688,-34.7935791015625,276.753662109375
1700074784,0.96746826171875,0.0830535888671875,-0.8498382568359375,0.0539119690656662,-2.2154715061187744,0.5801880359649658,130.0928192138672,-35.445098876953125,275.2012939453125
1700074784,0.925140380859375,0.1457672119140625,-0.7507781982421875,0.4474124014377594,-1.9188299179077148,0.5172743201255798,130.1344451904297,-35.65238952636719,274.05975341796875
1700074784,0.8805389404296875,0.1961517333984375,-0.6881256103515625,0.8381577730178833,-1.6115528345108032,0.3655694425106048,129.90443420410156,-35.51048278808594,272.93048095703125
1700074784,0.8697967529296875,0.1752166748046875,-0.624908447265625,1.2142283916473389,-1.3145296573638916,0.1615630686283111,129.5613250732422,-36.05168151855469,271.33856201171875
1700074784,0.8461151123046875,0.1183013916015625,-0.552093505859375,1.5310640335083008,-1.0096442699432373,0.0042253714054822,129.73959350585938,-36.19514465332031,270.565673828125
1700074784,0.773101806640625,0.0809173583984375,-0.51458740234375,1.715732216835022,-0.7149873971939087,-0.0966799408197403,129.4005126953125,-36.2984619140625,269.1090393066406
1700074784,0.7205657958984375,0.0523834228515625,-0.4801483154296875,1.7420282363891602,-0.4393448829650879,-0.1418956220149994,129.32528686523438,-36.6435546875,267.70074462890625
1700074784,0.7162017822265625,0.0222320556640625,-0.43426513671875,1.6391873359680176,-0.2059499621391296,-0.1567480713129043,128.71926879882812,-36.73048400878906,266.1789245605469
1700074784,0.772186279296875,-0.00897216796875,-0.365997314453125,1.4790029525756836,-0.0719354450702667,-0.129017636179924,128.6211700439453,-36.85020446777344,264.2182006835937
1700074784,0.8451690673828125,-0.0151824951171875,-0.260528564453125,1.262958288192749,0.0988307073712349,-0.0942820236086845,127.76309204101562,-37.07127380371094,262.5367431640625
1700074784,0.8502349853515625,-0.0289459228515625,-0.185638427734375,0.942124366760254,0.2923932373523712,-0.0330351814627647,127.34368896484376,-37.12754821777344,261.2806396484375
1700074784,0.7665557861328125,-0.02447509765625,-0.2534942626953125,0.5557013154029846,0.470083087682724,0.0304330065846443,126.80168151855467,-37.21725463867188,259.52984619140625
1700074784,0.70355224609375,-0.0196685791015625,-0.296722412109375,0.2111386060714721,0.6556862592697144,0.1242212802171707,126.56436157226562,-37.21286010742188,258.0748291015625
1700074784,0.6503448486328125,-0.027374267578125,-0.287750244140625,-0.1040494367480278,0.8631142377853394,0.178083449602127,125.93630981445312,-36.9259033203125,257.1610717773437
1700074784,0.6670074462890625,-0.078125,-0.3073577880859375,-0.45584636926651,1.0321685075759888,0.1229312494397163,125.18971252441406,-37.07160949707031,255.30918884277344
1700074784,0.7904205322265625,-0.198760986328125,-0.3090972900390625,-0.8168492913246155,1.1398075819015503,-0.0030146983917802,124.98419189453124,-37.28424072265625,254.40890502929688
1700074784,0.9239349365234376,-0.3292694091796875,-0.3119964599609375,-1.297021746635437,1.2712548971176147,-0.0882038921117782,123.967041015625,-37.04646301269531,253.0284576416016
1700074784,1.0459442138671875,-0.418731689453125,-0.4271240234375,-1.8555006980896,1.1509952545166016,-0.3720715641975403,123.1642608642578,-36.73419189453125,251.50064086914065
1700074784,1.0308990478515625,-0.59088134765625,-0.6021728515625,-1.8103127479553225,1.1971538066864014,-0.1611460149288177,122.35350036621094,-36.34794616699219,250.18875122070312
1700074784,1.0215911865234375,-0.4568939208984375,-0.3796539306640625,-1.8244904279708865,2.38275146484375,-0.0886457115411758,120.87199401855467,-36.11273193359375,248.1798095703125
1700074784,0.670318603515625,-0.259674072265625,-1.39202880859375,-0.9367796778678894,2.457435846328736,-1.5588948726654053,119.91160583496094,-35.39080810546875,246.31190490722656
1700074784,0.8060760498046875,-0.948333740234375,-1.98101806640625,0.6961705684661865,1.840008854866028,-1.110285997390747,118.30339050292967,-35.231781005859375,245.092514038086
1700074784,2.20355224609375,-0.523834228515625,2.084869384765625,-0.8222824335098267,1.417019009590149,0.101933553814888,116.56539916992188,-34.512115478515625,244.1189880371093
1700074784,1.858795166015625,0.8020172119140625,1.1533660888671875,-1.2615420818328855,1.6058272123336792,-0.8421136140823364,115.281005859375,-34.51261901855469,242.88038635253903
1700074784,1.947540283203125,0.1152191162109375,0.13922119140625,-0.4794526100158691,1.6361513137817385,-0.869262158870697,113.8571319580078,-34.24073791503906,241.6531219482422
1700074784,1.488311767578125,-0.24090576171875,0.719085693359375,0.0880741998553276,1.5547633171081543,-0.4946563243865967,112.44252014160156,-33.65576171875,240.40084838867188
1700074784,1.03582763671875,0.1603240966796875,0.2545318603515625,0.6046462059020996,1.4021492004394531,-0.5688437223434448,111.06373596191406,-33.72596740722656,240.23573303222656
1700074784,1.17706298828125,-0.068389892578125,0.16156005859375,0.3964442908763885,1.2514492273330688,-0.6438069343566895,110.05070495605467,-33.7056884765625,239.0110626220703
1700074784,1.23541259765625,-0.09417724609375,-0.285308837890625,0.3365018665790558,1.2175620794296265,-0.5779051780700684,109.26774597167967,-33.356781005859375,239.26747131347656
1700074784,1.1667022705078125,-0.0191802978515625,-0.33367919921875,0.200800210237503,1.149222731590271,-0.4300698935985565,108.06460571289062,-33.280670166015625,238.6224822998047
1700074784,1.177947998046875,0.250457763671875,-0.338958740234375,0.0523087456822395,1.0742400884628296,-0.3956895470619201,107.36285400390624,-33.13102722167969,239.6293334960937
1700074784,1.293792724609375,0.4072418212890625,-0.368438720703125,-0.0412222705781459,0.9254860281944276,-0.3992150425910949,107.2650146484375,-32.8387451171875,240.0866241455078
1700074784,1.344390869140625,0.295379638671875,-0.293365478515625,-0.338988184928894,0.7851573824882507,-0.2906643152236938,106.614990234375,-33.15081787109375,240.3183441162109
1700074784,1.2616119384765625,-0.007171630859375,-0.421783447265625,-0.5035723447799683,0.6834068298339844,-0.1265198588371276,106.47389221191406,-32.943634033203125,240.85284423828125
1700074784,1.1612701416015625,-0.296051025390625,-0.486968994140625,-0.5582073330879211,0.6316762566566467,0.0797542184591293,106.47886657714844,-33.30458068847656,242.27325439453125
1700074784,1.115509033203125,-0.319244384765625,-0.4671478271484375,-0.7182191014289856,0.558736264705658,0.2224005758762359,106.830078125,-33.544525146484375,243.39181518554688
1700074784,1.2739105224609375,-0.1812591552734375,-0.389923095703125,-0.8719903230667114,0.5476694703102112,0.24322010576725,107.09440612792967,-34.10798645019531,244.5264129638672
1700074784,1.4168853759765625,0.0424346923828125,-0.442108154296875,-0.6542555689811707,0.5838512182235718,0.148275226354599,107.62600708007812,-34.83601379394531,245.2738342285156
1700074784,1.38555908203125,0.224884033203125,-0.43115234375,-0.2431223690509796,0.6140551567077637,0.013733921572566,107.5382843017578,-35.22235107421875,246.80702209472656
1700074784,1.2003173828125,0.305511474609375,-0.3620758056640625,0.1695093959569931,0.6156682372093201,-0.153092086315155,108.20864868164062,-36.32713317871094,247.70431518554688
1700074784,1.0135498046875,0.2222747802734375,-0.2630615234375,0.4137606918811798,0.5653424859046936,-0.2203792482614517,108.69197082519533,-36.87416076660156,248.6225128173828
1700074784,0.9175872802734376,0.0158538818359375,-0.2082366943359375,0.4411044418811798,0.5039169192314148,-0.1868266016244888,108.84771728515624,-37.169677734375,250.34048461914065
1700074784,0.9025421142578124,-0.1634063720703125,-0.295928955078125,0.4553739130496979,0.4392806887626648,-0.1309713274240493,109.24530029296876,-37.960845947265625,251.66534423828125
1700074784,0.9443359375,-0.2502593994140625,-0.377349853515625,0.5041893720626831,0.3933086693286896,-0.0723192021250724,109.26496887207033,-38.40597534179688,253.2727813720703
1700074784,0.9538726806640624,-0.2218170166015625,-0.4124298095703125,0.4839765131473541,0.3528075814247131,-0.0398973487317562,109.69465637207033,-38.5616455078125,255.59014892578125
1700074784,0.9499664306640624,-0.1441650390625,-0.400848388671875,0.4687514901161194,0.3035303354263305,-0.0526152737438678,109.73159790039062,-38.50161743164063,258.23687744140625
1700074784,0.961639404296875,-0.10858154296875,-0.3244171142578125,0.3853735327720642,0.2612918019294739,-0.0279844962060451,109.72314453125,-38.75221252441406,261.1268310546875
1700074784,0.9586181640625,-0.1073455810546875,-0.3042449951171875,0.2958321869373321,0.2594435513019562,-0.0045662559568881,109.75173950195312,-39.23649597167969,263.9599609375
1700074784,0.958221435546875,-0.1431121826171875,-0.33502197265625,0.1860668063163757,0.2706871628761291,0.0306652337312698,109.56231689453124,-39.53132629394531,266.533203125
1700074784,0.9419708251953124,-0.1750335693359375,-0.3404083251953125,0.0307288840413093,0.2838117480278015,0.0741988644003868,108.93795776367188,-39.73873901367188,269.69903564453125
1700074784,0.915985107421875,-0.1811065673828125,-0.3321380615234375,-0.1242316737771034,0.3186906278133392,0.1086915954947471,108.85594177246094,-40.15242004394531,272.11260986328125
1700074784,0.9025726318359376,-0.1737060546875,-0.321685791015625,-0.1888170540332794,0.3669726848602295,0.1210265532135963,108.7208251953125,-40.4439697265625,274.0746154785156
1700074784,0.9043426513671876,-0.156341552734375,-0.2902374267578125,-0.1732000112533569,0.4411212205886841,0.1216643825173378,107.76058959960938,-40.10679626464844,275.757568359375
1700074784,0.9084320068359376,-0.1219482421875,-0.2527313232421875,-0.0977630466222763,0.5364410877227783,0.1067570745944976,107.32815551757812,-40.853515625,277.7533874511719
1700074784,0.9102630615234376,-0.0828704833984375,-0.2105865478515625,-0.00823316257447,0.6477311253547668,0.0817824825644493,106.90737915039062,-40.54901123046875,279.4990234375
1700074784,0.918548583984375,-0.06817626953125,-0.1788330078125,0.0783382132649421,0.762640655040741,0.0735892653465271,106.02427673339844,-40.26434326171875,280.6766967773437
1700074784,0.909912109375,-0.0783843994140625,-0.1937713623046875,0.1222369596362114,0.8484380841255188,0.0696730837225914,105.38650512695312,-40.15711975097656,281.573486328125
1700074784,0.8788909912109375,-0.105194091796875,-0.254150390625,0.1838867515325546,0.929036021232605,0.05343659222126,104.68231201171876,-40.11549377441406,281.87274169921875
1700074784,0.83935546875,-0.1399078369140625,-0.316070556640625,0.2168042212724685,1.0051538944244385,0.0390019938349723,104.341796875,-39.5223388671875,283.2646789550781
1700074784,0.8138427734375,-0.1290283203125,-0.2941436767578125,0.1574442237615585,1.0918092727661133,0.0076829534955322,103.73789978027344,-39.62260437011719,284.019775390625
1700074784,0.84967041015625,-0.0596160888671875,-0.251373291015625,0.0608865208923816,1.207887053489685,-0.0228062458336353,103.3447723388672,-39.5093994140625,284.5213623046875
1700074784,0.9265289306640624,-0.0329132080078125,-0.228057861328125,0.0696911960840225,1.3451895713806152,-0.0866717770695686,102.61602783203124,-39.66973876953125,285.3724365234375
1700074784,0.973175048828125,-0.0693359375,-0.2252197265625,0.1214239001274108,1.4672552347183228,-0.1283145695924759,102.12600708007812,-40.00679016113281,286.505859375
1700074784,0.936676025390625,-0.056182861328125,-0.25201416015625,0.1226399019360542,1.5532621145248413,-0.1595316082239151,101.99661254882812,-40.12178039550781,287.1097412109375
1700074784,0.8515625,-0.037109375,-0.355438232421875,0.1771588027477264,1.616903305053711,-0.2152995318174362,102.19369506835938,-40.71766662597656,287.99951171875
1700074784,0.762115478515625,-0.0730133056640625,-0.4287872314453125,0.3295174539089203,1.6335524320602417,-0.2530050873756408,102.24748229980467,-41.51666259765625,288.5559387207031
1700074784,0.69244384765625,-0.088623046875,-0.4013824462890625,0.4418354630470276,1.6491068601608276,-0.2810095548629761,101.97601318359376,-41.78057861328125,289.16864013671875
1700074784,0.7402191162109375,-0.03802490234375,-0.3716583251953125,0.5063321590423584,1.661172866821289,-0.3046877384185791,101.9703369140625,-42.41204833984375,289.7020874023437
1700074784,0.9210357666015624,0.0114593505859375,-0.364501953125,0.5402818918228149,1.7425211668014526,-0.3330703675746918,102.26734924316406,-42.76649475097656,289.2213134765625
1700074784,1.0446929931640625,-0.0072174072265625,-0.4973297119140625,0.6637199521064758,1.8302286863327024,-0.3388744592666626,102.22419738769533,-43.008331298828125,289.20849609375
1700074784,1.0219268798828125,-0.107086181640625,-0.500152587890625,0.6579150557518005,1.8837507963180544,-0.2915602028369903,102.04690551757812,-43.279876708984375,289.13238525390625
1700074784,0.904998779296875,-0.1534271240234375,-0.537322998046875,0.6516352891921997,1.938325047492981,-0.2527512907981872,102.16964721679688,-43.02775573730469,288.34228515625
1700074784,0.806182861328125,-0.18212890625,-0.5673065185546875,0.6743776202201843,1.9985876083374023,-0.2092083394527435,102.17172241210938,-42.91868591308594,288.4404296875
1700074784,0.804168701171875,-0.187469482421875,-0.529754638671875,0.6299441456794739,2.0804197788238525,-0.183181807398796,102.1052703857422,-43.0555419921875,287.5000305175781
1700074784,0.9038848876953124,-0.1480255126953125,-0.50225830078125,0.5517235994338989,2.1918957233428955,-0.1158270016312599,102.58377075195312,-43.09315490722656,287.040771484375
1700074784,1.0007476806640625,-0.10052490234375,-0.5535888671875,0.5067281723022461,2.3314802646636963,-0.0472617894411087,102.80758666992188,-42.889251708984375,285.5956726074219
1700074784,1.0435333251953125,-0.05767822265625,-0.6377105712890625,0.4810523688793182,2.451463222503662,-0.0083836307749152,102.92385864257812,-42.52833557128906,284.9761657714844
1700074784,1.0299530029296875,-0.048095703125,-0.664794921875,0.4894407987594604,2.558054685592652,0.0368192680180072,103.1061553955078,-42.06005859375,283.6695556640625
1700074784,0.9942779541015624,-0.021514892578125,-0.6415252685546875,0.4728754162788391,2.62995719909668,0.0531167462468147,103.75807189941406,-42.32516479492188,281.67950439453125
1700074785,1.00506591796875,-0.033782958984375,-0.66119384765625,0.4695073068141937,2.6936123371124268,0.0882403776049614,104.54579162597656,-43.638671875,281.0805358886719
1700074785,0.98150634765625,-0.0730438232421875,-0.732513427734375,0.4851541817188263,2.7608938217163086,0.1205301433801651,104.75611877441406,-43.70721435546875,279.96209716796875
1700074785,1.0097198486328125,-0.089263916015625,-0.7663116455078125,0.4980617165565491,2.8571879863739014,0.176887959241867,104.7078857421875,-43.82379150390625,279.3460998535156
1700074785,1.135589599609375,-0.03955078125,-0.7071685791015625,0.3885538578033447,2.88319993019104,0.1899835169315338,105.02859497070312,-44.29466247558594,278.129150390625
1700074785,1.209747314453125,-0.0079803466796875,-0.7320098876953125,0.4174699485301971,2.8518781661987305,0.2337714731693267,105.38825988769533,-44.15586853027344,277.3669128417969
1700074785,1.198822021484375,-0.06884765625,-0.863555908203125,0.5272001624107361,2.797780990600586,0.3471941649913788,105.67010498046876,-44.79866027832031,276.1635131835937
1700074785,1.2303466796875,-0.1198883056640625,-0.9060821533203124,0.6122724413871765,2.741543292999268,0.4455223381519317,106.07821655273438,-44.80970764160156,275.71099853515625
1700074785,1.33001708984375,-0.0628662109375,-0.7920684814453125,0.507184624671936,2.6568150520324707,0.544085681438446,105.692626953125,-45.606719970703125,275.8537292480469
1700074785,1.4340362548828125,-0.011138916015625,-0.746307373046875,0.3938538134098053,2.5046534538269043,0.5751962065696716,106.02986145019533,-45.81558227539063,274.5920715332031
1700074785,1.4449920654296875,-0.1105194091796875,-0.6950531005859375,0.3442745506763458,2.291268825531006,0.6732641458511353,106.10316467285156,-46.41429138183594,274.3133850097656
1700074785,1.3260498046875,-0.1762847900390625,-0.6046142578125,0.2459629029035568,2.0516245365142822,0.7405345439910889,106.35491943359376,-46.94892883300781,273.5947265625
1700074785,1.10992431640625,-0.1870880126953125,-0.616668701171875,0.1039977744221687,1.8111867904663088,0.7976782321929932,106.55517578125,-46.73991394042969,273.15887451171875
1700074785,0.848388671875,-0.2147369384765625,-0.682098388671875,-0.0003946804790757,1.5900863409042358,0.8485395908355713,106.53050231933594,-46.73072814941406,272.4168701171875
1700074785,0.5858154296875,-0.2425079345703125,-0.7720794677734375,-0.097663439810276,1.4035966396331787,0.861342191696167,106.6428680419922,-46.98455810546875,272.33428955078125
1700074785,0.36651611328125,-0.2926177978515625,-0.9079437255859376,-0.1698601394891739,1.288872480392456,0.7834106683731079,106.26844787597656,-46.83558654785156,271.95574951171875
1700074785,0.197784423828125,-0.427276611328125,-1.0647430419921875,-0.2365305125713348,0.9430692791938782,0.667743444442749,106.5565948486328,-46.46882629394531,271.73272705078125
1700074785,0.2807159423828125,-0.5758056640625,-0.7012939453125,-0.5956660509109497,0.5147368311882019,0.5182895064353943,106.26229858398438,-46.45884704589844,270.9657897949219
1700074785,0.3267669677734375,-0.6804962158203125,-0.3984222412109375,-1.039544939994812,0.2910691201686859,0.3951507806777954,106.55873107910156,-46.49925231933594,270.96417236328125
1700074785,0.0223541259765625,-0.6598663330078125,-0.5543670654296875,-1.1624075174331665,-0.0177590232342481,0.3420444130897522,106.504150390625,-46.32334899902344,270.3140563964844
1700074785,-0.1535491943359375,-0.598907470703125,-0.3780059814453125,-1.071005940437317,-0.4651069641113281,0.3327987194061279,106.71380615234376,-46.51173400878906,269.8369140625
1700074785,-0.10260009765625,-0.4085693359375,0.0121307373046875,-0.9526870250701904,-1.0087302923202517,0.4004534184932709,106.51780700683594,-46.8505859375,269.646484375
1700074785,-0.13372802734375,-0.0304718017578125,0.17474365234375,-0.6732183694839478,-1.4563387632369995,0.4097393155097961,106.96492004394533,-46.73257446289063,269.83709716796875
1700074785,0.03802490234375,0.260650634765625,0.3341522216796875,-0.1685043275356292,-1.964089274406433,0.2417540401220321,106.58555603027344,-46.72431945800781,269.4525756835937
1700074785,0.248016357421875,0.1511077880859375,0.4469451904296875,0.2531726062297821,-2.432581186294556,0.0798708647489547,106.87045288085938,-46.46424865722656,269.6175537109375
1700074785,0.4340667724609375,-0.025604248046875,0.463470458984375,0.3196467161178589,-2.735917091369629,-0.0303549766540527,106.93191528320312,-46.96614074707031,270.1234130859375
1700074785,0.48529052734375,-0.082611083984375,0.148590087890625,0.1413491368293762,-2.947937726974488,-0.0985225811600685,107.00672912597656,-47.00282287597656,269.811279296875
1700074785,0.50634765625,-0.1055908203125,-0.0615386962890625,-0.1707722693681717,-3.212229490280152,-0.1327172964811325,106.8717041015625,-46.99296569824219,269.8130798339844
1700074785,0.5698089599609375,-0.135162353515625,-0.150604248046875,-0.5690504312515259,-3.4907119274139404,-0.1507125496864318,106.2244110107422,-46.61921691894531,269.1537475585937
1700074785,0.6368865966796875,-0.1744537353515625,-0.179931640625,-0.9227104783058168,-3.765714645385742,-0.135068878531456,106.93760681152344,-46.859649658203125,269.2431640625
1700074785,0.6885528564453125,-0.1604156494140625,-0.2061767578125,-1.0839850902557373,-4.016637802124023,-0.1242697536945343,106.8804931640625,-46.74801635742188,269.1635131835937
1700074785,0.7306060791015625,-0.0904388427734375,-0.25616455078125,-1.090410232543945,-4.285734176635742,-0.1264681965112686,106.63699340820312,-46.46372985839844,269.195556640625
1700074785,0.80108642578125,-0.011016845703125,-0.287811279296875,-1.0019416809082031,-4.513682842254639,-0.1549102216958999,106.85952758789062,-46.9205322265625,268.4032592773437
1700074785,0.8703155517578125,0.0423736572265625,-0.300750732421875,-0.9612184762954712,-4.679566860198975,-0.171287328004837,106.89971923828124,-46.70436096191406,268.404052734375
1700074785,0.9183349609375,0.08734130859375,-0.376373291015625,-0.9205517172813416,-4.802823066711426,-0.1352321207523346,106.45086669921876,-46.9259033203125,267.7655639648437
1700074785,0.95703125,0.088348388671875,-0.46820068359375,-0.6449899077415466,-4.87748908996582,-0.0577788762748241,106.44900512695312,-46.58207702636719,267.5308837890625
1700074785,0.9949798583984376,0.056884765625,-0.5453948974609375,-0.1147372350096702,-4.928041934967041,0.0183734148740768,106.52569580078124,-46.984405517578125,267.3768615722656
1700074785,1.070770263671875,0.0601043701171875,-0.577667236328125,0.4215389788150787,-4.92168664932251,0.0470988042652606,106.5990753173828,-46.93943786621094,267.075927734375
1700074785,1.1701812744140625,0.102630615234375,-0.6309051513671875,0.8168919086456299,-4.920567512512207,0.0231846813112497,106.69105529785156,-46.51341247558594,267.2267150878906
1700074785,1.222015380859375,0.158294677734375,-0.7325286865234375,1.0912015438079834,-4.91693639755249,-0.0281605310738086,106.47108459472656,-46.60078430175781,266.7025756835937
1700074785,1.2310638427734375,0.1761474609375,-0.8388824462890625,1.415142297744751,-4.851607322692871,-0.0644005611538887,106.56314086914062,-46.92721557617188,266.0486755371094
1700074785,1.1941986083984375,0.14703369140625,-0.91900634765625,1.745405673980713,-4.706877708435059,-0.0737559795379638,106.65859985351562,-46.82365417480469,265.0101928710937
1700074785,1.1508941650390625,0.10784912109375,-1.0284423828125,1.949302077293396,-4.506749153137207,-0.0601091422140598,106.73309326171876,-47.03094482421875,264.4198608398437
1700074785,1.12371826171875,0.108612060546875,-1.1099700927734375,2.03323745727539,-4.241037845611572,-0.0452327243983745,106.7091827392578,-47.186614990234375,264.04254150390625
1700074785,1.134613037109375,0.1266021728515625,-1.125518798828125,2.0617916584014893,-3.953296899795532,-0.06329907476902,106.64866638183594,-47.1708984375,263.1897888183594
1700074785,1.1974945068359375,0.1239471435546875,-1.123565673828125,1.885142803192139,-3.6935222148895264,-0.0798980295658111,106.85235595703124,-47.357025146484375,262.7073974609375
1700074785,1.22637939453125,0.1226043701171875,-1.1265716552734375,1.4642634391784668,-3.392343521118164,-0.0617405958473682,106.425048828125,-47.549713134765625,261.4656982421875
1700074785,1.1800384521484375,0.08917236328125,-1.11981201171875,0.9714441895484924,-3.076258659362793,-0.0338727459311485,106.46206665039062,-47.78117370605469,260.7764892578125
1700074785,1.055450439453125,-0.00421142578125,-1.042877197265625,0.5976945757865906,-2.731208086013794,0.0474458113312721,106.44371032714844,-47.9384765625,259.8930969238281
1700074785,0.923004150390625,-0.0830230712890625,-0.93206787109375,0.3607755005359649,-2.361590623855591,0.1506832540035247,106.194580078125,-47.77244567871094,259.7881774902344
1700074785,0.854827880859375,-0.1014862060546875,-0.841064453125,0.1094471290707588,-2.0015170574188232,0.2250565588474273,106.18939208984376,-48.19975280761719,258.722900390625
1700074785,0.80963134765625,-0.054107666015625,-0.830047607421875,-0.0762614831328392,-1.669344782829285,0.2754006683826446,106.27207946777344,-48.29388427734375,258.14288330078125
1700074785,0.77618408203125,0.03900146484375,-0.812713623046875,-0.1244801431894302,-1.345234513282776,0.299838125705719,105.94123840332033,-48.23246765136719,257.02740478515625
1700074785,0.752960205078125,0.1192169189453125,-0.752593994140625,-0.0314591228961944,-1.0252200365066528,0.2674365043640136,106.08584594726562,-48.59996032714844,256.28155517578125
1700074785,0.737396240234375,0.14337158203125,-0.6689300537109375,0.1201434507966041,-0.7115891575813293,0.1754698306322097,105.41989135742188,-48.62773132324219,254.9664459228516
1700074785,0.7525634765625,0.120513916015625,-0.598785400390625,0.2835715413093567,-0.4374004900455475,0.0526016913354396,105.32150268554688,-48.57743835449219,254.3956756591797
1700074785,0.8039093017578125,0.057159423828125,-0.525482177734375,0.3655098080635071,-0.198274478316307,-0.0475107952952384,104.8206787109375,-48.84982299804688,253.482650756836
1700074785,0.8451080322265625,-0.0226898193359375,-0.45208740234375,0.275143951177597,-0.0149022508412599,-0.0818005874752998,104.73672485351562,-49.01228332519531,252.4925537109375
1700074785,0.816680908203125,-0.077667236328125,-0.4148712158203125,0.0096731334924697,0.1456900835037231,-0.0559692606329917,104.15106201171876,-48.52651977539063,251.70455932617188
1700074785,0.7552947998046875,-0.112335205078125,-0.3812255859375,-0.343318223953247,0.3137454092502594,-0.0038727687206119,103.43586730957033,-48.78228759765625,250.1687774658203
1700074785,0.7334136962890625,-0.1493377685546875,-0.336761474609375,-0.7009482383728027,0.4997991621494293,0.0747653171420097,103.28073120117188,-49.07002258300781,249.3427734375
1700074785,0.7556304931640625,-0.1898345947265625,-0.3399505615234375,-0.9623372554779052,0.6843525171279907,0.0905927494168281,102.49307250976562,-48.98600769042969,248.2303161621093
1700074785,0.843505859375,-0.2560882568359375,-0.3753662109375,-1.1144144535064695,1.0458329916000366,-0.0613413862884044,101.9091796875,-48.709716796875,246.73562622070312
1700074785,0.982421875,-0.347625732421875,-0.5691375732421875,-1.3017587661743164,1.2790409326553345,-0.4534409940242767,101.23464965820312,-48.673370361328125,245.8685302734375
1700074785,0.870147705078125,-0.4803924560546875,-0.8384246826171875,-1.061508297920227,1.4305907487869265,-0.2480159252882003,100.52032470703124,-48.20277404785156,244.5760803222656
1700074785,0.785003662109375,-0.22613525390625,-0.6615447998046875,-0.873454749584198,1.393405795097351,-0.0263383965939283,99.52508544921876,-47.89964294433594,243.655990600586
1700074785,0.9884796142578124,-0.067474365234375,-0.167755126953125,-1.1011244058609009,2.692182302474976,-0.8109485507011414,98.8267059326172,-47.70066833496094,241.86941528320312
1700074785,0.9970703125,-0.42724609375,-1.326080322265625,-0.0685886517167091,2.369840145111084,-2.317573070526123,98.35719299316406,-47.39704895019531,240.67892456054688
1700074785,1.110992431640625,-1.15576171875,-1.656829833984375,0.6399528384208679,2.046693563461304,-0.806938886642456,97.34034729003906,-46.93785095214844,240.02850341796875
1700074785,2.253280639648437,-0.4374237060546875,2.0536041259765625,-1.0510636568069458,1.6474705934524536,0.3745360672473907,96.5715789794922,-46.5555419921875,239.3623962402344
1700074785,1.708740234375,0.61175537109375,0.2209625244140625,-1.4496469497680664,1.7631244659423828,-0.6796941161155701,95.38533020019533,-46.62141418457031,238.1117248535156
1700074785,1.6739044189453125,0.213134765625,0.0651397705078125,-0.8150511384010315,1.5578343868255615,-0.7255563735961914,94.9150390625,-46.46060180664063,237.7340545654297
1700074785,1.15838623046875,0.430328369140625,0.6056671142578125,-0.087282970547676,1.296133041381836,-0.5796391367912292,94.08444213867188,-46.07560729980469,237.0718994140625
1700074785,1.0110321044921875,0.3391571044921875,0.3445892333984375,0.209377184510231,1.022799015045166,-0.6283371448516846,93.52037048339844,-46.231353759765625,236.9202575683593
1700074785,1.3957366943359375,-0.157470703125,0.0860443115234375,0.2168665379285812,0.9732492566108704,-0.5919740796089172,92.92250061035156,-45.85997009277344,235.83706665039065
1700074785,1.6334075927734375,-0.2167510986328125,-0.13214111328125,-0.0779121071100235,0.9854846596717834,-0.3918668329715729,92.59860229492188,-45.97319030761719,235.2928466796875
1700074785,1.66107177734375,0.0202484130859375,-0.3363037109375,-0.2851963341236114,1.0557070970535278,-0.3426854610443115,91.9589385986328,-46.18110656738281,235.01258850097656
1700074785,1.5150299072265625,0.2044525146484375,-0.3920745849609375,-0.3574971556663513,1.1221511363983154,-0.3970570862293243,91.8498077392578,-46.424102783203125,234.46109008789065
1700074785,1.2495880126953125,0.3197174072265625,-0.274993896484375,-0.2970596253871918,1.1291956901550293,-0.2825722992420196,91.89096069335938,-46.87814331054688,233.9398956298828
1700074785,1.027374267578125,0.2310791015625,-0.2479095458984375,-0.154065728187561,1.1007747650146484,-0.1548593491315841,91.62208557128906,-46.95710754394531,234.52001953125
1700074785,0.9878387451171876,-0.076324462890625,-0.219482421875,-0.1690127253532409,1.002035140991211,-0.0867538005113601,91.8408203125,-47.628021240234375,234.6298828125
1700074785,1.1148529052734375,-0.228668212890625,-0.2569427490234375,-0.1069932952523231,0.893023669719696,-0.0259658209979534,92.27830505371094,-47.76423645019531,235.07345581054688
1700074785,1.2481536865234375,-0.2218780517578125,-0.2754058837890625,0.0303989183157682,0.7989469766616821,0.0112316152080893,92.70089721679688,-47.83270263671875,235.71340942382807
1700074785,1.3176727294921875,-0.1689605712890625,-0.3372802734375,0.1576322317123413,0.7285537719726562,0.0616756156086921,93.3466339111328,-47.9453125,236.35877990722656
1700074785,1.3115692138671875,-0.060333251953125,-0.41473388671875,0.1205469220876693,0.6630876660346985,0.0845036953687667,94.03421020507812,-47.63630676269531,237.3841094970703
1700074785,1.2449951171875,0.060211181640625,-0.4997711181640625,0.0593352280557155,0.5922009944915771,0.0787619203329086,94.62281799316406,-48.16941833496094,238.3637084960937
1700074785,1.1475830078125,0.077117919921875,-0.54156494140625,-0.0377460457384586,0.5441504120826721,0.0964522361755371,95.11668395996094,-48.22401428222656,240.0872344970703
1700074785,0.9988861083984376,0.0476531982421875,-0.54888916015625,-0.1883166432380676,0.5132273435592651,0.1258913576602935,95.99183654785156,-48.81271362304688,240.86669921875
1700074785,0.87261962890625,0.0068206787109375,-0.5013275146484375,-0.270630419254303,0.5042413473129272,0.1186318397521972,96.6942138671875,-49.13887023925781,241.6082763671875
1700074785,0.8097076416015625,-0.1018829345703125,-0.376861572265625,-0.1570175737142563,0.5304199457168579,0.0683785229921341,97.51100158691406,-49.828033447265625,242.9851837158203
1700074785,0.789276123046875,-0.218994140625,-0.22100830078125,-0.0645084157586097,0.5886662006378174,0.0398123934864997,98.08953857421876,-50.24488830566406,244.1414794921875
1700074785,0.7909393310546875,-0.196563720703125,-0.1778717041015625,0.0653779432177543,0.6740465760231018,0.0236115865409374,99.02598571777344,-50.648284912109375,245.7228240966797
1700074785,0.8495635986328125,-0.1180877685546875,-0.1389007568359375,0.138340562582016,0.7635319828987122,0.0145062385126948,99.8528289794922,-51.13887023925781,247.67153930664065
1700074785,0.9127960205078124,-0.0916290283203125,-0.16156005859375,0.1920298933982849,0.8366232514381409,0.0042551988735795,100.33543395996094,-51.30363464355469,249.1441192626953
1700074785,0.9366912841796876,-0.12127685546875,-0.221893310546875,0.2543204426765442,0.8894917964935303,-0.0054570832289755,100.7835693359375,-51.690673828125,251.2571258544922
1700074785,0.901336669921875,-0.1592864990234375,-0.3228302001953125,0.3056925535202026,0.9387440085411072,0.0059652146883308,101.1457977294922,-51.69204711914063,253.0780029296875
1700074785,0.8200836181640625,-0.139556884765625,-0.4000244140625,0.3366328775882721,0.978429675102234,0.0075902752578258,101.96554565429688,-51.58897399902344,254.84361267089844
1700074785,0.766082763671875,-0.0791015625,-0.3954010009765625,0.3486213684082031,1.025052785873413,-0.0165012124925851,102.38079833984376,-51.7716064453125,256.939208984375
1700074785,0.788330078125,-0.041748046875,-0.3169708251953125,0.2730733454227447,1.0589878559112549,-0.0372099541127681,102.3317413330078,-51.84791564941406,259.2801513671875
1700074785,0.904693603515625,-0.055267333984375,-0.228668212890625,0.2167853116989135,1.1359665393829346,-0.0679460242390632,102.3804931640625,-52.1697998046875,261.6940612792969
1700074785,1.0746612548828125,-0.1332855224609375,-0.2277984619140625,0.2110022455453872,1.2648375034332275,-0.0958951041102409,102.12193298339844,-52.083526611328125,263.40576171875
1700074786,1.18560791015625,-0.1658782958984375,-0.25152587890625,0.2268653661012649,1.399621605873108,-0.1022709757089614,101.98924255371094,-52.34698486328125,266.09228515625
1700074786,1.130401611328125,-0.1331024169921875,-0.2783050537109375,0.2101756036281585,1.4803860187530518,-0.1174576506018638,102.46026611328124,-52.315673828125,268.0013122558594
1700074786,0.9546051025390624,-0.119873046875,-0.33258056640625,0.2695305347442627,1.516241431236267,-0.1496978849172592,101.97941589355467,-52.90289306640625,269.50299072265625
1700074786,0.7713165283203125,-0.1434173583984375,-0.419219970703125,0.3654863536357879,1.5253171920776367,-0.1644829511642456,101.73818969726562,-53.37840270996094,271.691650390625
1700074786,0.6941375732421875,-0.09716796875,-0.435302734375,0.4205024838447571,1.566230297088623,-0.201452150940895,101.34524536132812,-53.12153625488281,273.3420104980469
1700074786,0.7585906982421875,-0.0275421142578125,-0.4138031005859375,0.4582586586475372,1.591483235359192,-0.2435332983732223,100.91340637207033,-53.32081604003906,274.1104431152344
1700074786,0.851318359375,-0.035064697265625,-0.390350341796875,0.5801491141319275,1.6554726362228394,-0.2731092870235443,100.6939697265625,-53.365142822265625,275.1703186035156
1700074786,0.903228759765625,-0.1269683837890625,-0.42803955078125,0.7077898979187012,1.7361857891082764,-0.2640228569507599,100.60897827148438,-53.38377380371094,276.65557861328125
1700074786,0.9429168701171876,-0.1652984619140625,-0.4178619384765625,0.6898769736289978,1.829860091209412,-0.2463693022727966,99.75709533691406,-53.49211120605469,277.2884216308594
1700074786,0.9771728515625,-0.14276123046875,-0.4212493896484375,0.6594815254211426,1.9396110773086548,-0.223866119980812,99.48463439941406,-53.09580993652344,277.8111572265625
1700074786,0.9669342041015624,-0.168121337890625,-0.462493896484375,0.6878942251205444,2.0189967155456543,-0.2216964364051818,99.335205078125,-53.27899169921875,278.299560546875
1700074786,0.954742431640625,-0.229949951171875,-0.47906494140625,0.6494597792625427,2.057966470718384,-0.1928538680076599,99.0252685546875,-53.08561706542969,278.29644775390625
1700074786,0.9095001220703124,-0.209991455078125,-0.5279083251953125,0.6281648874282837,2.101137638092041,-0.120069146156311,98.76377868652344,-53.44462585449219,278.466552734375
1700074786,0.85394287109375,-0.1454620361328125,-0.651947021484375,0.6176466941833496,2.1396806240081787,-0.080839455127716,98.19566345214844,-53.17268371582031,278.42596435546875
1700074786,0.893157958984375,-0.0695037841796875,-0.662567138671875,0.5356583595275879,2.1933352947235107,-0.0277653187513351,97.82814025878906,-53.12425231933594,278.9881591796875
1700074786,0.952972412109375,-0.015411376953125,-0.6717529296875,0.4574679434299469,2.2290849685668945,-0.0184818059206008,97.76776123046876,-53.396575927734375,278.84820556640625
1700074786,0.9507293701171876,-0.0449981689453125,-0.6943511962890625,0.4846058189868927,2.2578370571136475,0.0113655729219317,97.74168395996094,-53.55720520019531,279.1406555175781
1700074786,0.86627197265625,-0.1092681884765625,-0.7036590576171875,0.4842548370361328,2.278057336807251,0.0246510170400142,97.71694946289062,-53.85903930664063,278.72137451171875
1700074786,0.788909912109375,-0.12469482421875,-0.6427154541015625,0.4152696430683136,2.2365975379943848,0.0016857809387147,97.38639831542967,-53.40476989746094,278.4086608886719
1700074786,0.653594970703125,-0.12957763671875,-0.632781982421875,0.4627825617790222,2.149125814437866,-0.0491867214441299,97.11117553710938,-53.3145751953125,277.7328491210937
1700074786,0.4358673095703125,-0.189910888671875,-0.7140045166015625,0.6169516444206238,2.067659378051758,-0.0591794326901435,97.30172729492188,-53.41737365722656,277.09405517578125
1700074786,0.3414306640625,-0.198516845703125,-0.7389984130859375,0.6518616676330566,1.9854358434677124,-0.0456764064729213,97.12689208984376,-53.39811706542969,276.408203125
1700074786,0.44122314453125,-0.0983734130859375,-0.799896240234375,0.6927686333656311,1.94626259803772,0.0060509680770337,97.29704284667967,-53.34747314453125,275.4175720214844
1700074786,0.6463775634765625,-0.060943603515625,-0.920806884765625,0.7055670022964478,1.9603019952774048,0.1513088345527649,97.2062530517578,-53.474212646484375,274.6435546875
1700074786,0.9805145263671876,-0.0835418701171875,-1.026092529296875,0.5545902252197266,2.0499370098114014,0.322294145822525,97.14199829101562,-53.253936767578125,273.370849609375
1700074786,1.2924041748046875,-0.063385009765625,-1.054718017578125,0.3396289348602295,2.1778993606567383,0.4916160702705383,97.8358154296875,-54.57785034179688,272.7784118652344
1700074786,1.5368194580078125,-0.0030975341796875,-0.976898193359375,0.1262663304805755,2.2484652996063232,0.6139329075813293,97.71478271484376,-54.64607238769531,272.1551513671875
1700074786,1.6184844970703125,0.007965087890625,-0.929962158203125,0.0900561213493347,2.2576441764831543,0.6795274019241333,97.97604370117188,-54.78062438964844,271.2275390625
1700074786,1.5423583984375,-0.0662078857421875,-0.9501495361328124,0.1255256980657577,2.201546192169189,0.7424908876419067,97.92822265625,-54.91938781738281,270.7422180175781
1700074786,1.5335235595703125,-0.1346893310546875,-0.8983612060546875,0.1135390773415565,2.083620309829712,0.7842684388160706,97.88461303710938,-54.43423461914063,270.3856201171875
1700074786,1.549774169921875,-0.1363525390625,-0.8246917724609375,0.0754612013697624,1.9151207208633425,0.7902719974517822,97.97506713867188,-54.70884704589844,269.3316955566406
1700074786,1.4850616455078125,-0.1526031494140625,-0.7536468505859375,0.024172181263566,1.72126042842865,0.775861918926239,98.04232788085938,-55.08349609375,269.39337158203125
1700074786,1.311676025390625,-0.223175048828125,-0.752838134765625,0.0374248698353767,1.4600602388381958,0.7953469157218933,98.12443542480467,-55.27520751953125,268.80010986328125
1700074786,1.111572265625,-0.2841033935546875,-0.5865631103515625,-0.0385194309055805,1.2019423246383667,0.7470092177391052,98.23196411132812,-55.17686462402344,268.18902587890625
1700074786,0.8545074462890625,-0.30419921875,-0.4619140625,-0.1077632158994674,0.9811093211174012,0.5441314578056335,98.32456970214844,-55.05291748046875,268.4429931640625
1700074786,0.5746002197265625,-0.377685546875,-0.44525146484375,-0.0936604440212249,0.7009152173995972,0.3318594396114349,98.5505828857422,-55.59126281738281,267.50933837890625
1700074786,0.3258514404296875,-0.4438018798828125,-0.3264923095703125,-0.1415970772504806,0.2591420710086822,0.148083746433258,98.43634033203124,-55.50436401367188,267.1951599121094
1700074786,0.1782073974609375,-0.4430999755859375,-0.1227874755859375,-0.141698271036148,-0.0973643660545349,0.0103450492024421,98.19534301757812,-55.74200439453125,266.8181457519531
1700074786,0.0051727294921875,-0.37884521484375,-0.072906494140625,-0.0957909747958183,-0.5731729865074158,-0.105014830827713,98.544189453125,-55.61767578125,265.90850830078125
1700074786,-0.1027679443359375,-0.31048583984375,0.077606201171875,0.1278258711099624,-1.0617927312850952,-0.0628508701920509,98.23846435546876,-55.67495727539063,265.69927978515625
1700074786,-0.15618896484375,-0.175018310546875,0.144683837890625,0.3710609078407287,-1.5300207138061523,0.0813617035746574,98.10231018066406,-55.27198791503906,265.4190979003906
1700074786,-0.0288543701171875,0.078948974609375,0.251678466796875,0.6608517169952393,-2.01027774810791,-0.0493965782225132,98.46937561035156,-55.57806396484375,264.96600341796875
1700074786,0.1651458740234375,0.021636962890625,0.222137451171875,0.8300852179527283,-2.494731903076172,-0.110277235507965,98.08706665039062,-55.66007995605469,264.815673828125
1700074786,0.3535614013671875,-0.0906524658203125,0.3420562744140625,0.4853121042251587,-2.860759019851685,-0.1142578646540641,98.1402587890625,-55.37648010253906,264.69342041015625
1700074786,0.5037841796875,-0.1102752685546875,0.229583740234375,-0.3239189386367798,-3.0769143104553223,-0.16413114964962,98.0759735107422,-55.646575927734375,264.5635986328125
1700074786,0.6180419921875,-0.1212310791015625,-0.072479248046875,-1.2263537645339966,-3.286605834960937,-0.1420402228832245,97.87777709960938,-55.74650573730469,264.05767822265625
1700074786,0.66070556640625,-0.2149810791015625,-0.285186767578125,-1.906310677528381,-3.5729148387908936,-0.0190029852092266,97.7576141357422,-55.64814758300781,264.23876953125
1700074786,0.7084503173828125,-0.337646484375,-0.3093719482421875,-2.48429274559021,-3.864800930023194,0.1246748194098472,97.59431457519533,-55.52455139160156,263.5760498046875
1700074786,0.7424774169921875,-0.340728759765625,-0.315948486328125,-3.1063263416290283,-4.147121906280518,0.1780067533254623,97.77816772460938,-55.456817626953125,263.5899658203125
1700074786,0.7863616943359375,-0.212677001953125,-0.4276275634765625,-3.50024938583374,-4.423327445983887,0.198986604809761,97.67633056640624,-55.46949768066406,263.8438720703125
1700074786,0.817108154296875,-0.10986328125,-0.502227783203125,-3.474426746368408,-4.621945858001709,0.2692935168743133,97.50706481933594,-55.57000732421875,263.12811279296875
1700074786,0.812408447265625,-0.04266357421875,-0.4713134765625,-2.851958513259888,-4.791726589202881,0.4517994225025177,97.5829620361328,-55.694732666015625,262.9127197265625
1700074786,0.7944183349609375,0.047393798828125,-0.3742523193359375,-1.6579035520553589,-4.9035515785217285,0.6331348419189453,97.91476440429688,-55.630401611328125,262.6602783203125
1700074786,0.8431549072265625,0.1800079345703125,-0.26605224609375,0.0475624576210975,-4.913839817047119,0.660278856754303,97.72109985351562,-56.115142822265625,262.19415283203125
1700074786,0.933135986328125,0.360748291015625,-0.1771392822265625,1.6536906957626345,-4.921236038208008,0.433551162481308,97.7426300048828,-55.30155944824219,261.84881591796875
1700074786,1.083740234375,0.5132293701171875,-0.2907257080078125,2.560009717941284,-4.9478678703308105,0.2604968249797821,97.7968292236328,-55.54512023925781,261.3025817871094
1700074786,1.1807861328125,0.614227294921875,-0.62939453125,3.0158910751342773,-4.941491603851318,0.0685787945985794,97.4893035888672,-55.67886352539063,261.0179443359375
1700074786,1.22723388671875,0.4061431884765625,-0.8932952880859375,3.0576443672180176,-4.807232856750488,0.0123096629977226,97.5492706298828,-55.415863037109375,261.25860595703125
1700074786,1.2021484375,0.214813232421875,-1.0895538330078125,2.760506629943848,-4.6204986572265625,0.0282319039106369,97.5678253173828,-55.71961975097656,260.8125
1700074786,1.1349334716796875,0.080535888671875,-1.293121337890625,2.2547762393951416,-4.41355037689209,-0.0219652205705642,97.42417907714844,-55.80352783203125,260.45343017578125
1700074786,1.1311187744140625,-0.0653839111328125,-1.39453125,1.6071820259094238,-4.1992926597595215,-0.0816463902592659,97.53073120117188,-55.97499084472656,259.9556884765625
1700074786,1.1642303466796875,-0.162078857421875,-1.4046630859375,0.9285638332366944,-3.922260999679565,-0.0441594719886779,97.28669738769533,-56.050140380859375,259.1126708984375
1700074786,1.196624755859375,-0.2055206298828125,-1.3689117431640625,0.2534674108028412,-3.62152099609375,0.0324341058731079,96.9484405517578,-55.97654724121094,259.2998046875
1700074786,1.177398681640625,-0.2354583740234375,-1.3193817138671875,-0.2206860333681106,-3.297824621200561,0.1404564529657364,96.84767150878906,-55.82421875,258.5468139648437
1700074786,1.092803955078125,-0.206268310546875,-1.189178466796875,-0.3792352080345154,-2.936241626739502,0.2799171507358551,96.60633850097656,-55.649444580078125,258.1224975585937
1700074786,0.9853363037109376,-0.098876953125,-1.004730224609375,-0.3062448799610138,-2.602754831314087,0.411466121673584,96.57591247558594,-56.02037048339844,257.3109130859375
1700074786,0.898193359375,0.0301055908203125,-0.8392181396484375,-0.0807209461927414,-2.2672245502471924,0.5181195735931396,96.35104370117188,-56.38182067871094,256.80181884765625
1700074786,0.8491058349609375,0.1469573974609375,-0.734100341796875,0.1987311989068985,-1.9650981426239007,0.572184681892395,95.8557586669922,-56.46492004394531,256.2225036621094
1700074786,0.8444976806640625,0.2179412841796875,-0.682159423828125,0.5383814573287964,-1.7156496047973633,0.5674506425857544,96.0989990234375,-56.46255493164063,256.0697021484375
1700074786,0.853515625,0.2447052001953125,-0.6193389892578125,0.8940295577049255,-1.4485846757888794,0.4482267796993255,95.49343872070312,-56.425628662109375,255.0950927734375
1700074786,0.875457763671875,0.2174072265625,-0.5749969482421875,1.108375906944275,-1.2018840312957764,0.2611530423164367,95.58737182617188,-56.34452819824219,253.9192352294922
1700074786,0.873779296875,0.1718597412109375,-0.5626220703125,1.1769344806671145,-0.9711776375770568,0.1183977499604225,94.96910095214844,-56.23028564453125,253.7606964111328
1700074786,0.8307647705078125,0.1396484375,-0.51983642578125,1.1852822303771973,-0.7431899905204773,0.0470335558056831,94.93701171875,-56.30609130859375,252.94363403320312
1700074786,0.8239593505859375,0.09039306640625,-0.425384521484375,1.118291974067688,-0.528407096862793,0.01726527325809,94.40945434570312,-56.26097106933594,252.35337829589844
1700074786,0.8590850830078125,0.044921875,-0.372772216796875,0.9582090973854064,-0.3073413074016571,0.0264305416494607,94.06101989746094,-56.51155090332031,251.7908935546875
1700074786,0.8662567138671875,0.026336669921875,-0.4159393310546875,0.7831429839134216,-0.0526536256074905,0.0420382656157016,93.60191345214844,-56.13945007324219,251.12796020507807
1700074786,0.8377532958984375,0.0037689208984375,-0.4932403564453125,0.6150040626525879,0.2128363698720932,0.0489760637283325,93.4398193359375,-56.20738220214844,250.10791015625
1700074786,0.8075103759765625,-0.027679443359375,-0.5090179443359375,0.4426559805870056,0.4416245520114898,0.0627757683396339,93.12281799316406,-56.43014526367188,248.92579650878903
1700074786,0.7619171142578125,-0.062103271484375,-0.46453857421875,0.1631907820701599,0.6454490423202515,0.067463994026184,92.3523406982422,-56.372833251953125,248.912826538086
1700074786,0.734954833984375,-0.108367919921875,-0.42425537109375,-0.2106802761554718,0.7996457815170288,0.0516077987849712,92.5535888671875,-56.31938171386719,248.843978881836
1700074786,0.7601776123046875,-0.1724395751953125,-0.35223388671875,-0.6021220684051514,0.924402117729187,0.0561772510409355,91.81834411621094,-56.24940490722656,248.0012359619141
1700074786,0.8288726806640625,-0.24053955078125,-0.3025665283203125,-0.9600090980529784,0.9981796741485596,0.1223072707653045,91.64199829101562,-56.08111572265625,247.48545837402344
1700074786,0.8567657470703125,-0.2720184326171875,-0.3228607177734375,-1.226390719413757,0.9961833357810974,0.1880897432565689,90.80703735351562,-55.69874572753906,247.19395446777344
1700074786,0.89739990234375,-0.287261962890625,-0.267608642578125,-1.2939269542694092,1.035811185836792,0.1956347525119781,90.54515075683594,-55.687408447265625,246.9036865234375
1700074786,0.95477294921875,-0.274810791015625,-0.229522705078125,-1.307992935180664,1.013543725013733,-0.0002844255941454,90.06227111816406,-55.85618591308594,245.6742706298828
1700074786,0.8756866455078125,-0.282989501953125,-0.3756256103515625,-1.0433032512664795,0.962215781211853,-0.1364965885877609,89.3765869140625,-55.5252685546875,244.8977813720703
1700074786,0.9509124755859376,-0.1843109130859375,-0.183868408203125,-0.7440789341926575,1.5153831243515017,-0.1670829951763153,88.7318115234375,-55.31495666503906,244.4163055419922
1700074786,0.8639678955078125,0.00311279296875,-0.512969970703125,-0.7871169447898865,3.675828218460083,-1.2472403049468994,88.24417114257812,-55.000518798828125,244.0181884765625
1700074786,0.5163726806640625,-0.502532958984375,-2.783447265625,0.7985919713973999,1.2632997035980225,-2.5295932292938232,87.71795654296875,-54.76826477050781,243.2158966064453
1700074786,1.3616485595703125,-1.151031494140625,-0.676788330078125,0.8259397149085999,2.009833335876465,-0.3270966410636902,87.32679748535156,-54.58000183105469,242.9823760986328
1700074786,2.640716552734375,-0.2156829833984375,2.8905181884765625,-1.2811064720153809,1.571992039680481,-0.106963999569416,87.0242919921875,-54.50621032714844,242.22935485839844
1700074786,1.762298583984375,0.0532073974609375,-0.32098388671875,-1.2446434497833252,1.6312623023986816,-0.8422608971595764,86.38581848144531,-54.61927795410156,241.5748291015625
1700074786,1.6424713134765625,-0.6894378662109375,0.48516845703125,-0.6039114594459534,1.5574458837509155,-0.6475436091423035,85.92503356933594,-54.07122802734375,241.52667236328125
1700074786,1.012786865234375,0.00250244140625,0.4100189208984375,0.4567292034626007,1.359030842781067,-0.4516545534133911,85.77011108398438,-54.21087646484375,241.1710357666016
1700074786,0.95855712890625,0.379241943359375,0.3342437744140625,0.5258440971374512,1.187360763549805,-0.5599181652069092,85.4237060546875,-54.02999877929688,240.55406188964844
1700074786,1.3184661865234375,0.266845703125,-0.09918212890625,0.3402731418609619,1.1099703311920166,-0.548656165599823,85.29847717285156,-54.06930541992188,240.4634552001953
1700074786,1.4349517822265625,0.222625732421875,-0.5047454833984375,0.0820823535323143,1.0910248756408691,-0.3232430517673492,85.12718200683594,-54.03932189941406,240.5063323974609
1700074786,1.4169921875,0.3419189453125,-0.4725799560546875,-0.2386900782585144,1.0195012092590332,-0.216395154595375,85.64338684082031,-54.13671875,240.51528930664065
1700074786,1.413970947265625,0.3949737548828125,-0.5889892578125,-0.2708544135093689,0.944213092327118,-0.2729103565216064,85.91171264648438,-54.06118774414063,240.6087188720703
1700074786,1.3189544677734375,0.3171234130859375,-0.402679443359375,-0.1227964907884597,0.8233239650726318,-0.2399438917636871,85.89210510253906,-54.25900268554688,240.7093200683593
1700074787,1.1163177490234375,0.143646240234375,-0.3014984130859375,0.1108732521533966,0.678507924079895,-0.1714324653148651,86.37318420410156,-53.62252807617188,241.3969268798828
1700074787,1.06884765625,-0.1405181884765625,-0.1591339111328125,0.2844354510307312,0.5656490325927734,-0.212514653801918,86.53871154785156,-53.89781188964844,241.83023071289065
1700074787,1.1956024169921875,-0.353363037109375,-0.1107330322265625,0.2607035040855407,0.4871480762958526,-0.1752485185861587,86.83584594726562,-53.70344543457031,243.2318878173828
1700074787,1.3542327880859375,-0.3175506591796875,-0.2031097412109375,0.1752130985260009,0.4780850708484649,-0.0153829511255025,87.34858703613281,-54.24407958984375,245.0071563720703
1700074787,1.4382476806640625,-0.1531524658203125,-0.34197998046875,0.0158860217779874,0.4998598992824554,0.1064031347632408,88.06246948242188,-54.22140502929688,244.64083862304688
1700074787,1.4273834228515625,0.0049896240234375,-0.44097900390625,-0.2839880585670471,0.5340242385864258,0.1043192148208618,88.43374633789062,-55.000762939453125,245.547592163086
1700074787,1.2843170166015625,0.1752471923828125,-0.4721832275390625,-0.4945253133773803,0.5529617071151733,0.0318711139261722,89.1478271484375,-55.04606628417969,246.7294311523437
1700074787,1.131439208984375,0.161163330078125,-0.3794708251953125,-0.4823067188262939,0.5670796632766724,0.0105431880801916,89.44297790527344,-55.82182312011719,247.54653930664065
1700074787,0.9902496337890624,0.0068511962890625,-0.2993927001953125,-0.3093554675579071,0.6060169339179993,0.0385170318186283,90.0816650390625,-55.97358703613281,248.48619079589844
1700074787,0.896759033203125,-0.091949462890625,-0.2712249755859375,-0.0789083987474441,0.6480011343955994,0.0620010532438755,90.45408630371094,-56.73403930664063,248.8368225097656
1700074787,0.8879547119140625,-0.082550048828125,-0.2374267578125,0.1404908001422882,0.7069587707519531,0.0289935674518346,90.95947265625,-56.90065002441406,249.5557556152344
1700074787,0.904388427734375,-0.077545166015625,-0.2107696533203125,0.3451688587665558,0.7625386714935303,-0.0069391326978802,91.24446105957033,-57.335784912109375,250.7134704589844
1700074787,0.85491943359375,-0.1043548583984375,-0.222320556640625,0.5121479630470276,0.7669603228569031,-0.0530741363763809,91.59136962890624,-56.99899291992188,252.7849884033203
1700074787,0.7891693115234375,-0.1575775146484375,-0.2419281005859375,0.4537493884563446,0.7091606259346008,-0.0336804650723934,91.83892822265624,-56.93424987792969,254.613021850586
1700074787,0.7338409423828125,-0.1982574462890625,-0.3262176513671875,0.3352637588977813,0.6343609690666199,0.0009012137306854,91.98829650878906,-56.247100830078125,255.909408569336
1700074787,0.7454376220703125,-0.2510833740234375,-0.398468017578125,0.1512590199708938,0.5532559752464294,0.059427373111248,92.42727661132812,-56.2403564453125,257.5879821777344
1700074787,0.801513671875,-0.2510986328125,-0.4911346435546875,-0.0055060856975615,0.4973935186862945,0.1035596802830696,92.40606689453124,-55.92396545410156,259.4613037109375
1700074787,0.86676025390625,-0.212646484375,-0.5142364501953125,-0.1180161163210868,0.462645947933197,0.1350710093975067,92.71713256835938,-55.834716796875,261.0953369140625
1700074787,0.89031982421875,-0.138702392578125,-0.47259521484375,-0.2202431559562683,0.4684132933616638,0.1239403188228607,92.7982177734375,-56.25914001464844,262.8668518066406
1700074787,0.8620147705078125,-0.0667266845703125,-0.4409942626953125,-0.304396390914917,0.5285466313362122,0.1229863762855529,92.841796875,-55.75718688964844,264.6103515625
1700074787,0.8204498291015625,-0.0364837646484375,-0.3956451416015625,-0.3451286256313324,0.6325148940086365,0.1246335431933403,92.27418518066406,-55.977294921875,265.831787109375
1700074787,0.8100433349609375,-0.064208984375,-0.33575439453125,-0.3291477859020233,0.7813349962234497,0.1036843135952949,91.88653564453124,-56.16790771484375,267.2333984375
1700074787,0.8410186767578125,-0.1212158203125,-0.239410400390625,-0.2694602310657501,0.960559606552124,0.0692371279001236,91.92791748046876,-55.96246337890625,267.4571228027344
1700074787,0.886749267578125,-0.13507080078125,-0.140380859375,-0.2633456289768219,1.131746768951416,0.0466418042778968,91.48228454589844,-55.92828369140625,268.11456298828125
1700074787,0.945831298828125,-0.109161376953125,-0.105804443359375,-0.2960244715213775,1.236119270324707,-0.003450924064964,91.2778778076172,-55.9119873046875,269.3807983398437
1700074787,1.050201416015625,-0.0854034423828125,-0.123809814453125,-0.1924304366111755,1.329730987548828,-0.0574337318539619,91.19369506835938,-55.56986999511719,270.1312866210937
1700074787,1.119171142578125,-0.048736572265625,-0.210296630859375,0.0612303353846073,1.4666725397109983,-0.145729511976242,90.97683715820312,-55.97653198242188,270.7042541503906
1700074787,1.110687255859375,0.0150299072265625,-0.3005523681640625,0.302862673997879,1.589927077293396,-0.2476175278425216,90.69912719726562,-55.35504150390625,270.9243469238281
1700074787,1.04327392578125,0.09197998046875,-0.318817138671875,0.550517201423645,1.7420670986175537,-0.3314990997314453,90.61331176757812,-55.40586853027344,271.3625183105469
1700074787,0.93243408203125,0.0591888427734375,-0.3027191162109375,0.7332382798194885,1.8979289531707764,-0.3622964322566986,90.32893371582033,-55.61964416503906,271.8282470703125
1700074787,0.8307952880859375,-0.039398193359375,-0.2996063232421875,0.829143762588501,2.038140058517456,-0.3481673002243042,89.9818115234375,-55.70172119140625,272.59783935546875
1700074787,0.7855224609375,-0.1212158203125,-0.2894439697265625,0.7768512964248657,2.1599605083465576,-0.317361444234848,89.6026611328125,-55.50485229492188,272.833251953125
1700074787,0.780029296875,-0.1553802490234375,-0.35748291015625,0.7529206275939941,2.233523368835449,-0.3052435219287872,89.78707885742188,-55.99760437011719,272.7414245605469
1700074787,0.781494140625,-0.1907806396484375,-0.439697265625,0.8062182068824768,2.3068883419036865,-0.2968519032001495,89.47216796875,-56.092864990234375,273.184814453125
1700074787,0.8327789306640625,-0.21685791015625,-0.470001220703125,0.7553790211677551,2.3471925258636475,-0.2812535166740417,89.48207092285156,-56.056243896484375,273.24102783203125
1700074787,0.9251708984375,-0.144927978515625,-0.5250701904296875,0.69367915391922,2.415464162826538,-0.2559587955474853,89.09304809570312,-56.32533264160156,273.4447021484375
1700074787,0.976715087890625,-0.0673065185546875,-0.628143310546875,0.6419743895530701,2.4642930030822754,-0.2072277516126632,89.06478881835938,-56.11911010742188,273.1670837402344
1700074787,0.97027587890625,-0.0454864501953125,-0.68212890625,0.6224502325057983,2.500494241714477,-0.1640544533729553,89.08462524414062,-56.70619201660156,272.70733642578125
1700074787,0.9264068603515624,-0.028778076171875,-0.6956787109375,0.5581327676773071,2.502172470092773,-0.1141641214489936,88.53034973144531,-56.42933654785156,272.4125366210937
1700074787,0.8641510009765625,-0.027374267578125,-0.7277069091796875,0.5534634590148926,2.528409957885742,-0.0677428245544433,88.72563171386719,-56.52294921875,272.418701171875
1700074787,0.8336334228515625,-0.0740966796875,-0.7872314453125,0.5438204407691956,2.5985467433929443,0.0047076698392629,88.38406372070312,-56.463409423828125,271.7928466796875
1700074787,0.9059600830078124,-0.0731353759765625,-0.75445556640625,0.4663554430007934,2.7259321212768555,0.0766436457633972,88.22901916503906,-56.1138916015625,271.60223388671875
1700074787,1.0790863037109375,-0.0411376953125,-0.7385406494140625,0.423528641462326,2.9198851585388184,0.1661231964826584,88.0391845703125,-56.15156555175781,270.76861572265625
1700074787,1.332763671875,-0.052276611328125,-0.7309417724609375,0.3072960376739502,3.116164207458496,0.2623586356639862,88.17213439941406,-56.16300964355469,269.6326599121094
1700074787,1.6013946533203125,-0.051788330078125,-0.7125701904296875,0.1864787936210632,3.289603471755981,0.3266841173171997,87.96328735351562,-56.35322570800781,269.7375183105469
1700074787,1.7709197998046875,-0.0292510986328125,-0.752227783203125,0.151374340057373,3.329783201217652,0.3939390480518341,87.72979736328125,-55.87550354003906,268.9644775390625
1700074787,1.870025634765625,-0.0409088134765625,-0.7877655029296875,0.2801949083805084,3.3046319484710693,0.4352582693099975,87.82736206054688,-56.01579284667969,267.6800231933594
1700074787,1.876251220703125,-0.0474090576171875,-0.804412841796875,0.4802885949611664,3.182581901550293,0.4242759048938751,88.0224609375,-57.35182189941406,267.6024780273437
1700074787,1.905303955078125,-0.011871337890625,-0.579986572265625,0.4519336521625519,2.9731061458587646,0.3968525528907776,87.62869262695312,-57.19834899902344,266.7876892089844
1700074787,1.8618316650390625,-0.00384521484375,-0.3968353271484375,0.2977864146232605,2.6218960285186768,0.4008808434009552,87.73257446289062,-57.716644287109375,266.8095092773437
1700074787,1.6316375732421875,-0.0087890625,-0.3791961669921875,-0.0216155461966991,1.99064040184021,0.3748359382152557,87.16131591796875,-57.77047729492188,265.80731201171875
1700074787,1.39263916015625,-0.1140289306640625,-0.3461761474609375,-0.2936119139194488,1.830717086791992,0.3334903419017792,87.56819152832031,-58.16456604003906,265.3045654296875
1700074787,0.732818603515625,-0.3048553466796875,-0.8111114501953125,-0.4331706166267395,1.7006059885025024,0.2545055150985718,87.06085205078125,-58.12294006347656,265.02978515625
1700074787,-0.053802490234375,-0.6239776611328125,-1.2360382080078125,-0.3687615096569061,1.4723395109176636,0.1634829342365265,87.19644165039062,-58.136810302734375,264.93212890625
1700074787,-0.1445159912109375,-0.89141845703125,-0.8475799560546875,-0.3959127068519592,1.1017481088638306,0.0102465124800801,86.71719360351562,-58.775726318359375,264.8363342285156
1700074787,-0.06719970703125,-0.924530029296875,-0.37152099609375,-0.9005489945411682,0.4498268067836761,-0.0103836646303534,86.78073120117188,-58.36860656738281,264.0971069335937
1700074787,0.029541015625,-0.58697509765625,0.2946319580078125,-1.482612133026123,-0.3204054534435272,0.0113080479204654,86.48532104492188,-58.57984924316406,263.7892761230469
1700074787,-0.18292236328125,-0.3331298828125,0.6919097900390625,-1.500536322593689,-1.0901212692260742,0.1407800167798996,86.40768432617188,-58.23570251464844,263.6581115722656
1700074787,-0.21441650390625,-0.00885009765625,0.7381744384765625,-1.1619871854782104,-1.708642601966858,0.2093636095523834,86.63519287109375,-58.248870849609375,263.2870483398437
1700074787,0.1374053955078125,0.2808380126953125,0.6178436279296875,-0.7992692589759827,-2.3199126720428467,0.0777784213423729,86.17750549316406,-58.479034423828125,263.1646728515625
1700074787,0.43609619140625,0.2413787841796875,0.4858245849609375,-0.4746216535568237,-2.80969500541687,0.0279695820063352,86.44648742675781,-58.52507019042969,263.1847229003906
1700074787,0.5555419921875,0.1215362548828125,0.443023681640625,-0.3573485314846039,-3.186062812805176,0.0356168486177921,86.02947998046875,-58.96138000488281,262.7652282714844
1700074787,0.487060546875,0.0546417236328125,0.1415557861328125,-0.2817826867103576,-3.545820474624634,0.0322980172932148,86.09843444824219,-58.52487182617188,262.48297119140625
1700074787,0.46624755859375,-0.06048583984375,-0.0340118408203125,-0.2321512103080749,-3.94107437133789,-0.017209080979228,85.90483093261719,-59.04946899414063,262.41436767578125
1700074787,0.5105438232421875,-0.2144012451171875,-0.0923614501953125,-0.2070666253566742,-4.294961452484131,-0.1335921436548233,85.89669799804688,-58.791595458984375,261.9149169921875
1700074787,0.582489013671875,-0.28717041015625,-0.160919189453125,-0.095473788678646,-4.587830066680908,-0.2337938547134399,86.20285034179688,-58.63029479980469,262.0455017089844
1700074787,0.6736602783203125,-0.2196502685546875,-0.202667236328125,0.2037643194198608,-4.834909439086914,-0.2887327373027801,85.74571228027344,-58.75825500488281,261.7471923828125
1700074787,0.7746429443359375,-0.116973876953125,-0.2532501220703125,0.5537731647491455,-5.016963005065918,-0.3445118367671966,86.00495910644531,-58.72343444824219,261.8970947265625
1700074787,0.8871002197265625,-0.0076904296875,-0.328033447265625,0.856939971446991,-5.116647243499756,-0.4250535666942596,86.0665283203125,-58.83612060546875,261.6400756835937
1700074787,0.9770355224609376,0.0870513916015625,-0.4728546142578125,1.0990769863128662,-5.156922340393066,-0.4786845743656158,85.48255920410156,-58.67720031738281,261.2152099609375
1700074787,1.0504608154296875,0.132598876953125,-0.6536712646484375,1.2798781394958496,-5.1490159034729,-0.4986167252063751,85.47052001953125,-58.62205505371094,261.3749084472656
1700074787,1.087249755859375,0.1275634765625,-0.8058624267578125,1.36470627784729,-5.150144577026367,-0.5016969442367554,85.48710632324219,-58.78892517089844,261.241943359375
1700074787,1.1319580078125,0.110565185546875,-0.890838623046875,1.3256871700286863,-5.1292266845703125,-0.5122265219688416,85.74887084960938,-58.50143432617188,260.9717102050781
1700074787,1.218505859375,0.1001434326171875,-0.92242431640625,1.11261248588562,-5.077418804168701,-0.5403282046318054,85.25575256347656,-58.32395935058594,260.5710754394531
1700074787,1.2733001708984375,0.0906829833984375,-0.975494384765625,0.8227649927139282,-4.988605499267578,-0.5401141047477722,85.57630920410156,-58.694091796875,261.0121154785156
1700074787,1.2803802490234375,0.078094482421875,-1.0808563232421875,0.7520804405212402,-4.7998480796813965,-0.5172631144523621,85.6324462890625,-58.761077880859375,260.7677001953125
1700074787,1.217437744140625,0.063018798828125,-1.252655029296875,1.043190836906433,-4.6172943115234375,-0.4637586176395416,85.46517944335938,-58.19667053222656,260.6884155273437
1700074787,1.157928466796875,0.1275482177734375,-1.269317626953125,1.4600509405136108,-4.386090755462647,-0.4461537897586822,85.27606201171875,-58.43377685546875,260.25201416015625
1700074787,1.161773681640625,0.2719879150390625,-1.138641357421875,1.8753663301467896,-4.141026496887207,-0.4718266427516937,85.07366943359375,-58.49458312988281,260.199951171875
1700074787,1.1983642578125,0.357940673828125,-1.0713043212890625,2.2117760181427,-3.879130363464356,-0.4869448840618133,85.09048461914062,-58.47698974609375,259.86737060546875
1700074787,1.197052001953125,0.332611083984375,-1.0631103515625,2.481337547302246,-3.577185869216919,-0.4485085606575012,85.14178466796875,-58.596771240234375,259.6537475585937
1700074787,1.14215087890625,0.2373046875,-1.0483551025390625,2.6158504486083984,-3.2735328674316406,-0.3880044519901275,84.87490844726562,-58.52323913574219,259.9378662109375
1700074787,1.0433349609375,0.135162353515625,-1.024139404296875,2.6406404972076416,-3.021290779113769,-0.378143846988678,84.79957580566406,-58.85371398925781,259.07623291015625
1700074787,0.934051513671875,0.0434722900390625,-0.933624267578125,2.500408887863159,-2.7877514362335205,-0.3827961087226867,84.55557250976562,-58.65914916992188,258.73785400390625
1700074787,0.8674468994140625,0.0001068115234375,-0.8275299072265625,2.3012852668762207,-2.5812084674835205,-0.3868731558322906,84.6246337890625,-58.71864318847656,258.74151611328125
1700074787,0.8899383544921875,-0.03900146484375,-0.737518310546875,2.0960898399353027,-2.374443769454956,-0.3670776188373565,84.36575317382812,-58.58457946777344,258.0846862792969
1700074787,0.9210968017578124,-0.046630859375,-0.6587982177734375,1.9085469245910645,-2.187849998474121,-0.3771475553512573,83.80906677246094,-58.79545593261719,257.60504150390625
1700074787,0.9169921875,-0.0272674560546875,-0.6026458740234375,1.8607593774795528,-1.985899806022644,-0.3870662152767181,83.96199035644531,-58.93675231933594,257.3563232421875
1700074787,0.8982086181640625,0.0336456298828125,-0.551971435546875,1.9612817764282229,-1.7665899991989136,-0.3872739672660827,83.99189758300781,-58.98320007324219,257.18719482421875
1700074787,0.875946044921875,0.1129608154296875,-0.48712158203125,2.103247165679932,-1.5383156538009644,-0.3811809122562408,83.76429748535156,-59.37152099609375,256.5758361816406
1700074787,0.8474884033203125,0.1735076904296875,-0.4312286376953125,2.229214906692505,-1.3047678470611572,-0.359316885471344,83.07115173339844,-59.13951110839844,256.56207275390625
1700074787,0.82928466796875,0.1853790283203125,-0.388519287109375,2.271308183670044,-1.0557273626327517,-0.3328498601913452,82.95487976074219,-59.755218505859375,256.0638427734375
1700074787,0.8350372314453125,0.1443634033203125,-0.3734130859375,2.2034475803375244,-0.8237740397453308,-0.3143632709980011,82.79740905761719,-59.12507629394531,255.43209838867188
1700074787,0.8279266357421875,0.0743255615234375,-0.3608245849609375,2.0302679538726807,-0.6117550134658813,-0.2629882097244262,82.39384460449219,-59.339630126953125,254.84527587890625
1700074787,0.795867919921875,-0.00018310546875,-0.322662353515625,1.799053192138672,-0.405188500881195,-0.1751755475997924,82.3592529296875,-59.065277099609375,254.3255920410156
1700074787,0.7707061767578125,-0.060638427734375,-0.2763519287109375,1.583341360092163,-0.2374871224164962,-0.0545111782848835,82.01817321777344,-59.76507568359375,254.33135986328125
1700074787,0.7484283447265625,-0.0771942138671875,-0.232269287109375,1.3731147050857544,-0.0797438323497772,0.0309062507003545,81.82249450683594,-59.35279846191406,253.38699340820312
1700074787,0.741790771484375,-0.0767974853515625,-0.176361083984375,1.2045527696609497,0.0107770143076777,0.0529380477964878,81.41950988769531,-59.55455017089844,253.1341552734375
1700074787,0.7545166015625,-0.04638671875,-0.056793212890625,1.1505231857299805,0.0503430664539337,0.0564233288168907,81.0845947265625,-59.62716674804688,252.6912078857422
1700074788,0.7621307373046875,0.024627685546875,0.0503387451171875,1.2493157386779783,0.1251360774040222,-0.0011872372124344,80.56654357910156,-59.387237548828125,252.0650177001953
1700074788,0.762359619140625,0.0362091064453125,-0.015350341796875,1.5254405736923218,0.2577623128890991,-0.1335348933935165,80.14137268066406,-59.124267578125,251.4490966796875
1700074788,0.769989013671875,-0.082244873046875,-0.144989013671875,1.887723684310913,0.3688041269779205,-0.303875207901001,79.54655456542969,-59.41314697265625,250.85743713378903
1700074788,0.78167724609375,-0.223114013671875,-0.189453125,2.0361270904541016,0.7317889928817749,-0.519877016544342,78.93850708007812,-59.827880859375,250.09646606445312
1700074788,0.8381195068359375,-0.3658447265625,-0.44122314453125,1.7382481098175049,1.161653757095337,-1.26790189743042,78.46076965332031,-59.59007263183594,249.3378143310547
1700074788,0.8215789794921875,-0.831817626953125,-1.051483154296875,1.279633402824402,1.9455862045288088,-2.079352378845215,77.66902160644531,-58.96669006347656,248.4587554931641
1700074788,0.6954193115234375,-1.367645263671875,-1.543853759765625,0.8247463703155518,2.5309393405914307,-3.044759511947632,77.32139587402344,-59.21502685546875,247.3310546875
1700074788,0.6396636962890625,-2.2855224609375,-2.2867889404296875,2.594961166381836,2.122775077819824,-0.6029420495033264,76.65170288085938,-58.93763732910156,247.098373413086
1700074788,1.4757537841796875,-2.6690216064453125,1.785552978515625,-1.0180587768554688,1.7798256874084473,2.255244493484497,76.52734375,-59.250335693359375,246.3886566162109
1700074788,1.4991607666015625,-0.5712738037109375,0.4177703857421875,-3.018975257873535,1.8212757110595703,1.513857364654541,75.46981811523438,-59.094818115234375,245.7259063720703
1700074788,1.886749267578125,0.0676116943359375,0.091217041015625,-3.3296566009521484,1.974193334579468,0.0844826623797416,75.2005615234375,-59.036376953125,244.86819458007807
1700074788,1.718841552734375,0.343017578125,0.193450927734375,-2.9205660820007324,2.222440719604492,0.0136487009003758,74.89952087402344,-58.83061218261719,244.6364288330078
1700074788,1.012969970703125,1.379913330078125,-0.4565887451171875,-2.4484872817993164,2.132160425186157,0.5977451801300049,74.28701782226562,-58.68804931640625,243.4511108398437
1700074788,0.87518310546875,1.9322509765625,-0.5644073486328125,-1.430324912071228,1.8186005353927608,0.0132899731397628,74.28733825683594,-58.87605285644531,243.55381774902344
1700074788,1.5142059326171875,1.146514892578125,0.012969970703125,-0.8441783785820007,1.4002376794815063,-0.5646202564239502,73.88479614257812,-59.21600341796875,242.85696411132807
1700074788,1.6243133544921875,0.127777099609375,-0.0394439697265625,-0.3314777910709381,1.146415948867798,-0.6534464955329895,73.83799743652344,-59.21485900878906,242.48497009277344
1700074788,1.3900604248046875,-0.532318115234375,-0.0419464111328125,0.6664161086082458,1.0091465711593628,-0.3367418050765991,73.76582336425781,-60.00904846191406,242.3488311767578
1700074788,1.347625732421875,-0.8778533935546875,0.1461639404296875,1.2502059936523438,1.0068674087524414,0.2351379543542862,73.96536254882812,-60.28707885742188,242.1764678955078
1700074788,1.4701080322265625,-0.516265869140625,0.109466552734375,0.5332093238830566,1.1682595014572144,0.5184894800186157,74.15118408203125,-60.47515869140625,242.04202270507807
1700074788,2.1936492919921875,0.0608062744140625,-0.2064971923828125,-0.6086446642875671,1.3688563108444214,0.2373025715351104,74.23599243164062,-60.824005126953125,242.37794494628903
1700074788,2.4181671142578125,0.5568084716796875,-0.7607421875,-0.7255457639694214,1.3530889749526978,-0.2705212235450744,74.71839904785156,-60.975433349609375,242.31741333007807
1700074788,1.6814727783203125,0.5808258056640625,-0.6351165771484375,0.0144580351188778,1.2101651430130005,-0.5261993408203125,75.22526550292969,-61.20695495605469,242.22879028320312
1700074788,0.9119720458984376,0.17828369140625,-0.12640380859375,0.6135531663894653,0.9639425873756408,-0.4944712519645691,75.98379516601562,-61.54057312011719,242.69239807128903
1700074788,0.488983154296875,-0.2681732177734375,-0.183929443359375,1.078462839126587,0.7484254837036133,-0.2885926365852356,76.22004699707031,-61.77873229980469,243.5365753173828
1700074788,0.4441070556640625,-0.5428924560546875,-0.288543701171875,1.2718559503555298,0.5712581872940063,-0.1233506947755813,76.80963134765625,-61.78096008300781,244.28663635253903
1700074788,0.705902099609375,-0.5016021728515625,-0.4288330078125,1.2445846796035769,0.4616496562957763,-0.045221272855997,77.69216918945312,-61.83168029785156,244.880615234375
1700074788,0.96343994140625,-0.29364013671875,-0.49896240234375,1.0179622173309326,0.3731810450553894,-0.0296795982867479,78.29808044433594,-62.57366943359375,245.4224548339844
1700074788,1.0438690185546875,-0.1674041748046875,-0.492340087890625,0.7967016696929932,0.3016929924488067,-0.0575969852507114,79.16436767578125,-62.48698425292969,245.77261352539065
1700074788,1.0637969970703125,-0.2208099365234375,-0.4337158203125,0.65206378698349,0.1913952678442001,-0.063378170132637,80.03079223632812,-62.49555969238281,246.99417114257807
1700074788,1.041534423828125,-0.317718505859375,-0.29278564453125,0.2469927370548248,0.0928279384970665,-0.0095937717705965,80.85488891601562,-62.42791748046875,247.7094116210937
1700074788,1.0095977783203125,-0.3090972900390625,-0.3481292724609375,-0.0641108080744743,0.0272835530340671,0.0414054952561855,81.13352966308594,-62.87579345703125,249.1387176513672
1700074788,0.98431396484375,-0.316314697265625,-0.4010772705078125,-0.2230027168989181,-0.0258193463087081,0.10782952606678,81.93000793457031,-62.98225402832031,249.9278259277344
1700074788,0.955810546875,-0.3123779296875,-0.3763275146484375,-0.3128492534160614,-0.0584324188530445,0.1396135538816452,82.51054382324219,-62.854766845703125,251.1341857910156
1700074788,0.938934326171875,-0.26385498046875,-0.3589630126953125,-0.2348505854606628,-0.0634111985564231,0.1268295794725418,82.94041442871094,-63.3770751953125,251.8196716308593
1700074788,0.919677734375,-0.203369140625,-0.31060791015625,-0.0009712548344396,-0.0578822083771228,0.0822362825274467,83.5313720703125,-63.35374450683594,252.86380004882807
1700074788,0.9146575927734376,-0.125762939453125,-0.25103759765625,0.3028429448604584,-0.0439818389713764,0.0196139141917228,83.66954040527344,-63.8843994140625,253.4189910888672
1700074788,0.919708251953125,-0.0694427490234375,-0.21893310546875,0.574345588684082,-0.0221982467919588,-0.0457384586334228,84.24711608886719,-63.49313354492188,254.37098693847656
1700074788,0.93280029296875,-0.074981689453125,-0.212005615234375,0.72542804479599,0.0145919919013977,-0.0873506143689155,84.34077453613281,-63.778594970703125,255.6628570556641
1700074788,0.9490966796875,-0.1222076416015625,-0.2375640869140625,0.704654335975647,0.03585946559906,-0.1011449918150901,84.65158081054688,-63.481689453125,256.49566650390625
1700074788,0.9678497314453124,-0.1824188232421875,-0.267791748046875,0.5762537121772766,0.0631470084190368,-0.0961957722902298,84.71066284179688,-63.90538024902344,257.3782653808594
1700074788,0.97137451171875,-0.2264556884765625,-0.274139404296875,0.4797402322292328,0.0880555585026741,-0.0640221238136291,85.54843139648438,-63.662506103515625,258.4193115234375
1700074788,0.9423675537109376,-0.2360687255859375,-0.26934814453125,0.411099910736084,0.1108245179057121,-0.0420678257942199,85.60087585449219,-63.85748291015625,259.63775634765625
1700074788,0.924896240234375,-0.2448272705078125,-0.2766876220703125,0.4260887205600738,0.1387799829244613,-0.0213638786226511,85.94186401367188,-63.98014831542969,259.9262084960937
1700074788,0.9022674560546876,-0.2342376708984375,-0.2612762451171875,0.4568759202957153,0.17160265147686,-0.0233673732727766,85.73945617675781,-63.843017578125,260.2557067871094
1700074788,0.8877716064453125,-0.2187957763671875,-0.265655517578125,0.4381464421749115,0.1988992542028427,-0.0271168388426303,85.90034484863281,-64.05708312988281,261.6634521484375
1700074788,0.884979248046875,-0.2093505859375,-0.2639007568359375,0.3666986227035522,0.2244610637426376,-0.0205851700156927,85.79747009277344,-64.18302917480469,262.9305419921875
1700074788,0.894195556640625,-0.2235260009765625,-0.2684173583984375,0.2562120854854584,0.2551745176315307,-0.0081641869619488,85.87919616699219,-64.21322631835938,263.11553955078125
1700074788,0.9002532958984375,-0.2255859375,-0.309051513671875,0.1721446067094802,0.2868586778640747,0.0060219396837055,85.86672973632812,-64.68106079101562,263.6078491210937
1700074788,0.9151611328125,-0.2075653076171875,-0.327056884765625,0.151375412940979,0.3186216652393341,-0.0076264943927526,86.06906127929688,-64.61164855957031,264.2982788085937
1700074788,0.942901611328125,-0.16845703125,-0.2934722900390625,0.161552682518959,0.3597531020641327,-0.0405841767787933,85.8060302734375,-64.61347961425781,264.84234619140625
1700074788,0.9378662109375,-0.129669189453125,-0.274658203125,0.2209169268608093,0.4062777459621429,-0.058208979666233,86.11766052246094,-65.13070678710938,264.23419189453125
1700074788,0.9278106689453124,-0.132232666015625,-0.256591796875,0.2895713746547699,0.4445963501930237,-0.0773288756608963,85.61134338378906,-65.37669372558594,264.9714660644531
1700074788,0.9351654052734376,-0.175628662109375,-0.254180908203125,0.3459568619728088,0.4677874445915222,-0.0757086127996444,85.6151123046875,-65.74839782714844,264.99713134765625
1700074788,0.938873291015625,-0.205657958984375,-0.2829742431640625,0.401982843875885,0.4842415153980255,-0.0740744918584823,85.57427978515625,-65.86677551269531,264.92022705078125
1700074788,0.9355010986328124,-0.20489501953125,-0.3203582763671875,0.4302440583705902,0.4971146881580353,-0.0707279667258262,85.21124267578125,-66.0185546875,265.2790832519531
1700074788,0.9336395263671876,-0.181640625,-0.335418701171875,0.4042617380619049,0.517419159412384,-0.0731445178389549,84.68252563476562,-66.07705688476562,264.8646850585937
1700074788,0.9298248291015624,-0.15972900390625,-0.3551483154296875,0.3817026317119598,0.5257425904273987,-0.0714084059000015,85.03996276855469,-65.87184143066406,264.76959228515625
1700074788,0.9254608154296876,-0.15576171875,-0.36041259765625,0.3548379838466644,0.5397564172744751,-0.0604715980589389,84.61434936523438,-66.28675842285156,264.5023803710937
1700074788,0.9401397705078124,-0.180694580078125,-0.3595123291015625,0.3454519510269165,0.541330873966217,-0.0578609034419059,83.98492431640625,-66.64006042480469,264.4224853515625
1700074788,0.9573211669921876,-0.215179443359375,-0.355224609375,0.3892172574996948,0.536095142364502,-0.0601088777184486,84.18214416503906,-66.5318603515625,264.7019958496094
1700074788,0.95245361328125,-0.22479248046875,-0.36041259765625,0.4601753354072571,0.5361595749855042,-0.0659880712628364,84.05815124511719,-66.46832275390625,264.2049255371094
1700074788,0.9453125,-0.1957550048828125,-0.3674468994140625,0.5356985926628113,0.543563961982727,-0.0704976022243499,83.93048095703125,-66.80500793457031,264.4935302734375
1700074788,0.9443511962890624,-0.1583099365234375,-0.3732147216796875,0.6026248931884766,0.5566235780715942,-0.0834666639566421,83.78330993652344,-67.08621215820312,263.3680419921875
1700074788,0.948577880859375,-0.1501617431640625,-0.367340087890625,0.6826283931732178,0.5793770551681519,-0.0970045775175094,83.17575073242188,-67.45401000976562,263.3563232421875
1700074788,0.9477996826171876,-0.161102294921875,-0.3577728271484375,0.7134795188903809,0.6100159287452698,-0.095605619251728,82.58021545410156,-67.70930480957031,262.8695678710937
1700074788,0.9424285888671876,-0.1728668212890625,-0.3548126220703125,0.7462393045425415,0.6473401784896851,-0.0942980051040649,82.21356201171875,-68.17414855957031,261.59112548828125
1700074788,0.94329833984375,-0.2135772705078125,-0.3465118408203125,0.7661302089691162,0.6955393552780151,-0.0574430525302886,81.370849609375,-68.55984497070312,261.030517578125
1700074788,0.926239013671875,-0.214447021484375,-0.3774566650390625,0.7486523985862732,0.7450920343399048,-0.0017880463274195,81.25978088378906,-68.28395080566406,260.8636474609375
1700074788,0.9433746337890624,-0.15863037109375,-0.39215087890625,0.719367504119873,0.7945793867111206,-0.0107932593673467,80.55772399902344,-68.15278625488281,259.8161315917969
1700074788,0.994598388671875,-0.1230621337890625,-0.37603759765625,0.7622523307800293,0.8557000160217285,-0.0216179434210062,79.76278686523438,-67.83856201171875,258.80828857421875
1700074788,0.998138427734375,-0.1157989501953125,-0.3717803955078125,0.8320609927177429,0.9292812943458556,-0.0267549157142639,79.35047912597656,-67.79133605957031,257.93505859375
1700074788,1.0070343017578125,-0.109832763671875,-0.3658447265625,0.9031774997711182,1.0103391408920288,-0.0308974627405405,78.88388061523438,-67.97564697265625,257.4546813964844
1700074788,1.035369873046875,-0.08563232421875,-0.35467529296875,0.9388526678085328,1.11150324344635,-0.0406004227697849,78.38749694824219,-68.16172790527344,256.9493103027344
1700074788,1.069061279296875,-0.0675811767578125,-0.3421173095703125,0.9515953660011292,1.215118408203125,-0.0246851071715354,78.03239440917969,-68.46127319335938,256.21551513671875
1700074788,1.1110076904296875,-0.073760986328125,-0.3392791748046875,0.9391586780548096,1.3239761590957642,-0.0041958102956414,77.55535888671875,-68.58000183105469,256.13690185546875
1700074788,1.1750335693359375,-0.09686279296875,-0.3419952392578125,0.895417332649231,1.4324253797531128,-0.0065255435183644,77.09481811523438,-68.94694519042969,255.39439392089844
1700074788,1.23583984375,-0.09234619140625,-0.331085205078125,0.8687734603881836,1.559566617012024,-0.0291027575731277,76.80455017089844,-68.725830078125,255.60757446289065
1700074788,1.272552490234375,-0.0365753173828125,-0.31427001953125,0.8844094276428223,1.6997129917144775,-0.0439767800271511,76.35075378417969,-68.28700256347656,255.1655731201172
1700074788,1.3212432861328125,0.0264434814453125,-0.270233154296875,0.9091989398002625,1.827520489692688,-0.0762228667736053,76.2725830078125,-68.2099609375,254.77935791015625
1700074788,1.397705078125,0.0585479736328125,-0.202545166015625,0.8510839343070984,1.9303991794586184,-0.1260548681020736,75.94580078125,-68.45176696777344,254.23629760742188
1700074788,1.4774017333984375,0.094451904296875,-0.1448211669921875,0.7858985662460327,2.020158290863037,-0.214570090174675,76.07048034667969,-68.80068969726562,255.0702362060547
1700074788,1.53839111328125,0.120941162109375,-0.094879150390625,0.7769652605056763,2.08573317527771,-0.3151025474071502,76.2132568359375,-68.87776184082031,254.54376220703125
1700074788,1.5780029296875,0.1341094970703125,-0.0411376953125,0.8371098041534424,2.1091883182525635,-0.3953558504581451,75.92329406738281,-68.90939331054688,254.4658203125
1700074788,1.6053314208984375,0.1653900146484375,0.008392333984375,1.023322582244873,2.130575895309448,-0.4723070859909057,75.94480895996094,-68.83729553222656,253.5689849853516
1700074788,1.605621337890625,0.1945953369140625,0.045166015625,1.3792144060134888,2.1697821617126465,-0.5839089751243591,75.44548034667969,-68.41311645507812,253.2620391845703
1700074788,1.5490875244140625,0.169525146484375,0.0228729248046875,1.8075684309005733,2.181272029876709,-0.7274211645126343,75.67044067382812,-68.46231079101562,253.8877868652344
1700074788,1.4884796142578125,0.0648040771484375,-0.0308074951171875,2.112941026687622,2.1137242317199707,-0.9181660413742064,75.69129943847656,-68.26710510253906,253.2834014892578
1700074788,1.3849639892578125,-0.1331329345703125,-0.2433929443359375,2.287691116333008,2.102607488632202,-1.1966983079910278,75.47938537597656,-68.31504821777344,253.6838531494141
1700074788,1.2296142578125,-0.41473388671875,-0.606048583984375,2.481297731399536,2.075725078582764,-1.3934422731399536,75.68997192382812,-68.18373107910156,253.1264495849609
1700074788,1.0148468017578125,-0.6281890869140625,-0.8180999755859375,2.6119070053100586,1.9389029741287231,-1.36284339427948,75.40933227539062,-68.16111755371094,252.98782348632807
1700074788,0.9244842529296876,-0.6455535888671875,-0.744659423828125,2.6634409427642822,1.7821722030639648,-1.281488060951233,75.72998046875,-68.16012573242188,252.71481323242188
1700074788,0.8988800048828125,-0.59210205078125,-0.709991455078125,2.762253999710083,1.5103814601898191,-1.3831685781478882,75.61781311035156,-68.05926513671875,253.0128631591797
1700074788,0.9174652099609376,-0.511962890625,-0.6096343994140625,2.8396010398864746,1.1376185417175293,-1.5946310758590698,75.89433288574219,-68.09988403320312,252.52413940429688
1700074788,0.934906005859375,-0.4055633544921875,-0.3807373046875,2.8276987075805664,0.7723601460456848,-1.837087154388428,75.9549560546875,-68.06967163085938,253.1702423095703
1700074788,0.8413238525390625,-0.3555755615234375,-0.18084716796875,2.7045037746429443,0.4100796580314636,-1.9896817207336424,75.57063293457031,-67.850341796875,253.0732421875
1700074788,0.69586181640625,-0.316986083984375,-0.0319976806640625,2.549647808074951,0.1338968127965927,-2.036750078201294,75.71832275390625,-67.96830749511719,253.28863525390625
1700074788,0.5143890380859375,-0.2393798828125,-0.06463623046875,2.368260145187378,-0.1656446307897567,-2.0844435691833496,76.12921142578125,-67.68722534179688,253.6320953369141
1700074788,0.4400634765625,-0.1679229736328125,-0.105010986328125,2.1862590312957764,-0.5078198313713074,-2.1198596954345703,75.86982727050781,-67.92118835449219,253.66465759277344
1700074788,0.486541748046875,-0.07403564453125,-0.02783203125,1.986960768699646,-0.8247213363647461,-2.140800952911377,76.05227661132812,-67.776611328125,253.3339080810547
1700074788,0.519744873046875,0.03082275390625,-0.019622802734375,1.7583075761795044,-1.1407504081726074,-2.204663038253784,75.58940124511719,-67.7294921875,254.48416137695312
1700074789,0.5520172119140625,0.0942535400390625,-0.0897674560546875,1.5489208698272705,-1.4026368856430054,-2.291069746017456,75.98057556152344,-67.64703369140625,253.75233459472656
1700074789,0.5722503662109375,0.1161041259765625,-0.203521728515625,1.3437711000442505,-1.701870679855347,-2.368746995925904,75.7747802734375,-67.87928771972656,253.8631286621093
1700074789,0.5925445556640625,0.128082275390625,-0.264495849609375,1.1339534521102903,-2.0307517051696777,-2.4327988624572754,75.88859558105469,-67.6484375,253.67593383789065
1700074789,0.6589813232421875,0.12371826171875,-0.2647705078125,0.8776676058769226,-2.376463890075684,-2.455493450164795,76.09127807617188,-67.3310546875,253.8109436035156
1700074789,0.712127685546875,0.1272430419921875,-0.2337188720703125,0.5905452966690063,-2.709082126617432,-2.441122055053711,75.60165405273438,-67.67156982421875,253.2808532714844
1700074789,0.77294921875,0.145355224609375,-0.185791015625,0.320690393447876,-2.991863250732422,-2.386958599090576,75.47744750976562,-67.32017517089844,253.550033569336
1700074789,0.8274383544921875,0.1938934326171875,-0.157257080078125,0.1216944754123687,-3.2308554649353027,-2.306055784225464,75.61634826660156,-67.75727844238281,253.4171905517578
1700074789,0.8590545654296875,0.2642059326171875,-0.19293212890625,0.038318894803524,-3.462181568145752,-2.215175151824951,75.64901733398438,-67.23500061035156,253.6413116455078
1700074789,0.888946533203125,0.3300933837890625,-0.24224853515625,0.1393017023801803,-3.6670992374420166,-2.103854179382324,75.94013977050781,-67.23434448242188,253.7164306640625
1700074789,0.9038848876953124,0.3855438232421875,-0.271392822265625,0.4169796407222748,-3.881303787231445,-1.9881807565689087,75.59152221679688,-67.50822448730469,253.09353637695312
1700074789,0.944732666015625,0.4450836181640625,-0.25518798828125,0.7927151918411255,-4.043194770812988,-1.8775759935379028,75.79129028320312,-67.46107482910156,253.13299560546875
1700074789,0.9941864013671876,0.534088134765625,-0.2658233642578125,1.1832635402679443,-4.156318664550781,-1.7530393600463867,75.76068115234375,-66.90264892578125,253.39288330078125
1700074789,1.0327301025390625,0.62921142578125,-0.2877349853515625,1.5844300985336304,-4.243009567260742,-1.634663701057434,75.59169006347656,-67.04835510253906,253.20327758789065
1700074789,1.054840087890625,0.6645355224609375,-0.343292236328125,1.8614598512649536,-4.346386909484863,-1.519949436187744,75.54820251464844,-67.46238708496094,252.75917053222656
1700074789,1.1259918212890625,0.649444580078125,-0.3338775634765625,2.065010070800781,-4.4243035316467285,-1.4049005508422852,75.47198486328125,-67.32626342773438,252.81475830078125
1700074789,1.190338134765625,0.5957183837890625,-0.3106689453125,2.213050365447998,-4.475513458251953,-1.3259040117263794,75.40708923339844,-67.35360717773438,252.54684448242188
1700074789,1.22479248046875,0.5255279541015625,-0.370330810546875,2.398627758026123,-4.544075012207031,-1.2956047058105469,75.58892822265625,-66.86981201171875,252.6674346923828
1700074789,1.2498016357421875,0.52752685546875,-0.4766693115234375,2.669028282165528,-4.553567409515381,-1.2980235815048218,75.22285461425781,-67.34503173828125,252.2654571533203
1700074789,1.3182525634765625,0.607757568359375,-0.533966064453125,3.0183329582214355,-4.429868221282959,-1.3637968301773071,75.42863464355469,-67.32687377929688,252.64833068847656
1700074789,1.3780975341796875,0.6627197265625,-0.659881591796875,3.405311107635498,-4.279310703277588,-1.426151990890503,75.50160217285156,-67.17669677734375,252.26112365722656
1700074789,1.3823699951171875,0.6712646484375,-0.80157470703125,3.6792311668396,-4.077733039855957,-1.4586167335510254,75.40138244628906,-67.20829772949219,252.0785369873047
1700074789,1.3633880615234375,0.64404296875,-0.852386474609375,3.715999126434326,-3.826225996017456,-1.4033087491989136,75.21063232421875,-66.7659912109375,251.9070587158203
1700074789,1.30059814453125,0.608123779296875,-0.9093475341796876,3.575854539871216,-3.5391063690185547,-1.254466533660889,75.13125610351562,-67.17848205566406,251.7078094482422
1700074789,1.221466064453125,0.559234619140625,-0.9552764892578124,3.4224205017089844,-3.1763932704925537,-1.047274827957153,75.01217651367188,-66.75717163085938,251.869369506836
1700074789,1.1171875,0.5352783203125,-0.96807861328125,3.304619312286377,-2.792732954025269,-0.8638937473297119,75.177001953125,-66.9151611328125,251.34776306152344
1700074789,0.980438232421875,0.5325469970703125,-1.001617431640625,3.2396488189697266,-2.40088152885437,-0.7647759914398193,74.77198791503906,-66.60487365722656,251.57525634765625
1700074789,0.9164886474609376,0.5531005859375,-1.035369873046875,3.1876707077026367,-1.972051858901977,-0.7369818687438965,75.02403259277344,-66.82853698730469,251.55715942382807
1700074789,0.877471923828125,0.5802001953125,-1.071502685546875,3.0734972953796387,-1.5475858449935913,-0.6678771376609802,74.88362121582031,-66.51939392089844,251.90138244628903
1700074789,0.8355560302734375,0.5336456298828125,-1.121246337890625,2.7509052753448486,-1.125328779220581,-0.5039291977882385,74.90744018554688,-66.37525939941406,251.2503204345703
1700074789,0.818572998046875,0.393280029296875,-1.1371307373046875,2.212829828262329,-0.6865440011024475,-0.2728006243705749,75.05909729003906,-66.15875244140625,250.94854736328125
1700074789,0.78704833984375,0.256866455078125,-1.1725921630859375,1.641144037246704,-0.2698458731174469,-0.003728159237653,75.064453125,-66.4075927734375,251.11460876464844
1700074789,0.7503204345703125,0.173431396484375,-1.19793701171875,1.1139075756072998,0.1203546375036239,0.2398448139429092,74.62655639648438,-65.55731201171875,251.0469665527344
1700074789,0.7350616455078125,0.1841583251953125,-1.0948944091796875,0.6683226823806763,0.5201182961463928,0.2436587363481521,74.88201904296875,-66.22224426269531,250.14488220214844
1700074789,0.7633514404296875,0.1031494140625,-1.1185150146484375,0.3322543799877167,0.92381489276886,-0.0181840639561414,74.83613586425781,-65.87409973144531,250.48757934570312
1700074789,0.814788818359375,-0.2918548583984375,-1.2413787841796875,-0.190695121884346,1.0800681114196775,0.1115696728229522,74.572998046875,-66.06622314453125,250.0955047607422
1700074789,0.8892669677734375,-0.44366455078125,-0.85302734375,-0.9639111757278442,1.1677106618881226,0.1933862417936325,74.92924499511719,-65.53138732910156,249.9929962158203
1700074789,1.0087432861328125,-0.8252105712890625,-0.4936981201171875,-2.0012688636779785,1.1218047142028809,0.4660854041576385,74.63078308105469,-65.6016845703125,249.74368286132807
1700074789,0.92138671875,-1.003387451171875,-0.445892333984375,-2.469590187072754,0.9725714921951294,0.9661160111427308,74.78282165527344,-65.01408386230469,249.17446899414065
1700074789,0.841583251953125,-0.6708984375,-0.0890960693359375,-2.176487445831299,0.6687804460525513,1.0523691177368164,74.611572265625,-65.45510864257812,248.93023681640625
1700074789,1.0270843505859375,-0.1934814453125,0.3793792724609375,-1.2267944812774658,0.5873966813087463,0.5827523469924927,74.86259460449219,-65.57806396484375,248.90513610839844
