timestamp,acc-x,acc-y,acc-z,gyr-x,gyr-y,gyr-z,mag-x,mag-y,mag-z
1700075827,1.08746337890625,0.8759002685546875,-0.2408447265625,1.0477980375289917,-0.9782856106758118,-2.678561925888061,80.04031372070312,-50.983673095703125,258.2838134765625
1700075827,0.994873046875,0.737335205078125,-0.135589599609375,1.1021753549575806,-0.8698930740356445,-2.460594654083252,79.69607543945312,-50.61140441894531,258.31988525390625
1700075827,0.9639739990234376,0.6087188720703125,-0.2321014404296875,0.8561002612113953,-0.7966183423995972,-2.2184762954711914,79.43450927734375,-49.8646240234375,258.15155029296875
1700075827,0.9431610107421876,0.546905517578125,-0.386871337890625,0.5487565994262695,-0.7002587914466858,-1.889960765838623,79.26957702636719,-49.50697326660156,258.4266052246094
1700075827,0.9189300537109376,0.564300537109375,-0.476409912109375,0.3326362669467926,-0.5720486044883728,-1.5084853172302246,78.4852294921875,-48.23040771484375,258.7298583984375
1700075827,0.8812103271484375,0.621124267578125,-0.4993133544921875,0.2219182848930359,-0.4355970025062561,-1.1575860977172852,78.27346801757812,-47.79820251464844,258.5902709960937
1700075827,0.7880096435546875,0.6540679931640625,-0.4618682861328125,0.15243960916996,-0.2715862393379211,-0.8888878226280212,77.75984191894531,-47.00413513183594,258.6333312988281
1700075827,0.6724395751953125,0.6244049072265625,-0.394439697265625,0.1250282227993011,-0.0957294553518295,-0.6417528390884399,78.25921630859375,-46.34786987304688,259.621337890625
1700075827,0.6039276123046875,0.5424346923828125,-0.28057861328125,0.2419929206371307,0.0607339218258857,-0.4382266104221344,77.85643005371094,-45.22303771972656,259.22857666015625
1700075827,0.6405792236328125,0.39208984375,-0.1497955322265625,0.3646983504295349,0.1448690444231033,-0.2806580364704132,77.96292114257812,-44.717529296875,259.86016845703125
1700075827,0.7622833251953125,0.231658935546875,-0.078765869140625,0.3166525065898895,0.2681454420089721,-0.0383433923125267,77.78108215332031,-44.26182556152344,259.8709716796875
1700075827,0.8242340087890625,0.1689300537109375,-0.19610595703125,0.1275382488965988,0.411733478307724,0.2785623967647552,77.69549560546875,-43.58953857421875,260.9270935058594
1700075827,0.7714996337890625,0.1903533935546875,-0.4075927734375,-0.0682999640703201,0.4386460781097412,0.6651572585105896,78.16249084472656,-42.59681701660156,260.67938232421875
1700075827,0.656585693359375,0.265594482421875,-0.5081329345703125,-0.281570166349411,0.6789401769638062,0.933590531349182,77.8170166015625,-42.58399963378906,260.2217102050781
1700075827,0.55322265625,0.330963134765625,-0.7121429443359375,-0.2364881634712219,0.6054158806800842,1.2448192834854126,77.77651977539062,-42.5804443359375,260.3478698730469
1700075827,0.4625396728515625,0.4428863525390625,-0.4890289306640625,-0.2630726397037506,1.2489570379257202,1.4770381450653076,78.53291320800781,-42.30763244628906,261.16070556640625
1700075827,0.6432647705078125,0.5551910400390625,-0.9512786865234376,1.0289589166641235,5.434075355529785,1.8230488300323489,79.26522827148438,-42.58708190917969,260.8182373046875
1700075827,-0.2965240478515625,1.130279541015625,-4.0629730224609375,0.8876054883003235,0.0310367457568645,3.246102094650269,79.60855102539062,-42.60310363769531,260.7755126953125
1700075827,1.46746826171875,2.0600128173828125,0.0180206298828125,-0.7566772699356079,-1.9917888641357424,2.000922203063965,80.38194274902344,-42.73143005371094,260.7876892089844
1700075827,4.5567474365234375,-0.4403839111328125,0.9606475830078124,0.8625693917274475,1.4529850482940674,-0.0591906197369098,80.78341674804688,-43.51371765136719,260.17535400390625
1700075827,2.635833740234375,-2.11773681640625,0.3958892822265625,1.757670283317566,2.2540383338928223,-0.4900272190570831,81.26632690429688,-43.78062438964844,258.63677978515625
1700075827,1.216888427734375,-1.3442535400390625,1.3254547119140625,0.498026043176651,1.6027462482452393,0.2124432921409607,82.21437072753906,-44.22212219238281,257.9281616210937
1700075827,0.613128662109375,-0.3916168212890625,-0.06414794921875,-0.8958407640457153,0.773405134677887,1.0059279203414917,83.01885986328125,-45.158966064453125,257.06396484375
1700075827,0.5507049560546875,-0.371856689453125,-0.43017578125,-0.7952311038970947,0.5612135529518127,1.2362090349197388,84.05690002441406,-45.80635070800781,256.44683837890625
1700075827,1.11474609375,-0.743865966796875,-0.0309600830078125,-0.8453125953674316,0.7142512798309326,1.6155132055282593,84.91053771972656,-46.70744323730469,256.4991455078125
1700075827,1.6831817626953125,-0.4700927734375,0.120697021484375,-1.514089584350586,0.885028600692749,2.303511619567871,85.96369934082031,-47.685821533203125,256.4131774902344
1700075827,1.8252105712890625,0.2218780517578125,-0.033447265625,-1.6570992469787598,0.6771758198738098,2.707194805145264,87.29621887207031,-48.61830139160156,255.82020568847656
1700075827,1.5557098388671875,0.574462890625,-0.10882568359375,-1.311001539230347,-0.0898593142628669,1.9676527976989744,88.759033203125,-49.82623291015625,256.24981689453125
1700075827,1.3528289794921875,0.524017333984375,-0.10296630859375,-1.316352367401123,0.2035129070281982,1.0270787477493286,90.01658630371094,-50.97889709472656,256.5934143066406
1700075827,1.9927520751953125,0.3636474609375,-0.0289306640625,0.035756666213274,1.0389084815979004,0.5454885959625244,91.1848602294922,-52.218841552734375,256.38818359375
1700075827,2.6737060546875,-0.0380706787109375,0.3972320556640625,0.6748213171958923,1.295440673828125,1.199718356132507,92.54867553710938,-53.48573303222656,256.35894775390625
1700075827,2.0199737548828125,0.428741455078125,-0.1165771484375,0.6790099143981934,0.6423168778419495,1.5682662725448608,93.62098693847656,-55.180023193359375,257.24432373046875
1700075827,0.9885406494140624,0.5430908203125,-0.6553802490234375,0.3736665248870849,-0.1084074303507804,1.06128191947937,94.5948486328125,-56.53633117675781,256.3309936523437
1700075827,0.6344146728515625,0.3359222412109375,-0.979095458984375,-0.0791435539722442,-0.5119530558586121,0.5120752453804016,95.76010131835938,-57.52276611328125,256.27362060546875
1700075827,0.59832763671875,0.40753173828125,-0.76983642578125,0.1488568484783172,-0.3794730305671692,0.3088321387767792,96.41323852539062,-59.30461120605469,256.5619506835937
1700075827,0.7554779052734375,0.4786224365234375,-0.194976806640625,0.3765504658222198,-0.1291342824697494,0.1848255097866058,97.7039031982422,-60.80101013183594,256.8318786621094
1700075827,0.8232269287109375,0.342193603515625,-0.103973388671875,0.2241622656583786,-0.1281387954950332,0.090106725692749,98.76390075683594,-62.598236083984375,256.7833557128906
1700075827,0.8858642578125,0.289703369140625,-0.3564605712890625,0.114139087498188,-0.2303796708583831,0.029226329177618,99.16598510742188,-64.13119506835938,256.42047119140625
1700075828,1.01318359375,0.2314910888671875,-0.4098968505859375,0.0555950850248336,-0.2583527266979217,0.0466002598404884,100.11427307128906,-65.90304565429688,255.9224090576172
1700075828,1.063262939453125,0.0954742431640625,-0.3074493408203125,-0.0162996109575033,-0.1640131771564483,0.149991899728775,100.43280029296876,-67.79692077636719,256.3437194824219
1700075828,1.045318603515625,0.0048980712890625,-0.2209014892578125,-0.0608835890889167,-0.0577719546854496,0.2954649329185486,100.93153381347656,-69.03343200683594,255.9135284423828
1700075828,1.0043792724609375,-0.0391082763671875,-0.218231201171875,-0.0273677092045545,0.0037904770579189,0.4292736053466797,101.24815368652344,-70.40609741210938,255.45542907714844
1700075828,0.95318603515625,-0.0528564453125,-0.2693939208984375,0.0725450366735458,0.0215811915695667,0.5674458742141724,101.5952606201172,-71.34858703613281,254.75831604003903
1700075828,0.874176025390625,-0.006622314453125,-0.3238372802734375,0.1144011467695236,0.0135704036802053,0.6330176591873169,101.83039855957033,-72.79994201660156,254.3303680419922
1700075828,0.8150482177734375,0.0738525390625,-0.351531982421875,0.1807223707437515,0.0136215360835194,0.6110905408859253,101.7687530517578,-73.02345275878906,253.83514404296875
1700075828,0.7789764404296875,0.165924072265625,-0.3430633544921875,0.3125118315219879,0.029935261234641,0.5648940205574036,101.87200927734376,-73.51673889160156,253.3070831298828
1700075828,0.7970123291015625,0.2411651611328125,-0.2901763916015625,0.4563534259796142,0.0805923119187355,0.5558427572250366,101.84832763671876,-73.81253051757812,253.490951538086
1700075828,0.8644256591796875,0.2699737548828125,-0.2234649658203125,0.5419746041297913,0.1626155376434326,0.5942412614822388,102.109375,-74.27473449707031,252.59585571289065
1700075828,0.9161834716796876,0.2177886962890625,-0.1975250244140625,0.5954670906066895,0.2436246424913406,0.7142283916473389,102.27796936035156,-74.43598937988281,252.6230926513672
1700075828,0.9246978759765624,0.1224365234375,-0.1914825439453125,0.5840435028076172,0.3328573107719421,0.8989313840866089,102.32496643066406,-73.99137878417969,252.8384704589844
1700075828,0.917999267578125,0.015533447265625,-0.2089385986328125,0.5189099907875061,0.4535895884037018,1.069669246673584,102.14767456054688,-74.00634765625,252.39425659179688
1700075828,0.958740234375,-0.1148681640625,-0.192230224609375,0.4059112966060638,0.5595312118530273,1.3299983739852903,102.29850769042967,-73.39347839355469,252.401107788086
1700075828,0.9538726806640624,-0.2048187255859375,-0.2114410400390625,0.3012655675411224,0.6099008917808533,1.6407769918441772,102.25376892089844,-73.0238037109375,252.8399353027344
1700075828,0.878082275390625,-0.20965576171875,-0.3762664794921875,0.3426364362239837,0.5827031135559082,1.9130470752716064,102.72622680664062,-72.50685119628906,253.1412811279297
1700075828,0.7883453369140625,-0.118438720703125,-0.471435546875,0.4488523602485657,0.5641651153564453,2.027651786804199,102.65290832519533,-72.77273559570312,252.3355865478516
1700075828,0.72161865234375,0.1322479248046875,-0.4068450927734375,0.4829168617725372,0.5983965992927551,1.947642683982849,103.03109741210938,-73.17298889160156,252.48956298828125
1700075828,0.7354736328125,0.4726715087890625,-0.25994873046875,0.5564776062965393,0.7351043820381165,1.783378839492798,103.05775451660156,-73.07321166992188,252.3930511474609
1700075828,0.87615966796875,0.6986846923828125,-0.12445068359375,0.8618332743644714,0.8243535161018372,1.6993188858032229,102.9236297607422,-72.91204833984375,252.8850555419922
1700075828,1.098663330078125,0.652618408203125,-0.1026153564453125,1.111796498298645,0.7937349081039429,1.8045982122421265,103.12890625,-72.18716430664062,252.4410552978516
1700075828,1.1878814697265625,0.4056243896484375,-0.2300872802734375,1.00471293926239,0.7380977272987366,1.977208495140076,102.86643981933594,-71.05740356445312,252.4647827148437
1700075828,1.0072174072265625,0.1393280029296875,-0.4244842529296875,0.7912610769271851,0.7569326758384705,2.135316133499145,103.37132263183594,-71.07412719726562,252.220443725586
1700075828,0.78778076171875,0.030426025390625,-0.5752105712890625,0.7488670349121094,0.7522660493850708,2.390491008758545,103.08888244628906,-70.64408874511719,252.0369110107422
1700075828,0.7492828369140625,0.1392822265625,-0.497772216796875,0.8297656178474426,0.8516448140144348,2.423548698425293,102.94656372070312,-70.51901245117188,251.8025360107422
1700075828,0.9201202392578124,0.3006134033203125,-0.3912506103515625,0.8762625455856323,0.8625994920730591,2.391134262084961,103.25651550292967,-70.13932800292969,252.15252685546875
1700075828,1.0081634521484375,0.582489013671875,-0.3338165283203125,0.9715222120285034,0.8646810054779053,2.3376286029815674,103.35914611816406,-69.92922973632812,251.7148895263672
1700075828,1.079559326171875,0.6611480712890625,-0.2916259765625,0.9833967089653016,0.8267879486083984,2.315941572189331,103.16163635253906,-69.68348693847656,251.1825561523437
1700075828,1.0435028076171875,0.559417724609375,-0.3182220458984375,0.9084785580635072,0.791103184223175,2.386735439300537,103.14157104492188,-69.21688842773438,251.83572387695312
1700075828,0.870635986328125,0.4814605712890625,-0.4556884765625,0.8921802639961243,0.7858676910400391,2.4534354209899902,102.9839324951172,-69.00820922851562,251.7544860839844
1700075828,0.88507080078125,0.5013427734375,-0.5135345458984375,0.9137707948684692,0.7406061887741089,2.466474294662476,103.34561157226562,-68.82545471191406,251.5326232910156
1700075828,1.26702880859375,0.642425537109375,-0.53167724609375,0.9877049326896667,0.6163585186004639,2.495269298553467,103.60231018066406,-68.22602844238281,250.6481170654297
1700075828,1.6368255615234375,0.662628173828125,-0.478424072265625,1.0169017314910889,0.5115026831626892,2.5835208892822266,103.26499938964844,-67.97883605957031,251.14540100097656
1700075828,1.762481689453125,0.4903106689453125,-0.3984222412109375,0.9077576398849488,0.3666507005691528,2.707620143890381,103.38626098632812,-67.682861328125,250.81591796875
1700075828,1.9103851318359373,0.352264404296875,-0.4423065185546875,0.8184911012649536,0.1731526106595993,2.8239235877990723,103.38095092773438,-67.62303161621094,251.04302978515625
1700075828,2.03045654296875,0.285736083984375,-0.48321533203125,0.6640307307243347,-0.0032256206031888,2.8609840869903564,103.6295928955078,-67.40245056152344,251.6212310791016
1700075828,2.0800018310546875,0.2351226806640625,-0.4977874755859375,0.357187956571579,-0.1750815361738205,2.7851810455322266,103.33193969726562,-67.28045654296875,251.25534057617188
1700075828,1.9902496337890625,0.1773834228515625,-0.54876708984375,0.0615147612988948,-0.3332184553146362,2.678370714187622,103.6589813232422,-67.12474060058594,251.25021362304688
1700075828,1.65167236328125,0.1524810791015625,-0.627655029296875,-0.1958880126476287,-0.4204830527305603,2.3469221591949463,103.15956115722656,-66.9833984375,251.3235778808593
1700075828,1.22882080078125,0.0264739990234375,-0.6106719970703125,-0.3842837512493133,-0.245034247636795,1.8034290075302124,103.30242919921876,-66.86666870117188,251.5913543701172
1700075828,0.78375244140625,-0.1571044921875,-0.570037841796875,-0.6790610551834106,-0.195999339222908,1.4016594886779783,103.6306610107422,-66.55329895019531,251.2895965576172
1700075828,0.261505126953125,-0.166229248046875,-0.5064849853515625,-1.0477451086044312,-0.2230967283248901,1.009270191192627,103.48118591308594,-66.66720581054688,251.4009704589844
1700075828,-0.2493438720703125,-0.153656005859375,-0.3267364501953125,-0.823610246181488,-0.3189420402050018,0.4065091609954834,103.33064270019533,-66.55929565429688,251.3737945556641
1700075828,-0.6440277099609375,-0.2244873046875,0.12774658203125,-0.4819226861000061,-0.5954194068908691,-0.4568772614002228,103.24282836914062,-66.60581970214844,252.20233154296875
1700075828,-0.757659912109375,-0.1797943115234375,0.3270111083984375,-0.4078892171382904,-0.8019286394119263,-1.2928643226623535,103.5174560546875,-66.60305786132812,251.85504150390625
1700075828,-0.4301300048828125,-0.1307373046875,0.039947509765625,-0.2834133207798004,-1.0033073425292969,-2.0928072929382324,103.77166748046876,-65.99971008300781,252.0261383056641
1700075828,0.0770416259765625,-0.439483642578125,-0.072296142578125,-0.0764428451657295,-1.0512738227844238,-2.810222864151001,103.24810791015624,-66.22332763671875,252.38064575195312
1700075828,0.278350830078125,-0.7577362060546875,0.0496826171875,0.185409277677536,-1.0321831703186035,-3.252878904342652,103.41937255859376,-66.10842895507812,252.17144775390625
1700075828,0.254547119140625,-0.7390289306640625,0.046905517578125,0.2211472988128662,-1.019356608390808,-3.353276014328003,103.22848510742188,-65.87785339355469,252.7286376953125
1700075828,0.2344512939453125,-0.4135284423828125,-0.08380126953125,0.1167130321264267,-0.9650099873542786,-3.6053993701934814,103.21401977539062,-65.88421630859375,252.3679351806641
1700075828,0.3424072265625,-0.2838897705078125,-0.14166259765625,-0.010889665223658,-0.843558132648468,-3.935854434967041,103.57334899902344,-66.17945861816406,252.95474243164065
1700075828,0.4249725341796875,-0.2154541015625,-0.1708831787109375,-0.00281442864798,-0.751883864402771,-4.231709957122803,103.94561767578124,-65.76333618164062,253.1163024902344
1700075828,0.5150604248046875,-0.133392333984375,-0.24786376953125,0.1497047990560531,-0.6897349953651428,-4.41701078414917,103.91413879394533,-65.90931701660156,253.2873992919922
1700075828,0.6092681884765625,0.000762939453125,-0.3539276123046875,0.3723980784416199,-0.6386209726333618,-4.529666423797607,103.6372528076172,-65.71357727050781,253.0928497314453
1700075828,0.6722869873046875,0.1939849853515625,-0.4134979248046875,0.3430146276950836,-0.6555128693580627,-4.622128009796143,103.4167022705078,-65.785400390625,253.6193084716797
1700075828,0.845794677734375,0.4103546142578125,-0.341644287109375,0.0534405894577503,-0.8689188957214355,-4.736935138702393,103.61044311523438,-65.34115600585938,253.7524261474609
1700075828,1.0995330810546875,0.6109161376953125,-0.041168212890625,-0.3428689241409302,-0.9668079018592834,-4.909207344055176,103.67738342285156,-65.79667663574219,253.9469757080078
1700075828,1.3054962158203125,0.6579742431640625,0.042694091796875,-0.6263430118560791,-0.8532384634017944,-5.01012659072876,103.73907470703124,-65.77986145019531,253.767318725586
1700075828,1.3367919921875,0.614105224609375,-0.128997802734375,-0.7733920812606812,-0.8820216059684753,-4.850614547729492,104.03208923339844,-65.78541564941406,254.6317901611328
1700075828,1.2754974365234375,0.6813201904296875,-0.1107025146484375,-0.716458797454834,-1.1158397197723389,-4.524003505706787,103.94749450683594,-65.78172302246094,254.5329742431641
1700075828,1.2438201904296875,0.8017578125,-0.0217132568359375,-0.2512945532798767,-1.333277463912964,-4.240280628204346,103.6864013671875,-65.65269470214844,254.0290069580078
1700075828,1.2430267333984375,0.9299468994140624,-0.0383758544921875,0.3985977172851562,-1.3784610033035278,-4.075989723205566,103.8031005859375,-65.54365539550781,254.3094787597656
1700075828,1.2973785400390625,1.1006622314453125,-0.1738128662109375,0.7587079405784607,-1.362106442451477,-4.0237250328063965,103.97410583496094,-65.40155029296875,254.46902465820312
1700075828,1.425567626953125,1.335479736328125,-0.3045654296875,0.4627977311611175,-1.298000454902649,-3.982422113418579,103.86126708984376,-65.17835998535156,254.40077209472656
1700075828,1.5354156494140625,1.550384521484375,-0.4688720703125,-0.0694003775715828,-1.2450464963912964,-3.903799533843994,103.76300048828124,-65.01051330566406,254.77801513671875
1700075828,1.4955596923828125,1.48760986328125,-0.5329437255859375,-0.1908911317586898,-1.14833402633667,-3.689642429351807,103.99655151367188,-64.60124206542969,255.38758850097656
1700075828,1.294586181640625,1.1862030029296875,-0.4873504638671875,-0.0946327671408653,-1.07690167427063,-3.261350631713867,103.8318328857422,-64.60012817382812,254.9007263183593
1700075828,1.08343505859375,0.9601593017578124,-0.44793701171875,-0.1310397684574127,-1.07123064994812,-2.752669334411621,103.552490234375,-63.97877502441406,255.0034942626953
1700075828,0.939300537109375,0.785736083984375,-0.4034881591796875,-0.3343113958835602,-1.0345946550369265,-2.251779079437256,103.70413208007812,-63.638671875,254.7508239746093
1700075828,0.8642730712890625,0.660064697265625,-0.3889007568359375,-0.6077685356140137,-0.949817717075348,-1.8279447555541992,103.86605834960938,-63.29692077636719,254.38438415527344
1700075828,0.8711395263671875,0.6033935546875,-0.382843017578125,-0.7258352041244507,-0.8391154408454895,-1.4732332229614258,103.90773010253906,-62.47314453125,254.2503967285156
1700075828,0.925628662109375,0.6338653564453125,-0.3843536376953125,-0.6186853647232056,-0.741188108921051,-1.194858431816101,103.56858825683594,-62.12896728515625,254.2199249267578
1700075828,0.9491729736328124,0.7040252685546875,-0.41693115234375,-0.3564388155937195,-0.627558171749115,-1.0154500007629397,103.64369201660156,-61.29161071777344,254.0771484375
1700075828,0.9057464599609376,0.74810791015625,-0.4434356689453125,-0.0168450269848108,-0.4675283133983612,-0.9394806623458862,103.52633666992188,-60.73255920410156,254.24542236328125
1700075828,0.8239593505859375,0.73492431640625,-0.438629150390625,0.2376253455877304,-0.3046437799930572,-0.8248901963233948,103.7227020263672,-59.73130798339844,253.9019470214844
1700075828,0.7333831787109375,0.6886444091796875,-0.3390350341796875,0.3350557684898376,-0.1307223290205001,-0.588320791721344,103.42127990722656,-59.05915832519531,253.69192504882807
1700075828,0.645965576171875,0.5795135498046875,-0.23272705078125,0.3777664601802826,0.0742886140942573,-0.2834282517433166,103.30924987792967,-58.03074645996094,252.96690368652344
1700075828,0.6135406494140625,0.4313812255859375,-0.202117919921875,0.3818309903144836,0.2618153691291809,0.0755016803741455,103.3546905517578,-57.02619934082031,253.1192321777344
1700075828,0.632232666015625,0.347412109375,-0.263031005859375,0.3333374857902527,0.3743523061275482,0.4973722398281097,103.4623565673828,-55.978118896484375,252.5749664306641
1700075828,0.6803131103515625,0.3438262939453125,-0.3264007568359375,0.258666455745697,0.3656253814697265,0.9242985248565674,102.68475341796876,-55.11280822753906,252.72462463378903
1700075828,0.79541015625,0.3553619384765625,-0.2997283935546875,0.0067607006058096,0.5568323731422424,1.2380671501159668,102.88414001464844,-54.673919677734375,252.6990966796875
1700075828,0.891815185546875,0.3820343017578125,-0.4573822021484375,-0.3576833009719848,0.8399002552032471,1.2323572635650637,102.8094482421875,-53.51487731933594,252.1572113037109
1700075828,0.6499481201171875,0.2982177734375,-0.6790771484375,-0.7094826102256775,0.907662570476532,1.0629945993423462,102.33708190917967,-52.09375,252.4763641357422
1700075828,0.82769775390625,0.02801513671875,-0.5077972412109375,-1.1025636196136477,2.040905237197876,1.2846031188964844,101.81585693359376,-51.22257995605469,251.2928161621093
1700075828,0.692535400390625,0.1867218017578125,-1.27850341796875,-1.1183617115020752,5.2702813148498535,2.160274028778076,101.71743774414062,-49.6312255859375,251.82742309570312
1700075828,-0.364044189453125,1.1670379638671875,-3.6541900634765625,-0.7782001495361328,0.7358777523040771,2.7979612350463867,101.21673583984376,-48.00126647949219,251.79209899902344
1700075828,1.7252044677734375,0.9251556396484376,0.2392425537109375,-0.2347877472639084,-1.0644673109054563,1.5315828323364258,101.29171752929688,-46.68778991699219,250.6482849121093
1700075828,4.03857421875,-0.8577117919921875,1.03955078125,1.4152562618255615,0.6972765326499939,0.0692810714244842,100.5918426513672,-45.772247314453125,250.82809448242188
1700075828,2.4405975341796875,-1.314361572265625,0.1360931396484375,2.221674919128418,1.348658561706543,0.2113282233476638,100.33404541015624,-44.49028015136719,250.2268218994141
1700075828,1.1406097412109375,-0.986602783203125,1.0394439697265625,1.79352068901062,1.588254451751709,0.990081548690796,100.11331176757812,-43.357208251953125,250.2281646728516
1700075828,0.550140380859375,-0.7940826416015625,0.25408935546875,0.5015933513641357,1.3279205560684204,1.4647345542907717,100.1494598388672,-42.36602783203125,249.7356872558593
1700075828,0.60845947265625,-0.7304840087890625,-0.309722900390625,-0.5698349475860596,0.9832457304000854,1.6819723844528198,99.9825439453125,-41.746673583984375,250.21446228027344
1700075828,1.1249237060546875,-0.5370635986328125,-0.10333251953125,-1.3109687566757202,0.9021956324577332,2.17726469039917,100.17839050292967,-41.11363220214844,249.69210815429688
1700075828,1.55029296875,-0.039947509765625,0.0029449462890625,-1.8677555322647093,0.8327022790908813,2.6966631412506104,100.18663024902344,-41.21980285644531,249.8380126953125
1700075828,1.6268310546875,0.4142303466796875,-0.042816162109375,-2.274452209472656,0.4008488953113556,2.564215421676636,100.39401245117188,-41.024688720703125,249.53111267089844
1700075828,1.3401947021484375,0.641571044921875,-0.1380462646484375,-2.2020065784454346,0.1510014981031417,1.5724064111709597,100.94760131835938,-40.947845458984375,250.0205841064453
1700075828,1.3148651123046875,0.5998077392578125,-0.2088775634765625,-1.213631272315979,0.7468070983886719,0.8232232928276062,101.41481018066406,-41.526397705078125,250.02883911132807
1700075828,2.3513641357421875,0.1987762451171875,0.175018310546875,0.7360724210739136,1.3877612352371216,0.7374732494354248,102.19393920898438,-42.07334899902344,250.12042236328125
1700075828,3.10186767578125,0.06658935546875,0.4191436767578125,0.9107398390769958,1.2918621301651,1.825644612312317,102.87228393554688,-42.7967529296875,250.73814392089844
1700075829,2.05181884765625,0.6724853515625,-0.2205047607421875,0.502920389175415,0.5326551198959351,1.9780373573303225,103.19245910644533,-43.236724853515625,250.7979278564453
1700075829,1.00640869140625,0.4253997802734375,-0.62603759765625,0.044826328754425,0.0271591823548078,1.3466119766235352,104.2551727294922,-43.92417907714844,249.988998413086
1700075829,0.5745849609375,0.172332763671875,-0.835662841796875,-0.0287781190127134,0.1288418620824813,0.8456215262413025,104.5236358642578,-45.07508850097656,250.00973510742188
1700075829,0.28887939453125,0.165435791015625,-0.595184326171875,0.4690689444541931,0.3265810310840606,0.9363852739334106,105.09288024902344,-46.27272033691406,249.3126983642578
1700075829,0.1498870849609375,0.260833740234375,-0.388641357421875,0.764580488204956,0.1211099103093147,1.046350359916687,105.8868408203125,-47.56373596191406,248.66256713867188
1700075829,0.4268341064453125,0.4397430419921875,-0.39752197265625,0.5652599334716797,-0.0945288985967636,0.7882503867149353,107.08091735839844,-48.80400085449219,247.7920684814453
1700075829,0.856353759765625,0.591644287109375,-0.2792510986328125,0.202012225985527,0.1036520898342132,0.4477383494377136,107.4165496826172,-50.88645935058594,247.6258239746093
1700075829,1.1479949951171875,0.486846923828125,-0.2318572998046875,0.2188548445701599,0.2448153495788574,0.2440478205680847,108.34765625,-52.5872802734375,247.5145721435547
1700075829,1.3308868408203125,0.1859893798828125,-0.2273101806640625,0.2425521910190582,0.2375033646821975,0.3615733981132507,108.81071472167967,-54.658935546875,247.61415100097656
1700075829,1.2470855712890625,0.0816497802734375,-0.3830718994140625,0.2904717624187469,0.1714481860399246,0.6748090386390686,109.55183410644533,-56.52783203125,247.4646911621093
1700075829,1.010162353515625,0.007232666015625,-0.46807861328125,0.3270324468612671,0.1248386055231094,0.9631431102752686,110.2483367919922,-58.64488220214844,246.87364196777344
1700075829,0.8953094482421875,-0.0689239501953125,-0.4032135009765625,0.1897587478160858,0.1585552841424942,1.1481624841690063,110.62518310546876,-60.70286560058594,246.9606475830078
1700075829,0.8261566162109375,0.0212249755859375,-0.3748626708984375,0.0277022011578083,0.1851293742656707,1.2034937143325806,111.10441589355467,-62.95555114746094,246.3529357910156
1700075829,0.7196502685546875,0.2265472412109375,-0.3433074951171875,0.0631187781691551,0.2411172837018966,1.1333612203598022,111.48112487792967,-65.26242065429688,246.5238342285156
1700075829,0.695709228515625,0.38189697265625,-0.2330474853515625,0.2708093822002411,0.3457861542701721,0.9745821952819824,111.14289855957033,-67.22981262207031,246.60760498046875
1700075829,0.7199859619140625,0.49658203125,-0.15899658203125,0.617608904838562,0.4635601937770843,0.8448319435119629,111.7845458984375,-69.21403503417969,247.23828125
1700075829,0.8162384033203125,0.48590087890625,-0.105499267578125,0.9350550174713136,0.5838317275047302,0.8262670040130615,111.87786865234376,-71.54531860351562,246.76907348632807
1700075829,0.957611083984375,0.3364410400390625,-0.161895751953125,1.010120511054993,0.6601443886756897,0.9310552477836608,111.67115783691406,-73.00666809082031,247.10086059570312
1700075829,1.0535125732421875,0.158172607421875,-0.3046112060546875,0.9838582277297974,0.702786922454834,1.1343692541122437,111.59991455078124,-74.64463806152344,246.93179321289065
1700075829,1.028076171875,0.034881591796875,-0.42413330078125,0.8858835101127625,0.6774554252624512,1.3827377557754517,111.92088317871094,-76.94216918945312,247.135971069336
1700075829,0.910736083984375,0.0350494384765625,-0.4942169189453125,0.8201649188995361,0.6607427597045898,1.6184362173080444,111.5535125732422,-78.27603149414062,246.8983917236328
1700075829,0.8118133544921875,0.120849609375,-0.4672698974609375,0.7631844878196716,0.6720327138900757,1.6942551136016846,111.16722106933594,-80.31118774414062,247.6908569335937
1700075829,0.7302093505859375,0.2912750244140625,-0.4128265380859375,0.7520679235458374,0.6956818699836731,1.628684639930725,110.7674560546875,-81.43208312988281,247.855224609375
1700075829,0.685455322265625,0.49578857421875,-0.351104736328125,0.852066159248352,0.7382687330245972,1.5167216062545776,110.44741821289062,-82.58580017089844,247.7667999267578
1700075829,0.81878662109375,0.6177520751953125,-0.2560882568359375,0.9973096251487732,0.7440997362136841,1.509424090385437,110.03541564941406,-83.62945556640625,247.9765472412109
1700075829,1.0498504638671875,0.585235595703125,-0.225006103515625,0.9804073572158812,0.740081787109375,1.6388906240463257,110.28643798828124,-84.63583374023438,248.6380310058593
1700075829,1.2457122802734375,0.4338226318359375,-0.28997802734375,0.8060088753700256,0.7522684335708618,1.8294792175292969,110.05136108398438,-85.40910339355469,248.06008911132807
1700075829,1.33154296875,0.2642364501953125,-0.3871307373046875,0.7399342656135559,0.7894997000694275,2.15163254737854,109.8160400390625,-86.00985717773438,248.0091552734375
1700075829,1.167572021484375,0.146759033203125,-0.441650390625,0.7764898538589478,0.8044626712799072,2.429882287979126,109.7879638671875,-86.85659790039062,247.9476776123047
1700075829,1.14208984375,0.1728973388671875,-0.4558563232421875,0.7860612869262695,0.8391860127449036,2.517150640487671,109.85189819335938,-86.96084594726562,248.32456970214844
1700075829,1.1174468994140625,0.3123779296875,-0.443756103515625,0.8384347558021545,0.8446593284606934,2.519059658050537,109.6640625,-87.20877075195312,248.26580810546875
1700075829,0.8782501220703125,0.505523681640625,-0.4740447998046875,0.9839003086090088,0.8003086447715759,2.407320737838745,109.25740051269533,-87.18244934082031,247.85366821289065
1700075829,0.8543243408203125,0.692352294921875,-0.4877166748046875,1.0808072090148926,0.7200455069541931,2.2849113941192627,109.289794921875,-87.48046875,247.54556274414065
1700075829,1.0668487548828125,0.7621307373046875,-0.4510040283203125,1.1896353960037231,0.6165095567703247,2.291454076766968,109.25529479980467,-87.61697387695312,247.9381866455078
1700075829,1.2700347900390625,0.71038818359375,-0.4584503173828125,1.1938048601150513,0.5223721265792847,2.3660545349121094,109.48814392089844,-87.74679565429688,247.99034118652344
1700075829,1.5674591064453125,0.600372314453125,-0.47467041015625,1.091464638710022,0.4323959052562713,2.487588405609131,109.31381225585938,-87.95097351074219,247.25942993164065
1700075829,1.839202880859375,0.47137451171875,-0.5042572021484375,0.902806520462036,0.3402848839759826,2.625063180923462,109.13224792480467,-87.80377197265625,247.8283843994141
1700075829,2.0142974853515625,0.328704833984375,-0.5560302734375,0.6589962840080261,0.1950254142284393,2.740132570266724,109.42936706542967,-88.07135009765625,247.45913696289065
1700075829,2.068954467773437,0.204010009765625,-0.5962982177734375,0.377545952796936,-0.1178190410137176,2.724684000015259,108.70468139648438,-87.63493347167969,247.77850341796875
1700075829,1.97784423828125,0.10076904296875,-0.5485076904296875,0.053052831441164,-0.4010118842124939,2.466000556945801,109.07449340820312,-87.29248046875,247.5277404785156
1700075829,1.7147064208984375,0.0208740234375,-0.5177764892578125,-0.1219037994742393,-0.6361892223358154,2.046656370162964,109.10585021972656,-87.023193359375,246.74636840820312
1700075829,1.318603515625,-0.014251708984375,-0.5184478759765625,-0.2912201285362243,-0.4278528094291687,1.4249941110610962,108.84974670410156,-86.45046997070312,246.120849609375
1700075829,0.8578033447265625,-0.1382904052734375,-0.6766204833984375,-0.7596083879470825,-0.2293101549148559,1.277970790863037,107.49136352539062,-85.57478332519531,243.8736267089844
1700075829,0.1136932373046875,0.039642333984375,-0.6884002685546875,-1.420254468917847,-0.0350525267422199,1.084739089012146,108.52700805664062,-84.60081481933594,243.6640014648437
1700075829,-0.4210662841796875,0.0627899169921875,-0.555419921875,-0.9996124505996704,-0.0715367645025253,0.3490296304225921,108.71778869628906,-84.5189208984375,244.870849609375
1700075829,-0.7788543701171875,-0.1990203857421875,0.0295867919921875,-0.0870406255125999,-0.3148849606513977,-0.512111246585846,108.64035034179688,-85.36715698242188,244.3803253173828
1700075829,-0.9929962158203124,-0.253631591796875,0.5110931396484375,0.1140546649694442,-0.549470841884613,-1.13516366481781,108.183349609375,-85.270263671875,243.2010192871093
1700075829,-0.3851165771484375,-0.0714874267578125,0.286529541015625,-0.1322158277034759,-0.887563943862915,-2.018085479736328,107.88551330566406,-84.88882446289062,242.3507080078125
1700075829,0.2844085693359375,-0.4132080078125,-0.021270751953125,-0.1769140511751175,-0.9980049729347228,-2.7837376594543457,107.66477966308594,-84.56068420410156,241.8422241210937
1700075829,0.3082275390625,-0.7964019775390625,0.0652008056640625,-0.0421474538743495,-0.9120104312896729,-3.113981246948242,107.82797241210938,-83.95805358886719,242.0907440185547
1700075829,0.1127471923828125,-0.7996063232421875,0.0951690673828125,-0.116912767291069,-0.949217975139618,-3.130000352859497,107.6422119140625,-83.41117858886719,241.4290008544922
1700075829,0.0932159423828125,-0.48260498046875,-0.0218353271484375,-0.2957211434841156,-1.0197190046310425,-3.420329570770264,107.7748565673828,-82.66477966308594,241.22283935546875
1700075829,0.273193359375,-0.2913818359375,-0.0882110595703125,-0.3332647681236267,-1.0357669591903689,-3.883703470230103,107.50531005859376,-82.38740539550781,241.5814819335937
1700075829,0.3864288330078125,-0.2007598876953125,-0.1110687255859375,-0.1373301595449447,-0.9809468984603882,-4.256554126739502,107.50631713867188,-82.17120361328125,241.24853515625
1700075829,0.4527435302734375,-0.07354736328125,-0.19140625,0.156734213232994,-0.9333814978599548,-4.4219465255737305,107.4723663330078,-81.89483642578125,241.50405883789065
1700075829,0.5438690185546875,0.096405029296875,-0.3227691650390625,0.3651092648506164,-0.9614123106002808,-4.528194904327393,107.2358856201172,-81.601806640625,241.0449066162109
1700075829,0.669921875,0.2372589111328125,-0.3597259521484375,0.2433300912380218,-0.976775288581848,-4.7197041511535645,107.28713989257812,-80.64448547363281,240.97100830078125
1700075829,0.8600616455078125,0.3372955322265625,-0.300048828125,-0.0062895873561501,-1.0526114702224731,-4.892023086547852,107.7117919921875,-79.91883850097656,240.34033203125
1700075829,1.0536346435546875,0.432464599609375,-0.156585693359375,-0.3782697916030884,-1.105665683746338,-4.928534507751465,107.28987121582033,-79.51246643066406,240.3721466064453
1700075829,1.180145263671875,0.4921417236328125,-0.1342010498046875,-0.7260975241661072,-1.1198914051055908,-4.746610641479492,107.5498504638672,-79.44837951660156,240.97576904296875
1700075829,1.2335357666015625,0.574432373046875,-0.12567138671875,-0.6319446563720703,-1.3239423036575315,-4.439394950866699,107.42874145507812,-78.86932373046875,240.8053131103516
1700075829,1.31048583984375,0.6827239990234375,0.034423828125,-0.0529172755777835,-1.5772485733032229,-4.183514595031738,107.60128784179688,-78.43222045898438,240.1248016357422
1700075829,1.4008941650390625,0.8044891357421875,0.0572509765625,0.4413774013519287,-1.6156530380249023,-4.0811638832092285,107.61482238769533,-78.50323486328125,241.06163024902344
1700075829,1.43328857421875,0.927093505859375,-0.1990814208984375,0.5947083830833435,-1.4810134172439575,-4.136660575866699,107.51565551757812,-78.20413208007812,240.9934844970703
1700075829,1.4712066650390625,1.072998046875,-0.4549560546875,0.4281510710716247,-1.259419560432434,-4.187570095062256,107.45755004882812,-77.70462036132812,240.416259765625
1700075829,1.509033203125,1.2675933837890625,-0.6533050537109375,0.0248068124055862,-1.080864429473877,-4.176989555358887,107.43977355957033,-77.61442565917969,240.8703155517578
1700075829,1.4940948486328125,1.345001220703125,-0.7555999755859375,-0.2436230480670929,-0.9549765586853028,-4.110778331756592,107.3898468017578,-77.19593811035156,240.5989532470703
1700075829,1.4315338134765625,1.1335296630859375,-0.6790771484375,-0.3414278924465179,-0.8731786012649536,-3.874745607376098,107.68057250976562,-77.08535766601562,240.58448791503903
1700075829,1.3234405517578125,0.914886474609375,-0.5218658447265625,-0.158234640955925,-0.8270134925842285,-3.3924875259399414,107.67857360839844,-76.89248657226562,240.76141357421875
1700075829,1.2486724853515625,0.9114990234375,-0.400787353515625,0.0591525360941886,-0.8776780366897583,-2.843991041183472,107.3889617919922,-76.44363403320312,240.4739990234375
1700075829,1.1813507080078125,0.9494171142578124,-0.3078765869140625,0.1805487424135208,-0.8870810866355896,-2.421785354614258,107.4705047607422,-76.22515869140625,240.73077392578125
1700075829,1.0916595458984375,0.94403076171875,-0.2696990966796875,0.3347612023353576,-0.7946358919143677,-2.133053541183472,107.44207763671876,-75.61248779296875,240.55148315429688
1700075829,0.9944000244140624,0.90765380859375,-0.2291717529296875,0.5833688974380493,-0.6336067914962769,-1.9098355770111084,107.42678833007812,-75.53274536132812,240.57798767089844
1700075829,0.9295196533203124,0.8315887451171875,-0.22406005859375,0.793723464012146,-0.4817621111869812,-1.6955991983413696,106.96142578125,-74.62051391601562,240.28884887695312
1700075829,0.8583984375,0.7200927734375,-0.2890625,0.8639653921127319,-0.3413000702857971,-1.4678337574005127,107.27456665039062,-74.23005676269531,239.67941284179688
1700075829,0.7999114990234375,0.5982666015625,-0.3798980712890625,0.8255679607391357,-0.2323144674301147,-1.217517375946045,106.9446258544922,-72.96986389160156,239.4923553466797
1700075829,0.7677459716796875,0.4793853759765625,-0.419464111328125,0.73492032289505,-0.1482019871473312,-0.9389584064483644,106.62458801269533,-72.38226318359375,239.6290283203125
1700075829,0.755096435546875,0.3828582763671875,-0.3869476318359375,0.672227680683136,-0.0750007405877113,-0.6810054183006287,106.42295837402344,-71.43739318847656,239.01593017578125
1700075829,0.730560302734375,0.3121490478515625,-0.3052825927734375,0.7112030386924744,-0.0096507631242275,-0.4563568830490112,106.28816223144533,-70.56349182128906,239.66604614257807
1700075829,0.715850830078125,0.287506103515625,-0.1987762451171875,0.7404754161834717,0.0549194402992725,-0.2465003281831741,105.59320068359376,-69.69418334960938,238.5552520751953
1700075829,0.7445068359375,0.3104705810546875,-0.1412353515625,0.7545387744903564,0.11324293166399,-0.0761118084192276,105.24269104003906,-68.24673461914062,238.2449493408203
1700075829,0.770751953125,0.3170928955078125,-0.125946044921875,0.7645514607429504,0.1308911740779876,0.1058380156755447,105.24758911132812,-67.35406494140625,238.0482788085937
1700075829,0.78167724609375,0.304534912109375,-0.0901947021484375,0.7245033979415894,0.1737968325614929,0.2709401547908783,104.3254852294922,-66.50238037109375,238.5069732666016
1700075829,0.755126953125,0.2402191162109375,-0.07806396484375,0.49567312002182,0.2213449031114578,0.4229459166526794,104.520263671875,-65.34207153320312,237.797103881836
1700075829,0.713165283203125,0.158447265625,-0.1158905029296875,0.1645740270614624,0.245878204703331,0.6021668314933777,103.68589782714844,-64.25303649902344,237.02664184570312
1700075829,0.68780517578125,0.0796356201171875,-0.1524810791015625,-0.2335067689418792,0.5240200757980347,0.8268505334854126,103.24481201171876,-62.9560546875,237.11917114257807
1700075829,0.6602325439453125,0.055328369140625,-0.3901519775390625,-0.5235795974731445,1.0849374532699585,0.904747724533081,102.83843994140624,-61.691436767578125,236.4816131591797
1700075829,0.4701385498046875,0.1315155029296875,-0.81121826171875,-0.489580363035202,0.8225937485694885,1.1978232860565186,102.21884155273438,-60.81343078613281,236.4553985595703
1700075829,0.652069091796875,0.4087982177734375,-0.479461669921875,-0.2834391593933105,1.721184492111206,1.5735628604888916,101.76448059082033,-59.55534362792969,236.30728149414065
1700075829,0.6706695556640625,0.6589508056640625,-1.42742919921875,0.9818206429481506,5.180900573730469,1.7413350343704224,100.71868896484376,-58.28868103027344,236.1060943603516
1700075829,-0.2578277587890625,1.2328033447265625,-3.963150024414064,0.4670188426971435,-0.8321230411529541,2.335233211517334,100.096435546875,-57.3426513671875,236.01515197753903
1700075829,2.64990234375,1.16766357421875,0.8663482666015625,-0.2188404649496078,-0.7036622762680054,0.5724225044250488,99.45742797851562,-55.98155212402344,235.7684326171875
1700075829,4.132476806640625,-0.9730377197265624,-0.02581787109375,0.8807438611984253,0.8238438367843628,-0.9092900156974792,98.97750854492188,-54.85076904296875,235.2260131835937
1700075829,2.1788787841796875,-1.4701690673828125,0.2051849365234375,1.6456867456436155,1.071974754333496,-0.624555766582489,98.07093811035156,-53.73927307128906,234.9978485107422
1700075829,0.97869873046875,-1.1198577880859375,1.06170654296875,1.0732771158218384,1.1343470811843872,0.817931592464447,97.42898559570312,-52.34309387207031,235.4964294433593
1700075829,0.35052490234375,-0.8003997802734375,0.184600830078125,-0.1638035774230957,0.7351555228233337,1.714457869529724,97.16282653808594,-51.29142761230469,234.85397338867188
1700075829,0.692413330078125,-1.00640869140625,0.034698486328125,-0.9486254453659058,1.0128459930419922,1.8430638313293457,96.30996704101562,-50.01898193359375,235.38487243652344
1700075829,1.329803466796875,-1.025054931640625,-0.0185089111328125,-1.6226749420166016,1.2368351221084597,2.20281195640564,95.76052856445312,-49.00459289550781,235.92091369628903
1700075829,1.6837310791015625,-0.397979736328125,-0.0815277099609375,-1.9787936210632324,1.2884743213653564,2.904860258102417,95.46250915527344,-47.32145690917969,236.16873168945312
1700075829,1.7259368896484375,0.261444091796875,-0.1462249755859375,-1.5573601722717283,1.0189440250396729,3.1862053871154785,94.33001708984376,-46.41664123535156,235.796142578125
1700075830,1.38262939453125,0.5733489990234375,-0.35150146484375,-0.897213876247406,-0.0254220031201839,1.919040322303772,93.31800842285156,-45.31997680664063,236.3616943359375
1700075830,1.003692626953125,0.4973297119140625,-0.595123291015625,-0.6410407423973083,-0.2388597130775451,0.7328510880470276,92.7038116455078,-44.266387939453125,235.9478759765625
1700075830,0.9384918212890624,0.772705078125,-0.5011444091796875,-0.513828456401825,0.2028849422931671,0.5487813353538513,91.81307983398438,-43.750823974609375,236.3055725097656
1700075830,1.501495361328125,0.7378692626953125,0.2170562744140625,0.2365723252296447,0.6089370846748352,0.4688979685306549,90.9705810546875,-43.06964111328125,236.07546997070312
1700075830,2.2735595703125,0.2492523193359375,0.42974853515625,0.3735197782516479,0.8750819563865662,0.6689807176589966,89.88273620605469,-42.56785583496094,235.49188232421875
1700075830,2.2211456298828125,0.3745880126953125,-0.2172393798828125,0.0785845592617988,0.5211513042449951,0.8513907790184021,89.48109436035156,-43.09439086914063,235.3755645751953
1700075830,1.4533233642578125,0.506622314453125,-0.539215087890625,-0.0564017556607723,0.043875578790903,0.6673647165298462,89.3114013671875,-42.85038757324219,235.1251983642578
1700075830,0.895660400390625,0.312652587890625,-0.6644287109375,-0.0303728189319372,-0.2184471189975738,0.4068029224872589,89.48580932617188,-43.91197204589844,234.7548370361328
1700075830,0.656646728515625,0.147705078125,-0.555938720703125,0.0797720625996589,-0.1570625901222229,0.4137377738952636,90.18875122070312,-44.10517883300781,235.0352325439453
1700075830,0.531494140625,0.07305908203125,-0.34039306640625,0.181859016418457,-0.0113053852692246,0.5468233823776245,90.987060546875,-44.97480773925781,235.0329132080078
1700075830,0.5216522216796875,0.03912353515625,-0.2490081787109375,0.2011022120714187,0.0388147719204425,0.598709225654602,91.6921844482422,-45.92735290527344,235.23599243164065
1700075830,0.732177734375,0.0611572265625,-0.2701568603515625,0.2022969126701355,0.0628932118415832,0.5922619700431824,92.54191589355467,-47.17530822753906,235.3052215576172
1700075830,0.97821044921875,0.0985565185546875,-0.2938995361328125,0.2243060767650604,0.1045354604721069,0.5896973609924316,93.6573486328125,-48.47189331054688,235.51422119140625
1700075830,1.113983154296875,0.0755157470703125,-0.2609100341796875,0.2664271593093872,0.1531810313463211,0.6485279202461243,94.82769775390624,-49.734771728515625,235.8197784423828
1700075830,1.0914459228515625,0.0495147705078125,-0.2713165283203125,0.2877047657966614,0.1825857907533645,0.780042290687561,96.06661987304688,-51.247894287109375,236.3177795410156
1700075830,0.9666900634765624,0.024993896484375,-0.303375244140625,0.2941789031028747,0.240228846669197,0.9019423723220824,96.73835754394533,-52.94926452636719,236.1729888916016
1700075830,0.8799591064453125,-0.0127716064453125,-0.32696533203125,0.2990618050098419,0.2680378258228302,1.0417522192001345,97.42448425292967,-55.05354309082031,237.0124053955078
1700075830,0.806121826171875,0.0300750732421875,-0.3400421142578125,0.2397196441888809,0.2601314485073089,1.1304410696029663,98.47433471679688,-56.62857055664063,237.0782928466797
1700075830,0.8005218505859375,0.1155853271484375,-0.306884765625,0.1715477854013443,0.3010056316852569,1.1353063583374023,99.18911743164062,-58.69967651367188,237.21597290039065
1700075830,0.8267059326171875,0.2122344970703125,-0.2584075927734375,0.2344101071357727,0.3891751766204834,1.1217501163482666,99.83990478515624,-60.83697509765625,237.18209838867188
1700075830,0.8707275390625,0.2740325927734375,-0.2042083740234375,0.4420123100280761,0.4856593906879425,1.1481643915176392,100.49542236328124,-62.75161743164063,238.10562133789065
1700075830,0.9314422607421876,0.2837677001953125,-0.2041778564453125,0.6623529195785522,0.5694605112075806,1.2353432178497314,101.227294921875,-64.9910888671875,238.5505523681641
1700075830,0.9957275390625,0.2235565185546875,-0.238922119140625,0.7727188467979431,0.6386707425117493,1.306816339492798,101.8477020263672,-66.71159362792969,239.4907684326172
1700075830,1.01580810546875,0.0995635986328125,-0.2705230712890625,0.7221025228500366,0.7096983194351196,1.4465105533599854,102.18527221679688,-68.42539978027344,239.4097595214844
1700075830,0.8974609375,0.0175323486328125,-0.38055419921875,0.6633204221725464,0.7567684054374695,1.665889024734497,102.67437744140624,-70.15280151367188,240.5902557373047
1700075830,0.7646484375,-0.002899169921875,-0.4703369140625,0.7065014839172363,0.7824111580848694,1.874386548995972,103.20622253417967,-72.51777648925781,240.7348480224609
1700075830,0.74853515625,0.0543670654296875,-0.4327392578125,0.7704508900642395,0.8214133977890015,1.9492567777633667,102.85679626464844,-73.97976684570312,241.26779174804688
1700075830,0.7695770263671875,0.237060546875,-0.343902587890625,0.7662724256515503,0.8956000208854675,1.901394963264465,103.2910614013672,-75.45234680175781,241.365951538086
1700075830,0.8296051025390625,0.45721435546875,-0.2996826171875,0.8651260137557983,0.9634898900985718,1.8191704750061035,102.78305053710938,-76.88449096679688,241.7495880126953
1700075830,0.96282958984375,0.5640106201171875,-0.25677490234375,1.0424726009368896,0.9864431023597716,1.794412612915039,102.7639617919922,-77.96211242675781,241.7916259765625
1700075830,1.1126708984375,0.4587860107421875,-0.2606048583984375,1.1018182039260864,1.0005863904953003,1.853754997253418,102.75422668457033,-79.32582092285156,242.465072631836
1700075830,1.10675048828125,0.300018310546875,-0.4184417724609375,1.0019773244857788,0.9922181963920592,2.034693479537964,103.00552368164062,-80.16966247558594,242.55636596679688
1700075830,1.023590087890625,0.28759765625,-0.5186920166015625,0.9940560460090636,1.0448051691055298,2.169561624526977,102.88909912109376,-81.33706665039062,242.91061401367188
1700075830,1.11114501953125,0.2429046630859375,-0.44482421875,1.0153653621673584,1.08720862865448,2.282431364059448,102.85232543945312,-82.16305541992188,243.4749450683593
1700075830,1.10772705078125,0.248748779296875,-0.4358673095703125,1.016316056251526,1.1348451375961304,2.355339527130127,102.46661376953124,-82.93888854980469,243.64303588867188
1700075830,0.9164581298828124,0.307373046875,-0.4914703369140625,1.0406064987182615,1.136137843132019,2.3402624130249023,102.58119201660156,-83.87359619140625,243.99176025390625
1700075830,0.703887939453125,0.5226593017578125,-0.542022705078125,1.1028355360031128,1.1241748332977295,2.196479082107544,102.19712829589844,-84.69097900390625,244.3970642089844
1700075830,0.7754364013671875,0.72784423828125,-0.518646240234375,1.1763815879821775,1.0659669637680054,2.041069984436035,101.80284118652344,-84.95643615722656,244.1954040527344
1700075830,1.0827789306640625,0.772796630859375,-0.535919189453125,1.2453583478927612,0.974612832069397,2.086475849151612,102.0351104736328,-85.43119812011719,244.6728363037109
1700075830,1.328948974609375,0.647430419921875,-0.52349853515625,1.1745901107788086,0.9080087542533876,2.261950731277466,101.95042419433594,-85.18881225585938,244.4084014892578
1700075830,1.5254669189453125,0.5159759521484375,-0.515228271484375,1.0227657556533811,0.8425876498222351,2.476063966751098,101.5862274169922,-85.65699768066406,244.6747894287109
1700075830,1.789520263671875,0.4775238037109375,-0.53302001953125,0.8773698806762695,0.7417617440223694,2.6644508838653564,101.86195373535156,-85.63667297363281,244.976318359375
1700075830,1.9859771728515625,0.39984130859375,-0.523040771484375,0.6470663547515869,0.5765179395675659,2.7936956882476807,101.98191833496094,-85.82084655761719,244.8836669921875
1700075830,2.101409912109375,0.293914794921875,-0.5460205078125,0.3322274684906006,0.273576408624649,2.7855494022369385,101.8315887451172,-85.78428649902344,244.3370056152344
1700075830,2.146636962890625,0.15313720703125,-0.5225067138671875,0.0611821301281452,-0.0990078076720237,2.679358959197998,101.48345947265624,-85.82685852050781,243.97938537597656
1700075830,1.99554443359375,0.079254150390625,-0.447784423828125,-0.2141117602586746,-0.207416832447052,2.367990732192993,101.48516845703124,-85.20889282226562,244.205810546875
1700075830,1.588531494140625,0.00872802734375,-0.617706298828125,-0.2730192840099334,-0.0822589173913002,1.575269103050232,101.65632629394533,-85.15615844726562,243.9290313720703
1700075830,1.05609130859375,-0.19500732421875,-0.67919921875,-0.6357434391975403,-0.1057634502649307,1.4449363946914673,101.52058410644533,-84.63824462890625,243.6905975341797
1700075830,0.250244140625,0.1280517578125,-0.5720367431640625,-1.2418359518051147,0.1376161873340606,1.3000380992889404,100.74972534179688,-84.01524353027344,242.7315673828125
1700075830,-0.3039093017578125,0.2798614501953125,-0.652496337890625,-1.0505712032318115,0.2494905143976211,0.566734790802002,99.96298217773438,-81.97586059570312,240.61553955078125
1700075830,-0.65435791015625,0.11590576171875,-0.3148040771484375,-0.1692044734954834,0.0462591089308261,-0.1929585337638855,101.19474792480467,-81.38186645507812,241.39718627929688
1700075830,-0.92657470703125,0.0983123779296875,0.3321380615234375,0.1779028922319412,-0.3240923285484314,-0.6450548768043518,101.3489990234375,-81.69960021972656,242.1004333496093
1700075830,-0.47393798828125,0.102508544921875,0.3942413330078125,-0.1987700909376144,-0.5895599722862244,-1.3556184768676758,100.95513916015624,-81.315673828125,241.2358245849609
1700075830,0.224334716796875,-0.2816925048828125,-0.02130126953125,-0.6049359440803528,-0.70749431848526,-2.079845905303955,100.3650360107422,-80.89393615722656,240.1264190673828
1700075830,0.206512451171875,-0.6155853271484375,-0.1386566162109375,-0.513312816619873,-0.7196340560913086,-2.6225833892822266,99.89639282226562,-81.10633850097656,239.6077117919922
1700075830,0.12896728515625,-0.7681121826171875,-0.0540313720703125,-0.2245721220970153,-0.8336690068244934,-2.8748619556427,99.70074462890624,-80.68963623046875,239.58367919921875
1700075830,0.168212890625,-0.623016357421875,-0.0538330078125,-0.0790016055107116,-0.9787535071372986,-3.072572708129883,99.9882354736328,-80.12611389160156,239.03546142578125
1700075830,0.281494140625,-0.31689453125,-0.1507110595703125,0.1481015831232071,-1.0270256996154783,-3.450080156326294,99.7016143798828,-79.88140869140625,238.7866058349609
1700075830,0.381561279296875,-0.1861724853515625,-0.1198883056640625,0.4092516899108886,-1.0087844133377075,-3.8164234161376953,99.75006103515624,-79.15373229980469,238.99761962890625
1700075830,0.43829345703125,-0.07257080078125,-0.065277099609375,0.6512385010719299,-0.9521565437316896,-4.089844226837158,99.80258178710938,-78.73748779296875,238.81597900390625
1700075830,0.510284423828125,0.03887939453125,-0.0492095947265625,0.8609432578086853,-0.9083675146102904,-4.28382682800293,100.13111877441406,-78.24208068847656,239.1297302246093
1700075830,0.5995635986328125,0.119781494140625,-0.0590667724609375,1.0509490966796875,-0.8567184209823608,-4.443915843963623,99.78402709960938,-78.60905456542969,238.7356414794922
1700075830,0.727813720703125,0.1611175537109375,-0.0918121337890625,1.1875290870666504,-0.8016482591629028,-4.556227684020996,99.31130981445312,-78.09451293945312,238.1593017578125
1700075830,0.8647003173828125,0.1980743408203125,-0.1006622314453125,1.1527018547058103,-0.7284565567970276,-4.604523658752441,99.03987121582033,-77.22563171386719,237.2366180419922
1700075830,0.9876708984375,0.2764739990234375,-0.119659423828125,0.9497807025909424,-0.703761100769043,-4.59062385559082,98.95639038085938,-76.33863830566406,237.8966522216797
1700075830,1.1071929931640625,0.370819091796875,-0.14910888671875,0.6677711009979248,-0.7571555972099304,-4.628056049346924,99.19656372070312,-76.10433959960938,237.4669342041016
1700075830,1.2250213623046875,0.4138031005859375,-0.1511993408203125,0.360693484544754,-0.8024378418922424,-4.743529796600342,99.34457397460938,-75.93521118164062,238.05435180664065
1700075830,1.3179931640625,0.426727294921875,-0.13092041015625,0.1834393292665481,-0.8433248400688171,-4.787017345428467,99.4643096923828,-75.48617553710938,238.2848358154297
1700075830,1.3702850341796875,0.46490478515625,-0.061279296875,0.2335999757051468,-0.8807199001312256,-4.690378665924072,99.55867004394533,-75.34175109863281,238.12423706054688
1700075830,1.4299774169921875,0.5127716064453125,-0.0039215087890625,0.2366423606872558,-0.95982426404953,-4.512103080749512,99.59695434570312,-75.32623291015625,238.737548828125
1700075830,1.5374298095703125,0.565948486328125,-0.0189971923828125,0.1841791570186615,-0.9758740663528442,-4.277235507965088,99.48939514160156,-75.39784240722656,238.365478515625
1700075830,1.62298583984375,0.6443023681640625,-0.1587677001953125,0.1956733614206314,-1.0049432516098022,-4.115281105041504,99.77748107910156,-75.61273193359375,238.64491271972656
1700075830,1.679412841796875,0.7260284423828125,-0.3298492431640625,0.1550122201442718,-1.0739740133285522,-4.047994136810303,99.9814910888672,-75.32176208496094,238.7030792236328
1700075830,1.620574951171875,0.8220367431640625,-0.489593505859375,0.0163864307105541,-1.1952130794525146,-3.966058015823364,100.0314483642578,-74.68569946289062,238.9268035888672
1700075830,1.515106201171875,0.9029388427734376,-0.4807281494140625,-0.0211939681321382,-1.2417174577713013,-3.866221189498901,99.8359375,-75.03016662597656,238.6261138916016
1700075830,1.431976318359375,0.8879547119140625,-0.344818115234375,0.218790128827095,-1.0957368612289429,-3.787073373794556,99.98355102539062,-74.4979248046875,238.0973358154297
1700075830,1.3919830322265625,0.829925537109375,-0.257659912109375,0.6514509916305542,-0.8384674787521362,-3.7164225578308105,99.8602294921875,-74.08978271484375,238.66026306152344
1700075830,1.31256103515625,0.7776336669921875,-0.2765960693359375,1.0619938373565674,-0.7252176403999329,-3.5648322105407715,99.57029724121094,-74.21159362792969,238.1085205078125
1700075830,1.199066162109375,0.722808837890625,-0.28240966796875,1.2407310009002686,-0.7254636883735657,-3.3531718254089355,100.00721740722656,-73.54035949707031,238.44284057617188
1700075830,1.15911865234375,0.6017608642578125,-0.273040771484375,1.3512420654296875,-0.7351760268211365,-3.099046468734741,100.03176879882812,-73.46803283691406,238.0596923828125
1700075830,1.15960693359375,0.457244873046875,-0.2312164306640625,1.475617289543152,-0.6850763559341431,-2.806791305541992,99.76910400390624,-73.12922668457031,238.16261291503903
1700075830,1.1138153076171875,0.358795166015625,-0.221038818359375,1.564664602279663,-0.630681037902832,-2.5111019611358643,100.15730285644533,-72.89503479003906,238.0291442871093
1700075830,1.0327301025390625,0.3285064697265625,-0.2548370361328125,1.6272358894348145,-0.6021007895469666,-2.2219178676605225,99.59846496582033,-72.25982666015625,238.5406646728516
1700075830,0.9098663330078124,0.3331756591796875,-0.2965545654296875,1.7372092008590698,-0.5552850365638733,-1.9512141942977903,99.6280517578125,-71.58891296386719,237.4368896484375
1700075830,0.7913818359375,0.3404693603515625,-0.3046417236328125,1.924832105636597,-0.4708588719367981,-1.6801505088806152,99.23709106445312,-70.90040588378906,237.63267517089844
1700075830,0.7217864990234375,0.35357666015625,-0.26080322265625,2.1575124263763428,-0.3572824895381927,-1.4075533151626587,98.94354248046876,-70.222900390625,237.53121948242188
1700075830,0.723541259765625,0.3815155029296875,-0.2108612060546875,2.431491136550904,-0.2618339955806732,-1.1597797870635986,98.5424346923828,-69.37142944335938,237.1690368652344
1700075830,0.7620391845703125,0.4092559814453125,-0.174774169921875,2.666874647140503,-0.2016846537590026,-0.9669256210327148,98.60089111328124,-68.46086120605469,236.7137145996093
1700075830,0.815399169921875,0.39532470703125,-0.186981201171875,2.7626149654388428,-0.1379216462373733,-0.8115788698196411,98.23814392089844,-67.34611511230469,237.0993194580078
1700075830,0.835906982421875,0.3145751953125,-0.2848968505859375,2.6521787643432617,-0.0527827888727188,-0.6446082592010498,98.391845703125,-66.66241455078125,236.3466796875
1700075830,0.7968902587890625,0.2032318115234375,-0.422393798828125,2.421816349029541,0.0356615893542766,-0.4250865876674652,97.86628723144533,-65.43815612792969,236.2433013916016
1700075830,0.7059783935546875,0.1006927490234375,-0.5090484619140625,2.245980024337769,0.0714888274669647,-0.177715927362442,97.52288818359376,-64.80264282226562,235.4468688964844
1700075830,0.625701904296875,-0.0031280517578125,-0.4626922607421875,2.2172305583953857,0.0662189647555351,0.0889911279082298,96.72068786621094,-63.73101806640625,235.68472290039065
1700075830,0.6119384765625,-0.084625244140625,-0.3003082275390625,2.239898204803467,0.1363069713115692,0.3323683738708496,96.38504028320312,-62.31315612792969,235.3650360107422
1700075830,0.6551971435546875,-0.07464599609375,-0.2022705078125,2.1564290523529053,0.2010265886783599,0.4809549152851105,96.25547790527344,-61.497650146484375,235.43495178222656
1700075830,0.716766357421875,0.0257568359375,-0.2059478759765625,2.0877127647399902,0.2235374897718429,0.5512533187866211,95.59751892089844,-60.59246826171875,234.9603881835937
1700075830,0.7536468505859375,0.087249755859375,-0.234527587890625,2.091605424880981,0.2432683110237121,0.570991575717926,94.89791870117188,-59.09068298339844,234.80093383789065
1700075830,0.7574920654296875,0.060455322265625,-0.2371368408203125,1.963511109352112,0.3718795478343963,0.6458067297935486,94.67550659179688,-58.13316345214844,233.77127075195312
1700075830,0.741363525390625,0.0209197998046875,-0.3534088134765625,1.3045475482940674,1.096034288406372,0.7841382026672363,94.07138061523438,-57.223236083984375,233.82508850097656
1700075831,0.5630645751953125,0.0450439453125,-1.0536041259765625,0.7161125540733337,1.4177303314208984,0.7573521137237549,93.37776184082033,-56.08158874511719,234.05398559570312
1700075831,0.356231689453125,-0.0226898193359375,-1.371826171875,0.7878890037536621,3.28674864768982,1.2988297939300537,92.6198272705078,-54.775482177734375,233.9393310546875
1700075831,0.096435546875,0.507415771484375,-2.9482574462890625,1.2138184309005735,3.2303125858306885,1.721718192100525,92.13899230957033,-53.69792175292969,233.6357421875
1700075831,0.1332244873046875,1.1089935302734375,-3.2890777587890625,0.1848404258489608,-2.7610793113708496,2.69202208518982,91.12350463867188,-52.90354919433594,233.58628845214844
1700075831,3.867767333984375,0.4730987548828125,1.8025665283203125,-0.4344910085201263,-1.036474347114563,1.4520201683044434,90.4327392578125,-51.30793762207031,233.5668334960937
1700075831,3.6754302978515625,-1.29052734375,0.1922607421875,0.952431857585907,1.509423017501831,0.9823815226554872,90.10383605957033,-50.45906066894531,233.4008636474609
1700075831,1.484954833984375,-1.4716033935546875,1.330902099609375,-0.1904375851154327,1.283058524131775,1.653112769126892,89.10099792480469,-49.52496337890625,233.76565551757807
1700075831,0.7394561767578125,-0.38299560546875,0.693267822265625,-1.843247532844544,0.5622130036354065,2.467734098434448,88.67584228515625,-48.16514587402344,234.28836059570312
1700075831,0.558135986328125,0.079345703125,0.161590576171875,-2.7607483863830566,0.4306967854499817,2.5493297576904297,88.40830993652344,-47.3851318359375,233.7346343994141
1700075831,0.760772705078125,-0.052337646484375,0.163665771484375,-3.173207998275757,0.8574686050415039,2.208287477493286,87.63711547851562,-46.73835754394531,234.1838531494141
1700075831,1.1492156982421875,-0.012237548828125,-0.1134490966796875,-3.0254573822021484,1.1517713069915771,1.7394421100616455,87.05476379394531,-46.17146301269531,233.9351043701172
1700075831,1.5053253173828125,0.1056976318359375,-0.4292144775390625,-2.0230963230133057,0.9853019714355468,1.1277445554733276,86.66578674316406,-45.67677307128906,233.4552764892578
1700075831,1.5859222412109375,0.1576080322265625,-0.8212738037109375,-0.5356253385543823,0.4460395276546478,0.5807843208312988,86.61079406738281,-45.60304260253906,232.95919799804688
1700075831,1.51971435546875,0.177978515625,-0.96795654296875,0.6155329346656799,-0.2090770453214645,0.4051120579242706,86.25996398925781,-46.07638549804688,232.8306884765625
1700075831,1.2498016357421875,0.154571533203125,-0.5396270751953125,0.6536060571670532,-0.2986500859260559,0.4053989052772522,86.13238525390625,-46.03044128417969,233.4915313720703
1700075831,1.6319580078125,-0.047454833984375,-0.09332275390625,0.6931907534599304,0.0177579578012228,0.553368091583252,86.33815002441406,-46.44593811035156,233.27395629882807
1700075831,2.2651519775390625,-0.2838592529296875,0.37713623046875,0.0050168628804385,0.6052478551864624,1.3135091066360474,87.05616760253906,-46.84913635253906,233.5581970214844
1700075831,2.064315795898437,-0.0568695068359375,0.136627197265625,-0.8613142371177673,0.6556302905082703,1.7377933263778689,88.27818298339844,-47.70787048339844,234.009033203125
1700075831,1.330108642578125,0.1343536376953125,-0.2352294921875,-0.6361926794052124,0.3391256034374237,1.425245761871338,89.12710571289062,-48.56170654296875,234.03477478027344
1700075831,0.7407073974609375,0.1239166259765625,-0.508270263671875,-0.1418527364730835,0.009884588420391,0.7459263801574707,89.58094787597656,-49.39942932128906,234.1831817626953
1700075831,0.466217041015625,0.27716064453125,-0.7261199951171875,0.2739993333816528,0.0010857707820832,0.3441696166992187,91.09095764160156,-50.46490478515625,234.7432098388672
1700075831,0.5829925537109375,0.5159149169921875,-0.466339111328125,0.5908715724945068,0.14042529463768,0.0728507712483406,92.0922393798828,-51.36018371582031,234.7354431152344
1700075831,0.9103851318359376,0.4601287841796875,-0.201934814453125,0.6127108335494995,0.1546881198883056,-0.1320568323135376,93.20945739746094,-52.88624572753906,235.4055633544922
1700075831,1.0978546142578125,0.3027496337890625,-0.299041748046875,0.5176660418510437,0.1162597611546516,-0.2348324805498123,93.90510559082033,-54.237091064453125,235.69284057617188
1700075831,1.1096343994140625,0.145111083984375,-0.457061767578125,0.4104724824428558,0.0628572627902031,-0.2613498568534851,94.52273559570312,-55.23649597167969,235.4977264404297
1700075831,1.0283966064453125,-0.02294921875,-0.5157470703125,0.3059354126453399,-0.0067585702054202,-0.1552295386791229,95.64280700683594,-56.97270202636719,236.6727294921875
1700075831,0.9310760498046876,-0.0796356201171875,-0.505401611328125,0.2086512148380279,-0.0676972866058349,-0.0694251433014869,96.47688293457033,-58.15034484863281,236.525131225586
1700075831,0.899139404296875,-0.1025390625,-0.4624786376953125,0.1168419271707534,-0.097498595714569,-0.036622192710638,97.06710815429688,-60.12086486816406,236.9904327392578
1700075831,0.88134765625,-0.0633697509765625,-0.44854736328125,0.0921459048986435,-0.1016509905457496,-0.0264073722064495,98.18141174316406,-62.25944519042969,237.7627868652344
1700075831,0.903045654296875,0.0195770263671875,-0.4186248779296875,0.165682703256607,-0.0959052219986915,-0.0447315201163291,99.0112762451172,-64.1741943359375,237.6501617431641
1700075831,0.9482421875,0.1002197265625,-0.373138427734375,0.2991480827331543,-0.084269605576992,-0.1128578409552574,99.28044128417967,-66.20799255371094,237.9489288330078
1700075831,0.9616241455078124,0.15264892578125,-0.3349609375,0.4236223697662353,-0.0618886686861515,-0.1893547475337982,99.16609191894533,-68.15521240234375,237.4721221923828
1700075831,0.929931640625,0.155487060546875,-0.341888427734375,0.5054301619529724,-0.0341838039457798,-0.2353227734565735,100.01724243164062,-69.63661193847656,238.7678375244141
1700075831,0.8989410400390625,0.1168212890625,-0.370941162109375,0.5326665639877319,-0.0202749110758304,-0.2197153121232986,100.41380310058594,-71.33323669433594,239.4795379638672
1700075831,0.8976898193359375,0.053924560546875,-0.385223388671875,0.4790840446949005,-0.0113826170563697,-0.1851405650377273,100.71844482421876,-72.37380981445312,239.6090850830078
1700075831,0.9101409912109376,-0.001495361328125,-0.39678955078125,0.3985484540462494,-0.0044203149154782,-0.131723940372467,101.09161376953124,-73.810302734375,240.83555603027344
1700075831,0.920257568359375,-0.03533935546875,-0.385772705078125,0.3638890087604522,0.0062874569557607,-0.0790894925594329,101.39993286132812,-75.00213623046875,241.25198364257807
1700075831,0.9138336181640624,-0.0654296875,-0.3900909423828125,0.3774663209915161,0.0121227093040943,-0.0054139401763677,101.09996032714844,-76.66900634765625,241.17237854003903
1700075831,0.890899658203125,-0.064605712890625,-0.38604736328125,0.4157085120677948,0.0190027188509702,0.0726957768201828,101.25892639160156,-78.284423828125,241.7547607421875
1700075831,0.8694000244140625,-0.054351806640625,-0.366363525390625,0.459657609462738,0.0440452210605144,0.1363551765680313,101.4517822265625,-79.17735290527344,242.2337646484375
1700075831,0.86798095703125,-0.0282745361328125,-0.35211181640625,0.4710846841335296,0.0865308940410614,0.1902317255735397,101.501953125,-80.15899658203125,242.78585815429688
1700075831,0.905731201171875,0.00360107421875,-0.3292388916015625,0.4510920941829681,0.1261470168828964,0.232802614569664,101.6969757080078,-81.28013610839844,243.91314697265625
1700075831,0.9438934326171876,0.01385498046875,-0.3293914794921875,0.4512063264846802,0.1700598746538162,0.2890312671661377,101.9531707763672,-81.8612060546875,244.13650512695312
1700075831,0.9447021484375,0.0064239501953125,-0.3279266357421875,0.4805221557617187,0.2125535458326339,0.3578659892082214,101.49481201171876,-82.16722106933594,244.469482421875
1700075831,0.9317626953125,-0.030426025390625,-0.326629638671875,0.5155331492424011,0.2610936462879181,0.4384489953517914,101.44589233398438,-82.59397888183594,244.48629760742188
1700075831,0.900360107421875,-0.064422607421875,-0.35919189453125,0.5565540790557861,0.2995912432670593,0.5246749520301819,101.38223266601562,-82.8106689453125,245.0940399169922
1700075831,0.8802490234375,-0.0515899658203125,-0.345306396484375,0.5218767523765564,0.3348245918750763,0.6106758713722229,101.64102172851562,-83.09097290039062,244.8994903564453
1700075831,0.88873291015625,-0.011474609375,-0.347808837890625,0.5187156200408936,0.353297621011734,0.6900740265846252,101.6942138671875,-83.34405517578125,245.40353393554688
1700075831,0.896148681640625,0.0164794921875,-0.420867919921875,0.6200296878814697,0.3431272506713867,0.7348279356956482,101.45956420898438,-83.31350708007812,245.23670959472656
1700075831,0.9076995849609376,0.0179443359375,-0.4617156982421875,0.714449405670166,0.3390089571475982,0.7871547937393188,101.49510192871094,-83.15373229980469,244.91896057128903
1700075831,0.9208221435546876,0.030242919921875,-0.440399169921875,0.7665456533432007,0.3544606268405914,0.8525734543800354,101.15232849121094,-82.86337280273438,244.73194885253903
1700075831,0.93011474609375,0.021087646484375,-0.397491455078125,0.8661825060844421,0.3855580687522888,0.9424577951431274,101.2390594482422,-82.6597900390625,245.26980590820312
1700075831,0.9482269287109376,0.001220703125,-0.390350341796875,0.9620048999786376,0.412850946187973,1.033119559288025,101.26969909667967,-81.77616882324219,244.92955017089844
1700075831,0.9680328369140624,0.0133209228515625,-0.426361083984375,1.074581503868103,0.4592935442924499,1.100230693817139,101.35749816894533,-81.24801635742188,244.8029937744141
1700075831,0.9806671142578124,0.018280029296875,-0.3935546875,1.1803244352340698,0.5512285232543945,1.1606404781341553,101.49278259277344,-80.82890319824219,244.253662109375
1700075831,0.97900390625,0.0451812744140625,-0.389923095703125,1.374967098236084,0.6083953976631165,1.2197290658950806,101.18069458007812,-80.4183349609375,243.34225463867188
1700075831,1.020050048828125,0.087310791015625,-0.380828857421875,1.5268504619598389,0.6058561205863953,1.3105522394180298,99.71673583984376,-79.1644287109375,241.10760498046875
1700075831,1.1649017333984375,0.1698455810546875,-0.279144287109375,1.4844536781311035,0.6836196184158325,1.3881216049194336,100.19288635253906,-78.70062255859375,241.44549560546875
1700075831,1.2341156005859375,0.2154998779296875,-0.226348876953125,1.4962043762207031,0.771386981010437,1.44928777217865,100.55172729492188,-78.29664611816406,241.6489715576172
1700075831,1.252288818359375,0.207916259765625,-0.2428436279296875,1.4611555337905884,0.7639429569244385,1.575347900390625,100.492919921875,-78.37884521484375,241.8157501220703
1700075831,1.3673553466796875,0.2065277099609375,-0.27398681640625,1.4043549299240112,0.7589420676231384,1.71692955493927,100.2887725830078,-77.49197387695312,240.9287872314453
1700075831,1.4854736328125,0.1604461669921875,-0.318756103515625,1.3957693576812744,0.8439139127731323,1.8130444288253784,99.97726440429688,-76.59773254394531,240.04031372070312
1700075831,1.5235748291015625,0.0850067138671875,-0.2803955078125,1.4672528505325315,0.9672361612319946,1.8843052387237549,99.4037628173828,-75.77838134765625,239.628662109375
1700075831,1.546234130859375,0.0419921875,-0.19134521484375,1.5523139238357544,1.0704501867294312,1.9743869304656985,99.76190185546876,-75.463623046875,239.10494995117188
1700075831,1.6210174560546875,0.0208282470703125,-0.14923095703125,1.7129963636398315,1.1816635131835938,2.019540309906006,99.41911315917967,-75.03190612792969,238.2587432861328
1700075831,1.753875732421875,-0.0553131103515625,-0.1512908935546875,1.9458844661712649,1.282090425491333,1.999390244483948,98.89602661132812,-74.05506896972656,239.1000366210937
1700075831,1.855621337890625,-0.125885009765625,-0.1667633056640625,2.1734778881073,1.336974024772644,1.9235223531723025,99.046630859375,-73.70640563964844,239.0044708251953
1700075831,1.8964691162109373,-0.164886474609375,-0.191680908203125,2.5418074131011963,1.3956959247589111,1.7073967456817627,98.74664306640624,-73.60786437988281,239.4608764648437
1700075831,1.92279052734375,-0.3032379150390625,-0.1806793212890625,3.17060661315918,1.4723714590072632,1.3630114793777466,98.98031616210938,-73.57478332519531,239.0099029541016
1700075831,1.8653717041015625,-0.4680938720703125,-0.163970947265625,3.6742587089538574,1.511093020439148,1.235504388809204,98.63510131835938,-72.96943664550781,238.1516876220703
1700075831,1.5809478759765625,-0.3217620849609375,-0.3269195556640625,3.825118541717529,1.5557942390441897,1.351690649986267,98.04841613769533,-72.05216979980469,237.715072631836
1700075831,1.136871337890625,0.02825927734375,-0.68505859375,3.9644484519958496,1.4741946458816528,1.4320131540298462,98.00469970703124,-70.84979248046875,237.29489135742188
1700075831,0.799346923828125,0.2645721435546875,-0.88726806640625,3.9648382663726807,1.4449377059936523,1.3563047647476196,98.036865234375,-70.27642822265625,237.885498046875
1700075831,0.6448974609375,0.424072265625,-1.025848388671875,3.650325298309326,1.5075396299362185,1.067633032798767,98.08180236816406,-70.21064758300781,237.67079162597656
1700075831,0.6729278564453125,0.5519561767578125,-0.9588775634765624,3.305286169052124,1.6745368242263794,0.6620224118232727,98.17877197265624,-69.68666076660156,237.49354553222656
1700075831,0.726898193359375,0.7222747802734375,-0.6068878173828125,3.337758779525757,1.7869315147399902,0.2090075463056564,98.034912109375,-69.37684631347656,236.85333251953125
1700075831,0.6679534912109375,0.8466949462890625,-0.39019775390625,3.570607900619507,1.7692487239837646,-0.3567650318145752,97.9979248046875,-68.89830017089844,237.7723999023437
1700075831,0.630340576171875,0.6138916015625,-0.50750732421875,3.620225191116333,1.6661512851715088,-0.9136953949928284,97.91566467285156,-68.45767211914062,237.8484802246093
1700075831,0.5558929443359375,0.178558349609375,-0.5274200439453125,3.51608681678772,1.6522043943405151,-1.400881052017212,97.9770050048828,-68.44952392578125,237.50604248046875
1700075831,0.3909454345703125,-0.1558837890625,-0.36285400390625,3.2120344638824463,1.7770061492919922,-1.7677026987075806,97.71408081054688,-67.85888671875,237.63609313964844
1700075831,0.2066802978515625,-0.3814239501953125,-0.302947998046875,2.677231550216675,1.9329710006713867,-2.033836603164673,97.89193725585938,-67.60528564453125,237.03826904296875
1700075831,0.1231231689453125,-0.530609130859375,-0.2991943359375,2.147522211074829,1.9767608642578125,-2.238737106323242,97.85926818847656,-67.20562744140625,237.1194610595703
1700075831,0.207244873046875,-0.6515655517578125,-0.1520843505859375,1.7504206895828247,1.9514096975326536,-2.3634657859802246,97.99504089355467,-66.99824523925781,237.0347900390625
1700075831,0.369476318359375,-0.6728973388671875,0.0406036376953125,1.3146237134933472,1.8718253374099727,-2.4467926025390625,97.54295349121094,-66.26925659179688,236.76759338378903
1700075831,0.51177978515625,-0.4817047119140625,0.1328277587890625,0.8237192034721375,1.766603946685791,-2.5637309551239014,97.77362060546876,-65.87747192382812,236.57118225097656
1700075831,0.609222412109375,-0.1334381103515625,0.130096435546875,0.4215943813323974,1.6326769590377808,-2.699910879135132,97.40797424316406,-65.44969177246094,236.89422607421875
1700075831,0.6471405029296875,0.1559600830078125,0.121734619140625,0.1363258808851242,1.4838504791259766,-2.9701850414276123,97.43185424804688,-64.88778686523438,236.8420867919922
1700075831,0.7072906494140625,0.34429931640625,0.1465301513671875,0.1022683158516883,1.2915483713150024,-3.362609386444092,97.34628295898438,-64.40786743164062,236.41249084472656
1700075831,0.7980804443359375,0.383514404296875,0.219879150390625,0.2940265536308288,1.1191623210906982,-3.754236221313477,96.98277282714844,-63.95072937011719,236.5976104736328
1700075831,0.860015869140625,0.2907867431640625,0.2597808837890625,0.4462091624736786,0.9914889931678772,-4.04818058013916,96.36238098144533,-62.904876708984375,236.4587860107422
1700075831,0.8673553466796875,0.1874847412109375,0.2509002685546875,0.4568895101547241,0.8621448874473572,-4.247498989105225,96.12535095214844,-61.8675537109375,236.0127716064453
1700075831,0.873138427734375,0.122283935546875,0.2393951416015625,0.4773606956005096,0.7095273733139038,-4.353059768676758,95.8412628173828,-61.18357849121094,236.510986328125
1700075831,0.903472900390625,0.1141204833984375,0.2848968505859375,0.5376064777374268,0.5561671257019043,-4.379539012908936,94.95022583007812,-60.494049072265625,236.4109802246093
1700075831,0.966217041015625,0.161712646484375,0.3228302001953125,0.6180800199508667,0.3999673724174499,-4.3938822746276855,94.89811706542967,-59.89942932128906,235.57159423828125
1700075831,1.048919677734375,0.225128173828125,0.3060150146484375,0.746049165725708,0.1996398717164993,-4.42823600769043,94.75852966308594,-59.246002197265625,235.8742218017578
1700075831,1.1474151611328125,0.29998779296875,0.29949951171875,0.8819518685340881,-0.01729217171669,-4.5144877433776855,94.27455139160156,-58.15974426269531,235.810302734375
1700075831,1.260894775390625,0.372161865234375,0.2930145263671875,1.092837691307068,-0.2357022762298584,-4.649165630340576,93.89205932617188,-57.15328979492188,235.70703125
1700075831,1.3729400634765625,0.4199676513671875,0.29119873046875,1.3799490928649902,-0.4372899830341339,-4.812427997589111,93.32267761230467,-56.435455322265625,235.3390045166016
1700075831,1.45086669921875,0.4295196533203125,0.283935546875,1.729878067970276,-0.5700312256813049,-4.992865562438965,92.83453369140624,-55.27851867675781,235.5011749267578
1700075831,1.4439239501953125,0.407684326171875,0.243316650390625,2.0639572143554688,-0.6113004088401794,-5.090855121612549,91.9833984375,-54.63172912597656,235.08546447753903
1700075832,1.3716278076171875,0.3872222900390625,0.201751708984375,2.258040428161621,-0.6045274138450623,-5.072700023651123,91.58528137207033,-53.37222290039063,235.0798492431641
1700075832,1.310638427734375,0.3931427001953125,0.1520233154296875,2.375415802001953,-0.5531984567642212,-4.98469352722168,90.18034362792967,-52.417816162109375,234.79864501953125
1700075832,1.3679962158203125,0.398193359375,0.081390380859375,2.475306749343872,-0.5125098824501038,-4.877580642700195,89.89569091796875,-51.39517211914063,234.9938507080078
1700075832,1.4880523681640625,0.4281005859375,-0.0073699951171875,2.546415090560913,-0.4913625419139862,-4.758179664611816,88.99687194824219,-49.96554565429688,235.0082397460937
1700075832,1.610443115234375,0.493560791015625,-0.1147003173828125,2.498947858810425,-0.5166916251182556,-4.681539058685303,88.10514831542969,-48.89376831054688,234.93035888671875
1700075832,1.6744537353515625,0.551483154296875,-0.2126922607421875,2.298935890197754,-0.5870384573936462,-4.613114833831787,87.56533813476562,-47.85774230957031,235.13641357421875
1700075832,1.6430816650390625,0.592254638671875,-0.1906585693359375,2.009264707565308,-0.6376965641975403,-4.4810895919799805,86.80821228027344,-46.97308349609375,235.3880615234375
1700075832,1.5662841796875,0.5796966552734375,-0.046356201171875,1.7493319511413574,-0.6592263579368591,-4.1767120361328125,86.26976013183594,-46.13981628417969,235.48678588867188
1700075832,1.4657135009765625,0.5404205322265625,0.1276092529296875,1.6600100994110107,-0.7338902354240417,-3.718043327331543,85.20751953125,-45.055511474609375,235.7365875244141
1700075832,1.344512939453125,0.4878692626953125,0.1988525390625,1.5902917385101318,-0.9131460189819336,-3.2802734375,84.72618103027344,-43.96922302246094,235.8812255859375
1700075832,1.2706451416015625,0.469451904296875,0.1264495849609375,1.478503942489624,-1.1467121839523315,-2.9430150985717773,84.2283935546875,-43.302520751953125,236.194564819336
1700075832,1.2521209716796875,0.4822845458984375,0.0753936767578125,1.197934627532959,-1.2483303546905518,-2.643220901489258,83.63246154785156,-42.598541259765625,235.8007659912109
1700075832,1.2093048095703125,0.49755859375,0.025115966796875,1.003211498260498,-1.2633620500564575,-2.3133368492126465,83.26681518554688,-42.36540222167969,236.16702270507807
1700075832,1.121917724609375,0.4883270263671875,0.0119171142578125,0.9817817807197572,-1.2784619331359863,-1.967392444610596,82.84883117675781,-42.67601013183594,235.60679626464844
1700075832,1.0323944091796875,0.4546356201171875,-0.01971435546875,0.9833999276161194,-1.2468384504318235,-1.6286572217941284,82.32469177246094,-42.103118896484375,235.217041015625
1700075832,0.9525299072265624,0.432952880859375,-0.09735107421875,0.9228017926216124,-1.089680790901184,-1.3113620281219482,82.4737548828125,-42.33915710449219,235.8215789794922
1700075832,0.8500213623046875,0.4214935302734375,-0.1992034912109375,0.9642834663391112,-0.8685604333877563,-1.0141096115112305,82.33735656738281,-42.612579345703125,235.4568328857422
1700075832,0.7648773193359375,0.4383697509765625,-0.19354248046875,1.2098727226257324,-0.6974368691444397,-0.701819658279419,83.24748229980469,-42.54371643066406,235.77186584472656
1700075832,0.7805328369140625,0.5329742431640625,-0.215484619140625,1.4267642498016355,-0.5925599932670593,-0.4062263369560241,83.97596740722656,-42.98516845703125,236.4063873291016
1700075832,0.8440093994140625,0.6117095947265625,-0.3447723388671875,1.4903651475906372,-0.4545653760433197,-0.130150020122528,84.49418640136719,-43.57879638671875,236.15744018554688
1700075832,0.8330841064453125,0.6196746826171875,-0.4161376953125,1.3546853065490725,-0.3322557210922241,0.1565773636102676,85.6055908203125,-44.18084716796875,236.7063903808593
1700075832,0.787200927734375,0.5651397705078125,-0.4334564208984375,1.1285427808761597,-0.2728094160556793,0.4948456883430481,86.77439880371094,-45.02241516113281,237.1652984619141
1700075832,0.7554779052734375,0.4742584228515625,-0.441497802734375,0.8725426197052002,-0.063475377857685,0.7723366618156433,87.89175415039062,-45.798095703125,237.2027130126953
1700075832,0.7471923828125,0.3695526123046875,-0.6096343994140625,0.7114400267601013,-0.0919312536716461,1.133842945098877,89.181884765625,-46.61761474609375,237.69110107421875
1700075832,0.710601806640625,0.4009552001953125,-0.5914154052734375,0.6842619776725769,-0.1531573235988617,0.8917637467384338,90.18182373046876,-47.77491760253906,237.96090698242188
1700075832,1.1009979248046875,0.018310546875,-0.3391265869140625,0.5787810683250427,-0.1109009534120559,0.1822196096181869,91.57241821289062,-48.82249450683594,238.0165863037109
1700075832,1.361663818359375,-0.5820159912109375,-0.18963623046875,0.2238509356975555,-0.0092393048107624,-0.8346828818321228,92.78109741210938,-50.053314208984375,238.62701416015625
1700075832,1.4533843994140625,-1.13043212890625,-0.2211761474609375,0.0671750456094741,-0.1753600984811782,-1.0823874473571775,94.06187438964844,-51.01681518554688,239.5283050537109
1700075832,1.36553955078125,-1.1876678466796875,-0.160430908203125,-0.4375893175601959,-0.0222347322851419,0.3839961290359497,95.40022277832033,-52.96969604492188,239.68267822265625
1700075832,1.15765380859375,-0.7414093017578125,-0.541351318359375,-1.0054296255111694,0.4012912213802337,1.80543863773346,96.00724792480467,-54.62298583984375,239.9465484619141
1700075832,1.28814697265625,-0.72894287109375,-0.5384063720703125,-1.6026942729949951,0.4044777154922485,2.085172653198242,97.29376220703124,-56.39833068847656,240.4389038085937
1700075832,1.2874298095703125,-0.7276611328125,-0.253875732421875,-2.056556940078736,0.3930117189884186,2.256812572479248,98.15194702148438,-57.72889709472656,241.2707672119141
1700075832,0.913665771484375,-0.2593994140625,-0.27392578125,-2.0302445888519287,0.3950091004371643,2.1078414916992188,98.83087158203124,-59.03094482421875,241.51939392089844
1700075832,0.74884033203125,0.01947021484375,-0.2825927734375,-1.317122220993042,0.3212198317050934,1.473201870918274,99.7809600830078,-60.17774963378906,242.07766723632807
1700075832,0.760955810546875,0.112152099609375,-0.387176513671875,-0.822106122970581,0.368728756904602,1.020049810409546,100.10946655273438,-61.521087646484375,243.0528259277344
1700075832,0.885986328125,0.3636322021484375,-0.431793212890625,-0.7397270798683167,0.2947408258914947,1.024084448814392,100.89784240722656,-62.77067565917969,243.692123413086
1700075832,1.0545654296875,0.59320068359375,-0.173126220703125,-0.4256647527217865,0.2969517707824707,0.8453896045684814,101.87037658691406,-64.52777099609375,243.572998046875
1700075832,1.20831298828125,0.43170166015625,-0.10040283203125,0.2432736456394195,0.2859896719455719,0.5437756776809692,101.78802490234376,-66.24111938476562,244.2019195556641
1700075832,1.151458740234375,0.163055419921875,-0.17401123046875,0.7656934261322021,0.2395252436399459,0.4278485476970672,102.4310302734375,-68.04299926757812,244.293701171875
1700075832,0.99298095703125,0.061370849609375,-0.2264556884765625,1.0650087594985962,0.2260579019784927,0.3857889771461487,102.30389404296876,-69.09696960449219,244.756576538086
1700075832,0.9567718505859376,-0.0177764892578125,-0.203582763671875,1.0983206033706665,0.2258749455213546,0.3262380361557007,102.97142028808594,-70.06953430175781,245.2821807861328
1700075832,0.9999847412109376,-0.0457305908203125,-0.225830078125,0.969234824180603,0.2251106202602386,0.2407585531473159,102.966796875,-71.38150024414062,245.15579223632807
1700075832,1.0240631103515625,-0.067291259765625,-0.30316162109375,0.8397833704948425,0.195064827799797,0.1860170066356659,102.96517944335938,-71.93360900878906,245.9761962890625
1700075832,1.017791748046875,-0.123748779296875,-0.3377685546875,0.7478790283203125,0.1539794504642486,0.1944179534912109,103.38482666015624,-72.4427490234375,246.63690185546875
1700075832,0.974456787109375,-0.1902313232421875,-0.3333587646484375,0.6468424201011658,0.1195543631911277,0.2475112676620483,103.16009521484376,-72.69558715820312,246.57183837890625
1700075832,0.9321746826171876,-0.256988525390625,-0.301605224609375,0.4814853966236114,0.1225187256932258,0.3122500479221344,103.1694793701172,-73.23739624023438,247.0238647460937
1700075832,0.9073028564453124,-0.3149566650390625,-0.3097686767578125,0.3702417016029358,0.1118461042642593,0.4005335569381714,103.41242980957033,-73.66714477539062,246.33204650878903
1700075832,0.8894805908203125,-0.311126708984375,-0.3570709228515625,0.4070407450199127,0.0489204041659832,0.4693424701690674,103.24932861328124,-73.64878845214844,246.38699340820312
1700075832,0.91046142578125,-0.2636260986328125,-0.363739013671875,0.5460007786750793,0.0095772594213485,0.4831410944461822,103.58087158203124,-74.05767822265625,246.6006774902344
1700075832,0.9454498291015624,-0.21356201171875,-0.3201751708984375,0.6932069659233093,0.0030554446857422,0.4824097752571106,103.37942504882812,-74.04640197753906,246.9432067871093
1700075832,0.9502410888671876,-0.1488189697265625,-0.2991485595703125,0.7734965085983276,-0.0009278453071601,0.4632630050182342,103.26260375976562,-73.69187927246094,246.020248413086
1700075832,0.953521728515625,-0.115814208984375,-0.3082122802734375,0.8284471035003662,-0.0030107034835964,0.4623934626579284,103.06207275390624,-73.83206176757812,246.45828247070312
1700075832,0.94012451171875,-0.112518310546875,-0.3218231201171875,0.8330799341201782,-0.0207992885261774,0.4717592895030975,102.7091827392578,-73.53102111816406,246.3019256591797
1700075832,0.93548583984375,-0.1138458251953125,-0.3177947998046875,0.7688255906105042,-0.0273096524178981,0.4856082499027252,102.885498046875,-73.42471313476562,246.1775360107422
1700075832,0.94110107421875,-0.1195831298828125,-0.2960662841796875,0.6643915772438049,-6.79106087773e-05,0.5038508772850037,102.77456665039062,-73.09321594238281,246.2772674560547
1700075832,0.9429168701171876,-0.1312713623046875,-0.27716064453125,0.5863378047943115,0.0301704183220863,0.5268052220344543,102.58421325683594,-72.61231994628906,246.0919952392578
1700075832,0.9439849853515624,-0.1531524658203125,-0.2658843994140625,0.5174460411071777,0.0514677166938781,0.525562047958374,102.46315002441406,-72.47569274902344,245.4854278564453
1700075832,0.951507568359375,-0.202972412109375,-0.2848052978515625,0.4233701825141907,0.0591815635561943,0.5388951897621155,102.40296936035156,-72.11763000488281,245.74794006347656
1700075832,0.941619873046875,-0.21673583984375,-0.330841064453125,0.3551524877548218,0.0270294863730669,0.5538687705993652,101.77476501464844,-71.43553161621094,244.9594268798828
1700075832,0.951507568359375,-0.172760009765625,-0.35400390625,0.3233501017093658,-0.0249868426471948,0.5611885190010071,101.46591186523438,-70.80300903320312,244.3075408935547
1700075832,0.978302001953125,-0.0592193603515625,-0.3725738525390625,0.3770167827606201,-0.0820013955235481,0.521677553653717,100.02760314941406,-69.30458068847656,242.46202087402344
1700075832,1.0090484619140625,0.066925048828125,-0.3405609130859375,0.5011435151100159,-0.0904785022139549,0.4325878918170929,100.54988098144533,-68.82064819335938,242.7187957763672
1700075832,1.009246826171875,0.1288299560546875,-0.2784271240234375,0.6323148608207703,-0.0525620095431804,0.3491018116474151,100.3960418701172,-68.94891357421875,243.51290893554688
1700075832,0.963897705078125,0.1085968017578125,-0.2483673095703125,0.6838259696960449,-0.0317131876945495,0.3140183687210083,100.42564392089844,-69.22543334960938,243.43165588378903
1700075832,0.9269256591796876,-0.000335693359375,-0.2560272216796875,0.6480157971382141,-0.0103149553760886,0.3535096049308777,100.11895751953124,-69.10833740234375,242.6459503173828
1700075832,0.9113922119140624,-0.1187744140625,-0.27252197265625,0.5122278928756714,0.017828531563282,0.4504404067993164,99.78036499023438,-68.68980407714844,242.4015350341797
1700075832,0.905548095703125,-0.174957275390625,-0.299102783203125,0.3141747117042541,0.0406547524034976,0.5285554528236389,100.03631591796876,-68.13777160644531,242.2559509277344
1700075832,0.9247283935546876,-0.2046966552734375,-0.302459716796875,0.2074186950922012,0.0735692903399467,0.5990740656852722,99.44517517089844,-67.23884582519531,241.63821411132807
1700075832,0.9304046630859376,-0.2180938720703125,-0.270782470703125,0.1790629625320434,0.1135899424552917,0.6696369647979736,99.0198974609375,-66.89215087890625,241.1807403564453
1700075832,0.93365478515625,-0.20330810546875,-0.2747650146484375,0.2147615700960159,0.1284876614809036,0.720876932144165,98.30963134765624,-66.25473022460938,240.16476440429688
1700075832,0.9530487060546876,-0.170318603515625,-0.2945556640625,0.2696016430854797,0.1402007788419723,0.7974787950515747,97.69891357421876,-64.79878234863281,239.9398803710937
1700075832,0.9508514404296876,-0.0794219970703125,-0.3048248291015625,0.3073024153709411,0.1360313445329666,0.8591613173484802,97.56379699707033,-64.40809631347656,239.3975067138672
1700075832,0.9535675048828124,0.0022125244140625,-0.28497314453125,0.3486551940441131,0.1749084293842315,0.8864986896514893,97.45082092285156,-64.40252685546875,239.84825134277344
1700075832,0.95062255859375,0.024871826171875,-0.258819580078125,0.389578640460968,0.2339176833629608,0.936807096004486,97.49569702148438,-64.64283752441406,239.61280822753903
1700075832,0.9162750244140624,0.02490234375,-0.2352447509765625,0.4105443954467773,0.2976175844669342,1.0092517137527466,97.37532043457033,-64.16352844238281,239.4315643310547
1700075832,0.8940582275390625,-0.010711669921875,-0.2164459228515625,0.4165783226490021,0.3843141198158264,1.156917929649353,97.32917785644533,-63.71253967285156,238.7341461181641
1700075832,0.8555908203125,-0.0157623291015625,-0.2308349609375,0.3764202296733856,0.452522724866867,1.2860543727874756,96.78660583496094,-63.003021240234375,239.0638427734375
1700075832,0.8665313720703125,-0.0629425048828125,-0.20233154296875,0.2778771519660949,0.5644111633300781,1.3620340824127195,96.70932006835938,-63.15040588378906,238.85699462890625
1700075832,0.892486572265625,-0.1756591796875,-0.1538238525390625,0.1335660517215728,0.7555004358291626,1.4582133293151855,96.76315307617188,-62.99507141113281,239.2082977294922
1700075832,0.886962890625,-0.2526092529296875,-0.2064666748046875,0.0163211822509765,0.8647611737251282,1.52895987033844,96.5418701171875,-62.843841552734375,239.472900390625
1700075832,0.9234161376953124,-0.294219970703125,-0.2965087890625,0.07383693754673,0.9045144319534302,1.6237988471984863,96.78504943847656,-62.56927490234375,239.23194885253903
1700075832,0.9451904296875,-0.2354736328125,-0.3824005126953125,0.2808449864387512,0.8884491920471191,1.7951847314834597,96.14263916015624,-62.2904052734375,238.7630615234375
1700075832,0.9111785888671876,-0.02783203125,-0.42816162109375,0.4475836455821991,0.8169755339622498,1.8871604204177856,96.41944885253906,-62.11636352539063,238.9840087890625
1700075832,0.8981781005859375,0.2187652587890625,-0.3709259033203125,0.519357442855835,0.8662288188934326,1.877623081207276,96.31161499023438,-61.85519409179688,238.9916534423828
1700075832,0.892242431640625,0.3651123046875,-0.2618560791015625,0.6669492721557617,1.0149658918380735,1.813249945640564,96.12315368652344,-61.6485595703125,238.97134399414065
1700075832,0.8455047607421875,0.39508056640625,-0.1836395263671875,0.9332054853439332,1.1332858800888062,1.810256600379944,96.0304718017578,-61.0819091796875,239.30322265625
1700075832,0.7880859375,0.370391845703125,-0.21905517578125,1.0464142560958862,1.1968568563461304,1.8255598545074463,95.9274444580078,-60.6324462890625,239.08116149902344
1700075832,0.8687896728515625,0.227264404296875,-0.245758056640625,1.0089260339736938,1.2955434322357178,1.829838275909424,95.95706176757812,-60.36152648925781,238.880615234375
1700075832,1.0380706787109375,0.01007080078125,-0.3041534423828125,0.9388574957847596,1.3843377828598022,1.8110747337341309,95.76951599121094,-59.58737182617188,238.58758544921875
1700075832,1.1957550048828125,-0.1198577880859375,-0.4483795166015625,1.109184980392456,1.3960644006729126,1.8495744466781616,95.25364685058594,-59.43389892578125,238.513427734375
1700075832,1.188018798828125,-0.1381378173828125,-0.61639404296875,1.515058517456055,1.270175218582153,2.072914123535156,95.34677124023438,-58.58512878417969,238.31204223632807
1700075832,1.10162353515625,0.0159149169921875,-0.594146728515625,1.7166030406951904,1.124426007270813,2.2022416591644287,94.85556030273438,-58.47853088378906,237.9911499023437
1700075832,0.9838104248046876,0.233673095703125,-0.4341888427734375,1.6414835453033447,1.1376057863235474,2.1305177211761475,94.38333129882812,-57.69841003417969,238.2594757080078
1700075832,0.8071136474609375,0.47515869140625,-0.4350738525390625,1.5907812118530271,1.170075297355652,2.024708032608032,93.8164520263672,-57.1680908203125,238.34532165527344
1700075832,0.7357635498046875,0.67437744140625,-0.35125732421875,1.6111581325531006,1.20997154712677,1.9117674827575684,93.75300598144533,-56.34326171875,237.64376831054688
1700075832,0.832000732421875,0.698089599609375,-0.2398834228515625,1.593131184577942,1.1809366941452026,1.8677440881729128,93.80319213867188,-55.199951171875,238.0953063964844
1700075832,0.8682861328125,0.5886077880859375,-0.2768096923828125,1.504220724105835,1.1507971286773682,1.8870009183883667,92.76919555664062,-54.79331970214844,238.1386108398437
1700075832,0.7633056640625,0.43548583984375,-0.339752197265625,1.3039408922195437,1.1474738121032717,2.001516103744507,92.06236267089844,-54.03765869140625,237.34130859375
1700075832,0.5346832275390625,0.3835296630859375,-0.3623504638671875,1.1388310194015503,1.1526861190795898,2.0281269550323486,91.63465881347656,-53.08854675292969,237.5077209472656
1700075833,0.3080596923828125,0.39129638671875,-0.4157257080078125,1.0760304927825928,1.2603505849838257,1.952773809432984,90.96795654296876,-51.91435241699219,237.2370147705078
1700075833,0.3387451171875,0.5234222412109375,-0.5141754150390625,1.1461504697799685,1.268237829208374,1.8787206411361688,90.13389587402344,-51.095458984375,237.38235473632807
1700075833,0.6894683837890625,0.711273193359375,-0.424652099609375,1.230376958847046,1.2981722354888916,1.858466386795044,89.70118713378906,-50.120452880859375,237.07839965820312
1700075833,1.0880889892578125,0.8011627197265625,-0.4723052978515625,1.2680076360702517,1.2891265153884888,1.8147988319396973,88.86392211914062,-49.16474914550781,237.01356506347656
1700075833,1.49822998046875,0.7125396728515625,-0.57305908203125,1.2727701663970947,1.149730563163757,1.8563673496246336,87.95016479492188,-48.22673034667969,236.85020446777344
1700075833,1.8493194580078125,0.5369110107421875,-0.5944061279296875,1.386065125465393,1.0002214908599854,2.03414249420166,87.32032775878906,-47.73728942871094,237.1414489746093
1700075833,1.9970855712890625,0.3171844482421875,-0.4707489013671875,1.459467887878418,0.9082494974136353,2.23233699798584,85.92889404296875,-46.61468505859375,236.34768676757807
1700075833,2.11932373046875,0.138397216796875,-0.4064788818359375,1.4330687522888184,0.7427012920379639,2.4082255363464355,85.52812194824219,-45.45074462890625,236.42556762695312
1700075833,2.16168212890625,0.0789031982421875,-0.447967529296875,1.3190295696258545,0.486145943403244,2.4953482151031494,84.55023193359375,-44.27130126953125,236.92623901367188
1700075833,2.051544189453125,0.046722412109375,-0.4906768798828125,1.0556488037109375,0.2212335765361786,2.448093175888061,83.240234375,-43.57771301269531,236.12754821777344
1700075833,1.729705810546875,0.06427001953125,-0.472259521484375,0.7515456676483154,0.0022575615439563,2.26191782951355,82.77284240722656,-42.60289001464844,237.0175018310547
1700075833,1.2885284423828125,0.09820556640625,-0.3839263916015625,0.5508580803871155,-0.195275217294693,1.894921898841858,81.67500305175781,-41.584014892578125,237.1327972412109
1700075833,0.8917388916015625,0.11077880859375,-0.256561279296875,0.340146392583847,-0.2894821465015411,1.4236379861831665,80.31488037109375,-40.85581970214844,237.2688140869141
1700075833,0.5059661865234375,0.1236572265625,-0.262969970703125,0.226858451962471,-0.225905567407608,0.7626475691795349,79.65957641601562,-40.07722473144531,236.91639709472656
1700075833,0.1540679931640625,0.014984130859375,-0.3605499267578125,0.3472048342227936,-0.2469288259744644,0.2134140133857727,78.2015380859375,-39.01702880859375,236.7238006591797
1700075833,-0.24249267578125,-0.04266357421875,-0.3744354248046875,0.5006330013275146,-0.3642746210098266,-0.3331433534622192,77.22433471679688,-38.4779052734375,236.65591430664065
1700075833,-0.5595855712890625,-0.1248626708984375,-0.27130126953125,0.6200478076934814,-0.5293746590614319,-1.0646483898162842,76.04850769042969,-37.88810729980469,236.8855895996093
1700075833,-0.6952056884765625,-0.26171875,-0.12542724609375,0.6201013326644897,-0.5143038034439087,-1.8763903379440308,75.25775146484375,-37.02629089355469,236.51612854003903
1700075833,-0.6290283203125,-0.2820892333984375,-0.2880706787109375,0.7494582533836365,-0.4901702404022217,-2.4959678649902344,74.73866271972656,-37.21379089355469,236.0096435546875
1700075833,-0.239654541015625,-0.1082000732421875,-0.3791656494140625,0.8822354674339294,-0.6140019297599792,-2.998502731323242,74.11956787109375,-37.04937744140625,235.9252777099609
1700075833,0.222747802734375,-0.119781494140625,-0.07012939453125,0.9876335263252258,-0.7581926584243774,-3.569596767425537,73.49079895019531,-37.05865478515625,235.76275634765625
1700075833,0.5233001708984375,-0.31243896484375,0.13232421875,0.8209322094917297,-0.8445807695388794,-3.9883453845977774,73.0189208984375,-37.396240234375,235.18325805664065
1700075833,0.612274169921875,-0.401519775390625,0.0894927978515625,0.3468919098377228,-0.8012548685073853,-3.934929847717285,72.82562255859375,-37.10748291015625,234.8301696777344
1700075833,0.5420379638671875,-0.215087890625,-0.133331298828125,-0.0616577714681625,-0.8127754330635071,-3.8570849895477295,72.95158386230469,-36.93989562988281,235.4268493652344
1700075833,0.542938232421875,-0.0800018310546875,-0.2852630615234375,-0.386289119720459,-0.84280925989151,-3.996501445770264,73.80488586425781,-37.20951843261719,235.02590942382807
1700075833,0.6197967529296875,-0.0157470703125,-0.3439483642578125,-0.6928519606590271,-0.82383131980896,-4.175530910491943,74.28581237792969,-37.91285705566406,235.02232360839844
1700075833,0.6946868896484375,0.09051513671875,-0.331787109375,-0.8571442365646362,-0.8118734359741211,-4.2848734855651855,75.45291137695312,-38.279571533203125,234.7378692626953
1700075833,0.77813720703125,0.220367431640625,-0.2458953857421875,-0.8043907284736633,-0.8796884417533875,-4.295154094696045,76.33697509765625,-38.54389953613281,234.1690368652344
1700075833,0.87646484375,0.3854217529296875,-0.1567840576171875,-0.6408737301826477,-1.0347884893417358,-4.225611209869385,77.20574951171875,-39.02891540527344,234.61366271972656
1700075833,0.9729461669921876,0.5720977783203125,-0.151947021484375,-0.3619827032089233,-1.1568933725357056,-4.208119869232178,78.28208923339844,-39.29388427734375,234.96774291992188
1700075833,1.1069488525390625,0.7238922119140625,-0.14459228515625,0.1593840718269348,-1.260462999343872,-4.2497076988220215,79.57218933105469,-39.96681213378906,234.8632049560547
1700075833,1.2042236328125,0.87457275390625,-0.0418853759765625,0.8241658210754395,-1.2976866960525513,-4.366118907928467,81.25454711914062,-40.85746765136719,235.7988739013672
1700075833,1.2799072265625,0.9640655517578124,0.0168609619140625,1.285820245742798,-1.2952425479888916,-4.528950214385986,82.64045715332031,-41.30905151367188,235.88088989257807
1700075833,1.3579254150390625,0.9863739013671876,-0.008544921875,1.3746302127838137,-1.1748676300048828,-4.6007256507873535,84.01060485839844,-42.242584228515625,236.2190704345703
1700075833,1.369964599609375,1.003265380859375,-0.1922454833984375,1.1391091346740725,-1.0599298477172852,-4.539573669433594,85.25924682617188,-42.946563720703125,236.6192321777344
1700075833,1.38726806640625,1.00982666015625,-0.3699951171875,0.6778061985969543,-1.099605917930603,-4.30194091796875,86.77565002441406,-43.79780578613281,236.4169464111328
1700075833,1.4296875,1.027679443359375,-0.454376220703125,0.1903478354215622,-1.1440268754959106,-3.9630439281463614,87.80326843261719,-44.79547119140625,236.8365631103516
1700075833,1.4244537353515625,0.9803924560546876,-0.5252532958984375,-0.1183338314294815,-1.1307976245880127,-3.60710883140564,89.00422668457031,-45.93423461914063,236.9063415527344
1700075833,1.372894287109375,0.8949432373046875,-0.5257415771484375,-0.3233647346496582,-1.0516003370285034,-3.228322029113769,90.30923461914062,-47.21485900878906,237.0404663085937
1700075833,1.2696533203125,0.832061767578125,-0.5108795166015625,-0.518233060836792,-1.0011826753616333,-2.8098926544189453,91.5744171142578,-48.77325439453125,237.443603515625
1700075833,1.1453094482421875,0.7887420654296875,-0.478118896484375,-0.6648483276367188,-0.9848816990852356,-2.434185028076172,92.6064910888672,-49.82621765136719,237.1576995849609
1700075833,1.050506591796875,0.7367706298828125,-0.416259765625,-0.6195159554481506,-0.9545605778694152,-2.0930252075195312,93.66726684570312,-51.79862976074219,237.4587860107422
1700075833,1.0289306640625,0.701995849609375,-0.3203277587890625,-0.419603943824768,-0.9060776829719543,-1.837070345878601,94.89173889160156,-52.808685302734375,237.36671447753903
1700075833,1.0699462890625,0.6740570068359375,-0.226226806640625,-0.0558856353163719,-0.8703359365463257,-1.675081729888916,95.16593933105467,-54.18280029296875,237.5973663330078
1700075833,1.1374053955078125,0.65679931640625,-0.1800994873046875,0.4403440952301025,-0.8761645555496216,-1.5829733610153198,95.9271240234375,-55.465728759765625,237.52296447753903
1700075833,1.175750732421875,0.6779632568359375,-0.1589508056640625,0.9840018153190612,-0.883154571056366,-1.5298528671264648,96.61686706542967,-56.74949645996094,237.80039978027344
1700075833,1.134613037109375,0.715087890625,-0.16375732421875,1.4562926292419434,-0.8031175136566162,-1.496643304824829,97.5478515625,-58.26515197753906,238.30548095703125
1700075833,0.9855804443359376,0.6948394775390625,-0.2000732421875,1.8277655839920044,-0.600046694278717,-1.432093858718872,98.32673645019533,-60.16300964355469,238.5606689453125
1700075833,0.785919189453125,0.591522216796875,-0.2231597900390625,2.0939981937408447,-0.3508472442626953,-1.3178399801254272,98.58634948730467,-60.936614990234375,238.8161163330078
1700075833,0.6214447021484375,0.4524688720703125,-0.216339111328125,2.192862033843994,-0.1313758641481399,-1.1425528526306152,98.92604064941406,-62.26675415039063,239.00759887695312
1700075833,0.580474853515625,0.32110595703125,-0.195770263671875,2.1053249835968018,-0.0009390306076966,-0.9311960935592652,99.45570373535156,-63.30302429199219,239.15997314453125
1700075833,0.6647186279296875,0.200103759765625,-0.18145751953125,1.8742371797561648,0.0255671460181474,-0.6626826524734497,99.383056640625,-63.8687744140625,238.9709930419922
1700075833,0.7769775390625,0.12677001953125,-0.178619384765625,1.5021363496780396,0.0182876605540514,-0.3513156771659851,99.59689331054688,-64.68211364746094,239.74948120117188
1700075833,0.8632354736328125,0.0795745849609375,-0.2087249755859375,1.0341746807098389,0.0192655734717845,-0.0645009651780128,99.9217529296875,-65.12234497070312,239.88937377929688
1700075833,0.8931121826171875,0.0140838623046875,-0.249237060546875,0.5243239402770996,0.0570454411208629,0.1951809376478195,100.08644104003906,-65.92124938964844,240.45008850097656
1700075833,0.8585662841796875,-0.051025390625,-0.2957611083984375,-0.0051974253728985,0.1105044037103653,0.4329311847686767,100.14756774902344,-66.20993041992188,240.11724853515625
1700075833,0.7927398681640625,-0.09747314453125,-0.3267822265625,-0.4463495314121246,0.1407368779182434,0.6716116666793823,99.90814208984376,-66.20304870605469,240.06076049804688
1700075833,0.7276153564453125,-0.1215057373046875,-0.2911224365234375,-0.8373308777809143,0.2250464260578155,0.9466056823730468,99.99485778808594,-66.11271667480469,240.26248168945312
1700075833,0.6607208251953125,-0.0962677001953125,-0.288330078125,-1.2144269943237305,0.3767880201339721,1.1666672229766846,100.12583923339844,-65.90364074707031,240.21823120117188
1700075833,0.6178741455078125,-0.0392913818359375,-0.3632354736328125,-1.6388834714889526,0.7020388245582581,1.2269678115844729,99.61764526367188,-65.72454833984375,240.1625823974609
1700075833,0.603363037109375,0.044097900390625,-0.597198486328125,-1.944846034049988,0.7089167237281799,1.411951780319214,99.5240478515625,-65.14866638183594,240.1546630859375
1700075833,0.5576171875,0.2043304443359375,-0.5370330810546875,-2.0560719966888428,0.9217325448989868,1.638548493385315,98.96530151367188,-64.666748046875,239.78944396972656
1700075833,0.7359466552734375,0.3522186279296875,-0.7390594482421875,-1.484095811843872,3.413992404937744,1.829431653022766,99.15103149414062,-64.23371887207031,240.6005706787109
1700075833,0.085235595703125,0.646331787109375,-2.778076171875,-0.1137033924460411,2.0825769901275635,2.5048813819885254,98.9999542236328,-63.45219421386719,240.1967315673828
1700075833,0.46466064453125,1.5113067626953125,-1.7286529541015625,-0.4539616405963897,-1.5271135568618774,2.3566536903381348,98.1223602294922,-62.84239196777344,239.8350524902344
1700075833,3.64691162109375,0.55267333984375,0.9551544189453124,0.8745402693748474,0.2110621780157089,0.1218902170658111,98.07951354980467,-62.04719543457031,240.4770050048828
1700075833,3.00244140625,-1.1667633056640625,-0.142425537109375,1.939504623413086,1.3567641973495483,-0.3072539567947387,98.06590270996094,-61.31504821777344,240.27713012695312
1700075833,1.2454833984375,-0.72698974609375,0.8670654296875,1.7647076845169067,1.4870007038116455,-0.0613778717815876,96.945556640625,-60.466583251953125,240.23019409179688
1700075833,0.678863525390625,-0.434356689453125,0.360382080078125,1.0024473667144775,1.1276886463165283,0.0797992274165153,96.814453125,-59.66358947753906,240.69204711914065
1700075833,0.626556396484375,-0.467193603515625,-0.21697998046875,-0.0139821283519268,0.6444636583328247,0.3438018560409546,96.17657470703124,-59.173919677734375,240.3546905517578
1700075833,0.97381591796875,-0.456878662109375,-0.1236724853515625,-0.6076287031173706,0.6837186813354492,0.7620430588722229,95.31101989746094,-58.449005126953125,239.73716735839844
1700075833,1.3697967529296875,-0.4234771728515625,-0.0407257080078125,-1.0090365409851074,0.7254487872123718,1.209461331367493,94.00544738769533,-57.8787841796875,239.15426635742188
1700075833,1.647125244140625,-0.1985626220703125,0.017120361328125,-1.391449213027954,0.6735541820526123,1.5801469087600708,92.68228149414062,-57.166107177734375,238.451904296875
1700075833,1.5759429931640625,0.1957550048828125,-0.13006591796875,-1.407909870147705,0.3833271563053131,1.384740710258484,90.56663513183594,-55.621124267578125,237.230712890625
1700075833,1.300872802734375,0.3185272216796875,-0.1843109130859375,-1.10476815700531,0.1750170886516571,0.7878679633140564,90.10635375976562,-55.22113037109375,237.8588104248047
1700075833,1.223541259765625,0.1829071044921875,-0.0332183837890625,-0.5916388034820557,0.4691813290119171,0.3757597804069519,89.98625183105469,-55.570343017578125,238.40182495117188
1700075833,1.8223114013671875,-0.264892578125,0.1538543701171875,0.0709532722830772,0.9005878567695618,0.2487815916538238,88.87620544433594,-54.50956726074219,238.8105010986328
1700075833,2.419784545898437,-0.4551239013671875,0.1348114013671875,0.0369233973324298,1.0325099229812622,1.1955982446670532,87.99879455566406,-53.52195739746094,238.3647918701172
1700075833,1.98974609375,0.0979461669921875,-0.2966766357421875,0.0197265669703483,0.5794798731803894,1.7708625793457031,87.3612060546875,-53.65666198730469,237.7385406494141
1700075833,1.1797943115234375,0.24298095703125,-0.436676025390625,-0.1298235058784485,-0.0172168035060167,1.3743101358413696,86.36332702636719,-53.44775390625,237.70950317382807
1700075833,0.7347259521484375,0.20068359375,-0.6423187255859375,-0.5222395062446594,-0.2065427899360656,0.7340713143348694,85.89254760742188,-53.73857116699219,236.6461944580078
1700075833,0.5810699462890625,0.4534149169921875,-0.500335693359375,-0.2608619630336761,0.1243078336119651,0.407208502292633,84.20362854003906,-54.13172912597656,235.80015563964844
1700075833,0.559356689453125,0.6297149658203125,-0.102203369140625,0.3984512388706207,0.30499267578125,0.236773133277893,83.13104248046875,-54.47407531738281,235.2202911376953
1700075833,0.78564453125,0.40753173828125,-0.1609954833984375,0.5995835661888123,0.1185628622770309,0.0919192731380462,82.52285766601562,-54.28681945800781,234.6205596923828
1700075833,1.0650634765625,0.3220672607421875,-0.4211578369140625,0.5493262410163879,-0.087051548063755,0.0277679823338985,82.32821655273438,-53.83219909667969,235.47286987304688
1700075833,1.15447998046875,0.2289886474609375,-0.446319580078125,0.3459874987602234,-0.0959401130676269,-0.0437117926776409,82.22488403320312,-53.61857604980469,235.2436981201172
1700075833,1.1260223388671875,0.001495361328125,-0.320159912109375,0.1850316375494003,0.0107738180086016,0.0237929467111825,82.05662536621094,-53.721099853515625,236.1292419433593
1700075833,0.985565185546875,-0.081268310546875,-0.2776031494140625,0.1027077361941337,-0.0147286122664809,0.1963127851486206,81.5853271484375,-53.66883850097656,235.620346069336
1700075833,0.9119873046875,-0.0060577392578125,-0.3518218994140625,0.0772292762994766,-0.1206049770116806,0.2287996262311935,81.28462219238281,-53.00289916992188,235.5365600585937
1700075833,0.98345947265625,0.08782958984375,-0.3861083984375,0.0963662192225456,-0.1543118059635162,0.1858327090740203,80.80397033691406,-52.72918701171875,234.77603149414065
1700075833,0.984161376953125,0.211212158203125,-0.3484649658203125,0.1525080502033233,-0.1297609210014343,0.1058771610260009,80.75115966796875,-52.54118347167969,234.58477783203125
1700075833,0.9399871826171876,0.2725372314453125,-0.2629547119140625,0.1840542554855346,-0.0506719648838043,0.043819386512041,80.46728515625,-52.47917175292969,234.87176513671875
1700075833,0.890380859375,0.2512664794921875,-0.1738128662109375,0.1838398724794387,0.0583333484828472,0.0423541143536567,80.54542541503906,-52.10173034667969,234.51199340820312
1700075833,0.829559326171875,0.1430511474609375,-0.179046630859375,0.1789878606796264,0.1362273395061493,0.1343250572681427,80.78346252441406,-51.949127197265625,234.6605987548828
1700075833,0.808013916015625,0.0096893310546875,-0.2525482177734375,0.1786981076002121,0.1653439551591873,0.3519673645496368,80.39677429199219,-51.98922729492188,235.05552673339844
1700075833,0.8300933837890625,-0.0568695068359375,-0.293365478515625,0.1944802701473236,0.1973911076784134,0.6224191188812256,80.52322387695312,-51.68882751464844,235.01727294921875
1700075833,0.855560302734375,-0.0942840576171875,-0.2849273681640625,0.194544717669487,0.2729018330574035,0.8043396472930908,80.72201538085938,-51.70416259765625,235.1612243652344
1700075833,0.90093994140625,-0.1856536865234375,-0.213226318359375,0.2088397592306137,0.3887815773487091,0.9304432272911072,80.90821838378906,-51.74375915527344,235.62603759765625
1700075833,0.919097900390625,-0.27764892578125,-0.163177490234375,0.2897583246231079,0.5437282919883728,1.1373043060302734,80.87779235839844,-51.65960693359375,235.320541381836
1700075833,0.8721466064453125,-0.2449951171875,-0.265045166015625,0.4544572532176971,0.5846394896507263,1.363828182220459,80.63270568847656,-51.56285095214844,234.9485015869141
1700075834,0.862762451171875,-0.125732421875,-0.2859649658203125,0.4746314883232116,0.6092196702957153,1.4766255617141724,80.63166809082031,-51.82801818847656,235.5219116210937
1700075834,0.87689208984375,0.0731353759765625,-0.2676544189453125,0.3969063460826874,0.6744831204414368,1.5137325525283811,81.07421875,-51.624053955078125,235.6013336181641
1700075834,0.8444366455078125,0.2604827880859375,-0.2566375732421875,0.4187727570533752,0.7658318877220154,1.4587347507476809,80.98640441894531,-51.20249938964844,235.71923828125
1700075834,0.8532562255859375,0.3145904541015625,-0.1897430419921875,0.5643019676208496,0.8585293889045715,1.3987758159637451,81.21856689453125,-51.24745178222656,235.61001586914065
1700075834,0.9001922607421875,0.249481201171875,-0.19805908203125,0.752336859703064,0.9380436539649964,1.4342832565307615,81.28446960449219,-51.40087890625,235.45016479492188
1700075834,0.9568634033203124,0.1515045166015625,-0.2711639404296875,0.8247714042663574,0.9688481688499452,1.5258663892745972,81.32392883300781,-51.343048095703125,235.9812927246093
1700075834,0.9831390380859376,0.073089599609375,-0.3592987060546875,0.739545464515686,0.9634770750999452,1.6548776626586914,81.59782409667969,-51.30104064941406,235.97576904296875
1700075834,0.9429931640625,0.11663818359375,-0.457855224609375,0.7322403788566589,0.9851166009902954,1.8449913263320925,81.70545959472656,-51.114105224609375,236.4786529541016
1700075834,0.925445556640625,0.1747894287109375,-0.4530029296875,0.8122995495796204,1.0075819492340088,1.9699900150299072,81.51325988769531,-51.084381103515625,236.0940856933593
1700075834,1.0312042236328125,0.1768035888671875,-0.3459320068359375,0.8861737847328186,1.0441466569900513,2.063740491867065,81.73043823242188,-50.88009643554688,236.39537048339844
1700075834,1.04144287109375,0.1728973388671875,-0.3717193603515625,0.9125824570655824,1.0381675958633425,2.0877251625061035,81.3896484375,-50.68695068359375,236.50711059570312
1700075834,0.9077606201171876,0.1875,-0.4717254638671875,0.9219077825546264,0.9580658078193665,2.1411519050598145,81.30738830566406,-50.43318176269531,236.4978179931641
1700075834,0.621185302734375,0.3336029052734375,-0.5199127197265625,0.7838479280471802,0.8817252516746521,2.07815933227539,80.85031127929688,-50.20735168457031,236.17672729492188
1700075834,0.5752716064453125,0.57818603515625,-0.4501495361328125,0.7043922543525696,0.8978884816169739,1.957218050956726,81.00154113769531,-50.2254638671875,237.0064392089844
1700075834,0.7716522216796875,0.707275390625,-0.2724456787109375,0.7280064821243286,0.9056745171546936,1.892205715179444,81.35440063476562,-50.05123901367188,236.63270568847656
1700075834,0.9599456787109376,0.6628875732421875,-0.2915802001953125,0.7090924382209778,0.8452410101890564,1.9049875736236568,81.03730773925781,-49.903564453125,236.7832794189453
1700075834,1.241302490234375,0.549072265625,-0.38409423828125,0.6094332337379456,0.8057470917701721,2.0640957355499268,80.64422607421875,-49.12554931640625,237.1736755371093
1700075834,1.233642578125,0.3390960693359375,-0.4171905517578125,0.5662682056427002,0.8053138256072998,2.326608180999756,80.51336669921875,-48.966064453125,236.9908905029297
1700075834,0.9511871337890624,0.1753082275390625,-0.498321533203125,0.6391240358352661,0.7660849094390869,2.520643711090088,80.30099487304688,-48.612640380859375,237.2615203857422
1700075834,0.916778564453125,0.272247314453125,-0.5686798095703125,0.7118536233901978,0.7636486291885376,2.4890692234039307,79.99223327636719,-48.71623229980469,237.45030212402344
1700075834,1.0308380126953125,0.4716796875,-0.545806884765625,0.810002326965332,0.7384681701660156,2.379748582839966,79.23060607910156,-47.91845703125,237.23077392578125
1700075834,0.96734619140625,0.5872039794921875,-0.55224609375,1.0133527517318726,0.6426689624786377,2.2954671382904053,79.10008239746094,-47.61245727539063,237.55517578125
1700075834,0.9714508056640624,0.7177581787109375,-0.5520477294921875,1.118311643600464,0.6034283638000488,2.259258985519409,79.11032104492188,-46.974700927734375,237.311752319336
1700075834,1.3046722412109375,0.774444580078125,-0.4124298095703125,1.1289520263671875,0.5763466954231262,2.3638384342193604,78.4461669921875,-46.47938537597656,237.14794921875
1700075834,1.6740264892578125,0.6612701416015625,-0.345184326171875,1.0394365787506104,0.4771990478038788,2.5591137409210205,78.2332763671875,-45.85704040527344,237.8918914794922
1700075834,1.97674560546875,0.51275634765625,-0.3477020263671875,0.841987669467926,0.3236672878265381,2.726578712463379,77.71359252929688,-45.39979553222656,238.0305938720703
1700075834,2.1637420654296875,0.3839874267578125,-0.347625732421875,0.6533402800559998,0.1550324559211731,2.9087839126586914,77.20751953125,-44.54437255859375,238.22119140625
1700075834,2.223541259765625,0.2725830078125,-0.3431243896484375,0.388642817735672,-0.0797632709145546,2.9445250034332275,76.81707763671875,-43.77842712402344,238.60694885253903
1700075834,2.126312255859375,0.173187255859375,-0.3940582275390625,0.1308933049440384,-0.3275240659713745,2.754016876220703,76.14288330078125,-43.23919677734375,238.82400512695312
1700075834,1.8791046142578125,0.1441192626953125,-0.48138427734375,-0.2125791162252426,-0.4758695960044861,2.417080879211426,75.44102478027344,-42.01005554199219,239.41180419921875
1700075834,1.4115447998046875,0.1751708984375,-0.5970458984375,-0.6111935973167419,-0.41046342253685,2.0787670612335205,75.25996398925781,-41.54911804199219,239.9139709472656
1700075834,0.8040771484375,0.174102783203125,-0.631805419921875,-0.8485044240951538,-0.1759542524814605,1.6323329210281372,74.53125,-40.60377502441406,240.0246124267578
1700075834,0.3238983154296875,0.010223388671875,-0.57452392578125,-0.9067858457565308,-0.0180043000727891,1.029554843902588,74.03268432617188,-39.73487854003906,240.1093139648437
1700075834,-0.0926971435546875,-0.217041015625,-0.5620880126953125,-0.852144718170166,-0.0480410270392894,0.5366423726081848,73.17829895019531,-38.47906494140625,240.7154693603516
1700075834,-0.52935791015625,-0.2679595947265625,-0.4971771240234375,-0.4131407141685486,-0.1574218422174453,-0.0264574401080608,72.45236206054688,-38.0712890625,240.9437561035156
1700075834,-0.7923431396484375,-0.3605499267578125,-0.158203125,0.2077308297157287,-0.3299203813076019,-0.7707204222679138,71.97969055175781,-36.84381103515625,241.1889495849609
