timestamp,acc-x,acc-y,acc-z,gyr-x,gyr-y,gyr-z,mag-x,mag-y,mag-z
1700075586,0.9869232177734376,-0.0123443603515625,-0.1320953369140625,-0.0425453297793865,-0.0225367341190576,0.0059902481734752,74.73416137695312,-84.75801086425781,239.46376037597656
1700075586,0.987579345703125,-0.0131988525390625,-0.1365509033203125,-0.0390683077275753,-0.0283512137830257,0.0064672203734517,74.56112670898438,-84.81935119628906,239.15440368652344
1700075586,0.9897003173828124,-0.01055908203125,-0.134490966796875,-0.0301376618444919,-0.0287259202450513,0.0117013966664671,74.47702026367188,-84.79434204101562,239.3616485595703
1700075586,0.988555908203125,-0.000396728515625,-0.132537841796875,-0.0147272804751992,-0.0311443377286195,0.0094084152951836,74.65188598632812,-84.71527099609375,239.7351531982422
1700075586,0.9898681640625,0.0050201416015625,-0.1333770751953125,0.0052011534571647,-0.0314833559095859,0.0039175101555883,74.63560485839844,-84.57608032226562,239.66065979003903
1700075586,0.9903106689453124,0.0060272216796875,-0.138702392578125,0.0207031480967998,-0.0333904474973678,0.0048373658210039,74.86410522460938,-84.36012268066406,239.8475952148437
1700075586,0.9914093017578124,0.006103515625,-0.1345977783203125,0.0199049990624189,-0.0312820225954055,0.0034432008396834,74.60943603515625,-84.55694580078125,239.8310394287109
1700075586,0.994293212890625,0.0013427734375,-0.133880615234375,0.0306431297212839,-0.0285988878458738,-0.0035430695861577,74.78529357910156,-84.53758239746094,239.98248291015625
1700075586,0.9932098388671876,-0.0065460205078125,-0.1360015869140625,0.0245442241430282,-0.0266651660203933,0.0029593044891953,74.83538818359375,-84.54344177246094,239.976318359375
1700075586,0.988433837890625,-0.0109100341796875,-0.1300811767578125,0.0154410079121589,-0.023427028208971,0.0117298932746052,74.54550170898438,-84.22325134277344,239.8766326904297
1700075586,0.9847412109375,-0.00689697265625,-0.1292266845703125,0.0193851497024297,-0.0184237491339445,0.0084669878706336,74.79920959472656,-84.78082275390625,239.5223388671875
1700075586,0.988311767578125,-0.0001678466796875,-0.1324310302734375,0.0258654188364744,-0.0196735691279172,0.0046711843460798,74.64299011230469,-84.07281494140625,240.04757690429688
1700075586,0.992950439453125,-0.00262451171875,-0.1363067626953125,0.0470498017966747,-0.0178881864994764,-0.0109056448563933,74.75396728515625,-84.67860412597656,239.48260498046875
1700075586,0.9940185546875,-0.0003204345703125,-0.137969970703125,0.0766460448503494,-0.0230137072503566,-0.0141507061198353,74.72184753417969,-84.69474792480469,240.11788940429688
1700075586,0.9994964599609376,0.001983642578125,-0.1342010498046875,0.0579200237989425,-0.0244379658252,-0.0089181270450353,74.68211364746094,-84.4144287109375,239.7291259765625
1700075586,0.98846435546875,0.0183563232421875,-0.13128662109375,0.0497915260493755,-0.0251239947974681,-0.0085823033004999,74.86050415039062,-84.55128479003906,239.73342895507807
1700075586,0.98565673828125,0.0138092041015625,-0.125701904296875,0.0400574058294296,-0.0238600596785545,-0.0010918960906565,74.72514343261719,-84.32632446289062,239.9042816162109
1700075586,0.9858245849609376,0.00189208984375,-0.1271209716796875,0.0296566952019929,-0.0226541794836521,-0.0003802994033321,74.87258911132812,-84.53411865234375,239.2792053222656
1700075586,0.9892120361328124,-0.0035858154296875,-0.13275146484375,0.0190112423151731,-0.0246225222945213,0.0041747712530195,74.82466125488281,-84.66856384277344,239.2105712890625
1700075586,0.993377685546875,0.0037841796875,-0.1312713623046875,0.0142516400665044,-0.026827884837985,0.0005107942852191,74.82981872558594,-84.70152282714844,239.3021697998047
1700075586,0.9944610595703124,0.0127105712890625,-0.13214111328125,0.0177827253937721,-0.0276476070284843,0.0015598133904859,74.70352172851562,-84.51603698730469,239.7019805908203
1700075586,0.9918670654296876,0.0132293701171875,-0.1320953369140625,0.0173246618360281,-0.0275717061012983,0.0016482303617522,74.66889953613281,-84.47361755371094,239.5631256103516
1700075586,0.989715576171875,0.0082855224609375,-0.130218505859375,0.0288638714700937,-0.0291344486176967,-0.0089871035888791,74.87998962402344,-84.61514282226562,239.5389404296875
1700075586,0.993988037109375,-0.003753662109375,-0.1287994384765625,0.0316298305988311,-0.0268137715756893,-0.0001691107318038,74.84091186523438,-84.94017028808594,239.8009796142578
1700075586,0.991424560546875,-0.00433349609375,-0.131011962890625,0.0378818698227405,-0.0221204813569784,-0.008526642806828,74.83889770507812,-84.51756286621094,240.04283142089844
1700075586,0.99365234375,-0.0063934326171875,-0.1322021484375,0.0378192849457263,-0.024198280647397,0.0029880667570978,74.84574890136719,-84.59735107421875,239.7598571777344
1700075586,0.988311767578125,-0.0037689208984375,-0.1307525634765625,0.0238510034978389,-0.0259301345795393,0.0050016827881336,74.820556640625,-84.41203308105469,239.7521514892578
1700075586,0.9898681640625,0.005615234375,-0.1230010986328125,0.024417458102107,-0.022652581334114,0.0093282544985413,74.89875793457031,-84.98074340820312,239.21095275878903
1700075586,0.9931488037109376,0.0048980712890625,-0.1203155517578125,0.0249162688851356,-0.0256185438483953,0.0143871949985623,75.19976806640625,-84.7783203125,239.447265625
1700075586,0.9918670654296876,0.00592041015625,-0.1231842041015625,0.0320881605148315,-0.0258315969258546,0.011657721363008,74.75997924804688,-84.9130859375,239.2791442871093
1700075586,0.9939422607421876,0.0052642822265625,-0.12640380859375,0.0310167726129293,-0.0301512442529201,0.0119080580770969,74.71337890625,-84.69598388671875,239.8941802978516
1700075586,0.9897613525390624,0.01348876953125,-0.1283721923828125,0.0313161127269268,-0.0289299190044403,0.0103024384006857,74.79481506347656,-84.73558044433594,239.85665893554688
1700075586,0.9904327392578124,0.01263427734375,-0.12646484375,0.0283299088478088,-0.0287624057382345,0.0149352736771106,74.66448974609375,-84.96563720703125,239.475341796875
1700075586,0.9873504638671876,0.0063629150390625,-0.1248779296875,0.0194919425994157,-0.0323028117418289,0.0184349343180656,74.88327026367188,-84.96875,239.6591339111328
1700075586,0.98858642578125,0.0012969970703125,-0.127227783203125,0.0120753049850463,-0.0346242897212505,0.0197513345628976,74.69009399414062,-84.41728210449219,239.57421875
1700075586,0.9923553466796876,0.002197265625,-0.127593994140625,0.0065162223763763,-0.0378749445080757,0.0200112592428922,74.65266418457031,-84.51705932617188,239.60516357421875
1700075586,0.994049072265625,0.011444091796875,-0.1276702880859375,0.0109029812738299,-0.0406217277050018,0.0169137362390756,74.78787231445312,-84.60858154296875,239.5027770996093
1700075586,0.9966888427734376,0.0196380615234375,-0.125091552734375,0.0165451541543006,-0.0470165126025676,0.0123919546604156,75.02670288085938,-84.61482238769531,239.71221923828125
1700075586,0.9951629638671876,0.0224456787109375,-0.124359130859375,0.0211950335651636,-0.0486359782516956,0.0110342754051089,74.87037658691406,-84.54862976074219,239.53347778320312
1700075586,0.992950439453125,0.01678466796875,-0.1242218017578125,0.0195084530860185,-0.051901813596487,0.0094720646739006,74.40933227539062,-84.42570495605469,239.67288208007807
1700075586,0.9923248291015624,0.0055084228515625,-0.1215362548828125,0.0136111499741673,-0.0533590950071811,0.0156612507998943,74.71070861816406,-84.65779113769531,239.84036254882807
1700075586,0.9911346435546876,-0.004974365234375,-0.122039794921875,0.0071322117000818,-0.0581027194857597,0.0171531550586223,74.76629638671875,-84.67860412597656,239.86851501464844
1700075586,0.9920196533203124,-0.007598876953125,-0.1228485107421875,0.0121719781309366,-0.0569162778556346,0.0154617801308631,75.12586975097656,-84.76850891113281,239.34933471679688
1700075586,0.9952545166015624,-0.0053558349609375,-0.1218414306640625,0.0093628754839301,-0.0570403821766376,0.0180525034666061,74.71392822265625,-84.6959228515625,239.7255859375
1700075586,0.99169921875,0.011322021484375,-0.12744140625,0.0336892530322074,-0.0538579039275646,-0.0066467174328863,74.93769836425781,-84.65766906738281,239.5444183349609
1700075586,0.9989013671875,0.0157318115234375,-0.129058837890625,0.0749253705143928,-0.0495590306818485,-0.0222938545048236,74.74716186523438,-84.72102355957031,239.5245056152344
1700075586,0.99859619140625,0.001861572265625,-0.124359130859375,0.0603807866573333,-0.047281228005886,-0.0110579775646328,75.08915710449219,-84.79341125488281,239.35693359375
1700075586,0.98870849609375,0.0073089599609375,-0.115966796875,0.0580995231866836,-0.0427250936627388,-0.0129901003092527,74.584716796875,-84.43431091308594,239.7628936767578
1700075586,0.9913177490234376,-0.0122222900390625,-0.1143646240234375,0.0488010942935943,-0.0363377667963504,0.0046056709252297,75.01092529296875,-84.69033813476562,239.7782287597656
1700075586,0.98492431640625,-0.0223846435546875,-0.113037109375,0.0214059557765722,-0.0386746898293495,0.0229748245328664,74.7156982421875,-84.60102844238281,239.70065307617188
1700075586,0.9849090576171876,-0.009063720703125,-0.11688232421875,0.0204006135463714,-0.0433770343661308,0.0277349576354026,74.64193725585938,-84.38186645507812,239.2975006103516
1700075586,0.9928436279296876,0.008697509765625,-0.1142730712890625,0.0263991169631481,-0.0457664243876934,0.0291680060327053,74.47850036621094,-84.68144226074219,239.1851959228516
1700075587,0.99383544921875,0.0236358642578125,-0.1155548095703125,0.0439117960631847,-0.0506935380399227,0.0199998077005147,74.61932373046875,-84.67402648925781,238.9158630371093
1700075587,0.9948883056640624,0.0240631103515625,-0.1169891357421875,0.0548504665493965,-0.0532640218734741,0.0159067939966917,74.58636474609375,-84.73147583007812,239.1283569335937
1700075587,0.9940338134765624,0.0204315185546875,-0.1195220947265625,0.0620327442884445,-0.0575967170298099,0.0132010234519839,74.66227722167969,-84.54129028320312,239.01483154296875
1700075587,0.9971160888671876,0.011260986328125,-0.1199798583984375,0.0505246929824352,-0.0577581040561199,0.0176740679889917,74.69677734375,-84.4044189453125,239.41905212402344
1700075587,0.9943695068359376,0.0073089599609375,-0.1134033203125,0.0338256061077117,-0.0550986714661121,0.0272382795810699,74.57588195800781,-84.48100280761719,239.547592163086
1700075587,0.9954681396484376,0.004425048828125,-0.11181640625,0.0325044132769107,-0.0569956414401531,0.0318801701068878,74.36683654785156,-84.64569091796875,238.954330444336
1700075587,0.997467041015625,0.0030517578125,-0.10919189453125,0.0305730886757373,-0.055174570530653,0.035797145217657,74.68768310546875,-84.14727783203125,238.63528442382807
1700075587,0.9954986572265624,0.008514404296875,-0.1042938232421875,0.0343201570212841,-0.0531726740300655,0.0413852557539939,74.56251525878906,-84.4154052734375,239.4394073486328
1700075587,0.988739013671875,0.014984130859375,-0.108123779296875,0.0424318797886371,-0.0567306578159332,0.0397346280515193,74.82221984863281,-84.27264404296875,239.33546447753903
1700075587,0.9910888671875,0.0164947509765625,-0.10980224609375,0.0436856970191001,-0.0594486780464649,0.0378096960484981,74.48167419433594,-84.55894470214844,239.0278778076172
1700075587,0.9947662353515624,0.0116119384765625,-0.111846923828125,0.0409088172018528,-0.0649627521634101,0.0448561534285545,75.09764099121094,-84.56251525878906,239.18218994140625
1700075587,0.9895782470703124,0.0067291259765625,-0.11505126953125,0.0351441390812397,-0.0684754624962806,0.043178629130125,74.86329650878906,-84.33953857421875,239.26914978027344
1700075587,0.9866790771484376,0.001190185546875,-0.11456298828125,0.0322977527976036,-0.0727224051952362,0.0480985529720783,74.71846008300781,-84.10670471191406,239.0263061523437
1700075587,0.984527587890625,0.014801025390625,-0.1120147705078125,0.0351598523557186,-0.0793901607394218,0.0432601235806942,74.43183898925781,-84.67556762695312,239.5726928710937
1700075587,0.9964447021484376,0.024627685546875,-0.1067352294921875,0.0416214801371097,-0.0828030034899711,0.042363703250885,74.60870361328125,-84.1851806640625,239.5665283203125
1700075587,0.999267578125,0.028900146484375,-0.1098175048828125,0.0454457774758338,-0.0831438899040222,0.0431591868400573,74.68399047851562,-83.99176025390625,239.22607421875
1700075587,0.997955322265625,0.025848388671875,-0.1076202392578125,0.0490522310137748,-0.0810658261179924,0.0453139506280422,74.71528625488281,-84.18849182128906,239.55059814453125
1700075587,0.99456787109375,0.0163421630859375,-0.0973358154296875,0.0454862602055072,-0.0750457495450973,0.0518810413777828,74.37812805175781,-84.17918395996094,239.3507843017578
1700075587,0.990020751953125,0.0019683837890625,-0.0961761474609375,0.0396603271365165,-0.0664836838841438,0.0562448948621749,74.62762451171875,-84.33747863769531,239.06968688964844
1700075587,0.9903411865234376,-0.0101776123046875,-0.0973052978515625,0.0242443531751632,-0.0633025392889976,0.0664352178573608,74.64460754394531,-84.28866577148438,239.612045288086
1700075587,0.9906005859375,-0.0117340087890625,-0.1027679443359375,0.013066267594695,-0.0621176995337009,0.0723857805132865,74.84182739257812,-84.3748779296875,239.13951110839844
1700075587,0.99505615234375,0.0042877197265625,-0.1051483154296875,0.0135970348492264,-0.0588004663586616,0.0683921054005622,74.4051513671875,-84.23152160644531,239.72042846679688
1700075587,1.0020599365234375,0.0163421630859375,-0.0996856689453125,0.0166543442755937,-0.0533103607594966,0.0627193078398704,74.51156616210938,-84.29037475585938,239.3831024169922
1700075587,1.0044403076171875,0.013092041015625,-0.095062255859375,0.0244108010083436,-0.0532395206391811,0.0572560988366603,74.45455932617188,-84.27095031738281,239.35606384277344
1700075587,1.0008087158203125,0.01434326171875,-0.1061553955078125,0.0162407550960779,-0.0593376271426677,0.0548459365963935,74.68074035644531,-84.27665710449219,239.73223876953125
1700075587,1.0030364990234375,0.02313232421875,-0.1064605712890625,0.0010852381819859,-0.062553659081459,0.0543218292295932,74.23735046386719,-84.0533447265625,239.84197998046875
1700075587,1.0046844482421875,0.0256805419921875,-0.10235595703125,-0.0001834917929954,-0.0707466080784797,0.0493915192782878,74.45538330078125,-84.39295959472656,239.58987426757807
1700075587,1.001129150390625,0.021942138671875,-0.10479736328125,0.0008301073103211,-0.074219100177288,0.0450487025082111,74.43368530273438,-84.38771057128906,240.2162475585937
1700075587,0.9946136474609376,0.0252838134765625,-0.1064605712890625,0.0091692637652158,-0.0758087411522865,0.0386653691530227,74.34072875976562,-84.38713073730469,239.57188415527344
1700075587,0.9898834228515624,0.03521728515625,-0.100830078125,0.0236960090696811,-0.0804197415709495,0.0324839055538177,74.34193420410156,-84.19834899902344,239.9258270263672
1700075587,0.9883575439453124,0.047119140625,-0.0970458984375,0.0492333248257637,-0.0823606550693512,0.0260387901216745,74.44194030761719,-84.30859375,239.36415100097656
1700075587,0.9879608154296876,0.0500640869140625,-0.08935546875,0.0787885561585426,-0.0800961703062057,0.0198895521461963,74.80168151855469,-84.27456665039062,239.160888671875
1700075587,0.9878997802734376,0.04022216796875,-0.0825347900390625,0.0859836190938949,-0.0749322995543479,0.0280100628733634,74.8023681640625,-84.19134521484375,239.72625732421875
1700075587,0.987213134765625,0.018524169921875,-0.082550048828125,0.0704190358519554,-0.0689002349972724,0.0399037413299083,74.5826416015625,-84.14163208007812,239.6134490966797
1700075587,0.9851837158203124,-0.0058441162109375,-0.0897979736328125,0.0456998422741889,-0.0615443214774131,0.0548049248754978,74.43716430664062,-84.32369995117188,239.261947631836
1700075587,0.9830322265625,-0.0163421630859375,-0.0966339111328125,0.026316825300455,-0.0611871890723705,0.0755935609340667,74.71795654296875,-84.27711486816406,239.61094665527344
1700075587,0.9860076904296876,0.0009613037109375,-0.0941619873046875,0.0293781291693449,-0.0576390624046325,0.0778758898377418,74.67239379882812,-84.28392028808594,240.0879669189453
1700075587,0.9922027587890624,0.0208740234375,-0.0858154296875,0.0549998693168163,-0.0524789206683635,0.0774974524974823,74.63493347167969,-84.34735107421875,239.6267242431641
1700075587,0.992279052734375,0.0294647216796875,-0.0795135498046875,0.0675822421908378,-0.050981692969799,0.0787906870245933,74.70509338378906,-84.27482604980469,239.44534301757807
1700075587,0.99114990234375,0.025054931640625,-0.0831146240234375,0.061397049576044,-0.0490817911922931,0.0814884677529335,74.86949157714844,-84.44940185546875,239.89471435546875
1700075587,0.9946746826171876,0.02093505859375,-0.0885772705078125,0.0489470362663269,-0.0458138287067413,0.0863857567310333,74.78205871582031,-84.65406799316406,239.83721923828125
1700075587,0.9992828369140624,0.0196990966796875,-0.087158203125,0.0419850014150142,-0.0461464561522007,0.0880587548017501,74.35273742675781,-84.42106628417969,239.7136383056641
1700075587,1.0040130615234375,0.0230560302734375,-0.08380126953125,0.0408060178160667,-0.044683314859867,0.0857460647821426,74.85359191894531,-84.16331481933594,239.18983459472656
1700075587,1.003387451171875,0.03216552734375,-0.0863189697265625,0.0488674081861972,-0.0433741062879562,0.0794183909893035,74.65077209472656,-84.37483215332031,239.10606384277344
1700075587,1.00146484375,0.039794921875,-0.0844268798828125,0.0568787306547164,-0.047047670930624,0.0755179300904274,74.66178894042969,-84.40705871582031,238.87892150878903
1700075587,0.9963531494140624,0.0475616455078125,-0.0830230712890625,0.0670168474316597,-0.0508498661220073,0.0690544322133064,74.85212707519531,-84.47012329101562,239.11099243164065
1700075587,0.995330810546875,0.045989990234375,-0.083221435546875,0.0809502452611923,-0.049590989947319,0.0643297210335731,74.63081359863281,-84.40473937988281,239.3262634277344
1700075587,0.9967803955078124,0.0364227294921875,-0.0832977294921875,0.0824722424149513,-0.0476130582392215,0.0687596201896667,74.72836303710938,-84.07835388183594,239.2506561279297
1700075587,0.991485595703125,0.0357818603515625,-0.08831787109375,0.0841835886240005,-0.0521747879683971,0.0663236305117607,74.42726135253906,-84.372314453125,239.58941650390625
1700075587,0.993011474609375,0.0368804931640625,-0.085113525390625,0.0844025015830993,-0.0506432019174099,0.0642644762992858,74.80650329589844,-84.5364990234375,239.38442993164065
1700075587,0.9970550537109376,0.0322723388671875,-0.0837860107421875,0.0760353803634643,-0.0484234578907489,0.0680248588323593,75.07855224609375,-84.68359375,239.4100799560547
1700075587,0.9976043701171876,0.028411865234375,-0.0876922607421875,0.0645555555820465,-0.0518192537128925,0.0718997567892074,74.84591674804688,-84.46272277832031,239.0544586181641
1700075587,0.99749755859375,0.032928466796875,-0.084869384765625,0.0534776076674461,-0.0486887097358703,0.0692094340920448,74.53190612792969,-84.35319519042969,240.0873565673828
1700075587,0.9933929443359376,0.038909912109375,-0.0804290771484375,0.0529859848320484,-0.0461187586188316,0.0655110999941825,74.85603332519531,-84.41610717773438,239.8042907714844
1700075587,0.9900970458984376,0.040863037109375,-0.0759735107421875,0.0485622100532054,-0.0455981120467186,0.0667401477694511,74.71562194824219,-84.62205505371094,239.73619079589844
1700075587,0.9892120361328124,0.0418243408203125,-0.0772247314453125,0.041144773364067,-0.0401684567332267,0.0690669491887092,75.03919982910156,-84.42813110351562,239.43524169921875
1700075587,0.989959716796875,0.0468597412109375,-0.0755767822265625,0.0385031849145889,-0.0419655591249465,0.0692299380898475,74.85421752929688,-84.9237060546875,239.1877899169922
1700075587,0.9903717041015624,0.0453338623046875,-0.07464599609375,0.0370802581310272,-0.0382730849087238,0.068195030093193,75.12673950195312,-84.53280639648438,239.54136657714844
1700075587,0.9900360107421876,0.0377044677734375,-0.0749664306640625,0.0373369865119457,-0.0316151827573776,0.0714885666966438,75.1820068359375,-84.91690063476562,239.51434326171875
1700075587,0.992218017578125,0.0297088623046875,-0.077423095703125,0.0347063168883323,-0.031863123178482,0.0802192017436027,75.17538452148438,-85.03645324707031,239.8324584960937
1700075587,0.9966278076171876,0.0345916748046875,-0.077392578125,0.0422262847423553,-0.0317813642323017,0.0770772099494934,74.77972412109375,-84.32954406738281,239.5403747558593
1700075587,0.998870849609375,0.0452423095703125,-0.0767059326171875,0.0567780621349811,-0.0280649233609437,0.0788013413548469,74.88768005371094,-84.72926330566406,239.88528442382807
1700075587,0.9943084716796876,0.0514984130859375,-0.0735931396484375,0.0674363002181053,-0.0259101595729589,0.0783163756132125,74.92327880859375,-84.51052856445312,239.6380157470703
1700075587,0.9905242919921876,0.05047607421875,-0.066558837890625,0.0689060986042022,-0.0165978856384754,0.0929597690701484,75.04556274414062,-84.54940795898438,239.5800170898437
1700075587,0.9881134033203124,0.0435028076171875,-0.066070556640625,0.0573703497648239,-0.00856738910079,0.1054143086075782,74.89865112304688,-84.61358642578125,239.4693298339844
1700075587,0.9857025146484376,0.032012939453125,-0.0710296630859375,0.0430294908583164,-0.0019595539197325,0.1279531717300415,74.6527099609375,-84.29658508300781,239.87158203125
1700075587,0.9852447509765624,0.020660400390625,-0.066497802734375,0.0255213379859924,0.012155732139945,0.1515064388513565,74.71583557128906,-84.41041564941406,239.48573303222656
1700075587,0.9820556640625,0.016876220703125,-0.0662994384765625,0.0092520881444215,0.0292447041720151,0.1822161376476287,74.82157897949219,-84.68711853027344,239.5567626953125
1700075587,0.982208251953125,0.0229644775390625,-0.0723114013671875,0.007875233888626,0.0403564758598804,0.2100773304700851,75.1912841796875,-84.53814697265625,239.89344787597656
1700075587,0.991058349609375,0.0267181396484375,-0.068359375,0.0199281685054302,0.0554808340966701,0.2442949563264846,74.68731689453125,-84.30422973632812,239.3592224121093
1700075587,0.9936981201171876,0.028289794921875,-0.0536651611328125,0.0454697459936142,0.0791030749678611,0.2781141698360443,74.94593811035156,-84.28627014160156,239.5985107421875
1700075587,0.996246337890625,0.0204620361328125,-0.043060302734375,0.0580414645373821,0.1220350936055183,0.3266753256320953,75.05680847167969,-84.41145324707031,239.3808441162109
1700075587,0.989837646484375,0.0063018798828125,-0.0460662841796875,0.0757656022906303,0.1708042323589325,0.3696866929531097,74.95028686523438,-84.41673278808594,239.50538635253903
1700075587,0.98919677734375,-0.02459716796875,-0.051666259765625,0.0868811011314392,0.2157133817672729,0.4184017777442932,74.69610595703125,-84.21177673339844,240.01370239257807
1700075587,1.005645751953125,-0.0604705810546875,-0.0506439208984375,0.0683311223983764,0.252057284116745,0.4949229061603546,75.0174560546875,-84.55876159667969,239.41128540039065
1700075587,1.019134521484375,-0.070404052734375,-0.0583648681640625,0.0293749328702688,0.2860714495182037,0.5751472115516663,74.79339599609375,-84.00057983398438,239.54576110839844
1700075587,1.04156494140625,-0.0613555908203125,-0.071502685546875,0.0380768105387687,0.3411194980144501,0.6226590275764465,74.75296020507812,-84.11036682128906,239.08209228515625
1700075587,1.0539398193359375,-0.0597076416015625,-0.096923828125,0.0594577342271804,0.371945858001709,0.6791929006576538,74.68101501464844,-84.31411743164062,239.66896057128903
1700075587,1.0474395751953125,-0.035186767578125,-0.10015869140625,0.1291502565145492,0.3805968761444092,0.7256405353546143,74.75091552734375,-84.00608825683594,239.5016326904297
1700075587,1.060272216796875,-0.0129547119140625,-0.110870361328125,0.1498576700687408,0.4129305779933929,0.7823283076286316,74.99882507324219,-84.40512084960938,238.9780731201172
1700075587,1.0719757080078125,0.0276947021484375,-0.145477294921875,0.229245439171791,0.4598621428012848,0.8022791147232056,75.036865234375,-84.43658447265625,239.51089477539065
1700075587,1.0941009521484375,0.0294647216796875,-0.1655120849609375,0.4075267612934112,0.5354109406471252,0.8161009550094604,74.95039367675781,-84.63235473632812,239.17323303222656
1700075587,1.0908660888671875,0.0590057373046875,-0.2120819091796875,0.7317895293235779,0.5648218393325806,0.6981325149536133,74.61174011230469,-84.3990478515625,238.8968505859375
1700075587,1.14031982421875,0.0415496826171875,-0.2265777587890625,0.967211127281189,0.6032105088233948,0.6048417091369629,75.02793884277344,-84.26029968261719,239.4879608154297
1700075587,1.1750946044921875,0.034759521484375,-0.2318115234375,1.1042547225952148,0.6621763706207275,0.5577815175056458,74.83865356445312,-84.64018249511719,239.0121307373047
1700075587,1.1443939208984375,0.0121612548828125,-0.2389678955078125,1.1536773443222046,0.68716961145401,0.4974883496761322,74.7940673828125,-84.38627624511719,239.44764709472656
1700075587,1.1115570068359375,-0.0450592041015625,-0.259979248046875,1.1109133958816528,0.7024651765823364,0.3960171043872833,74.75825500488281,-84.62434387207031,239.46456909179688
1700075587,1.0832977294921875,-0.1111907958984375,-0.269775390625,1.0081627368927002,0.7017972469329834,0.2951197922229767,74.70185852050781,-84.67781066894531,239.2288513183593
1700075587,1.0654754638671875,-0.177215576171875,-0.2461700439453125,0.8940974473953247,0.6939822435379028,0.2116667032241821,74.67985534667969,-84.6529541015625,239.75184631347656
1700075587,1.050140380859375,-0.2144622802734375,-0.2089996337890625,0.8359547853469849,0.6677162647247314,0.1084662899374961,74.76589965820312,-84.41746520996094,239.71446228027344
1700075587,1.0186614990234375,-0.2533416748046875,-0.1781463623046875,0.7915210127830505,0.6178970336914062,0.0320482142269611,74.9874267578125,-84.63835144042969,239.23536682128903
1700075587,0.985198974609375,-0.256622314453125,-0.125823974609375,0.7318976521492004,0.5840581059455872,-0.0743722319602966,75.14988708496094,-84.54985046386719,239.8217163085937
1700075587,0.95947265625,-0.239349365234375,-0.0869140625,0.6714361906051636,0.5404642820358276,-0.2033222317695617,74.64682006835938,-84.32260131835938,239.3406677246093
1700075587,0.944732666015625,-0.2137603759765625,-0.0476531982421875,0.6333156824111938,0.4808217585086822,-0.3474855422973633,74.6522216796875,-84.30154418945312,239.29444885253903
1700075587,0.94451904296875,-0.1899871826171875,-0.0149383544921875,0.6238188743591309,0.4083856344223022,-0.4845139682292938,75.02595520019531,-84.33157348632812,240.01971435546875
1700075587,0.952606201171875,-0.17181396484375,0.01483154296875,0.5980581045150757,0.3500488102436065,-0.6068238615989685,74.6541748046875,-84.31845092773438,239.94171142578125
1700075587,0.9527130126953124,-0.1564483642578125,0.028533935546875,0.5538821220397949,0.2946707904338836,-0.7312337160110474,74.98159790039062,-84.184326171875,239.35574340820312
1700075587,0.9485321044921876,-0.153411865234375,0.03106689453125,0.4913982152938843,0.2509089112281799,-0.8507518768310547,75.00411987304688,-84.24609375,239.20477294921875
1700075587,0.9412994384765624,-0.1529541015625,0.01715087890625,0.4163514077663421,0.1966446191072464,-0.9428450465202332,74.85223388671875,-84.14341735839844,239.8563690185547
1700075588,0.939361572265625,-0.12506103515625,-0.0028228759765625,0.3210874795913696,0.1372886151075363,-1.0171281099319458,74.74473571777344,-84.64778137207031,239.8273468017578
1700075588,0.9551849365234376,-0.0789794921875,-0.016693115234375,0.2091604024171829,0.0897674337029457,-1.1191407442092896,74.58018493652344,-84.24412536621094,240.0457000732422
1700075588,0.9924468994140624,-0.0628509521484375,-0.0316314697265625,0.0768383219838142,0.0380190201103687,-1.2169625759124756,74.62547302246094,-84.30642700195312,239.8046112060547
1700075588,1.01416015625,-0.0604400634765625,-0.0421142578125,-0.0562251880764961,-0.0193438697606325,-1.282968282699585,74.92416381835938,-84.35311889648438,239.4604034423828
1700075588,1.0130767822265625,-0.0667724609375,-0.041351318359375,-0.1986071020364761,-0.0655060410499572,-1.3204586505889893,74.75804138183594,-84.37937927246094,239.82589721679688
1700075588,1.005157470703125,-0.0745697021484375,-0.0435638427734375,-0.3336575925350189,-0.1150493547320365,-1.3290979862213137,74.51786804199219,-84.58705139160156,239.632553100586
1700075588,1.000335693359375,-0.071807861328125,-0.0517425537109375,-0.4559028148651123,-0.1624285876750946,-1.3284255266189575,74.21804809570312,-84.68917846679688,239.41555786132807
1700075588,1.014617919921875,-0.046478271484375,-0.0634002685546875,-0.55052649974823,-0.2031227499246597,-1.32449471950531,74.87864685058594,-84.53071594238281,239.32725524902344
1700075588,1.025970458984375,-0.008087158203125,-0.0584869384765625,-0.6162235140800476,-0.2323837131261825,-1.3293565511703491,74.79310607910156,-84.44122314453125,239.94046020507807
1700075588,1.0293426513671875,0.0228118896484375,-0.0587310791015625,-0.6477681398391724,-0.260048896074295,-1.326378345489502,74.7535400390625,-84.26039123535156,239.84686279296875
1700075588,1.0261688232421875,0.0487823486328125,-0.064056396484375,-0.6559455990791321,-0.2768654227256775,-1.3218001127243042,74.81735229492188,-84.37818908691406,239.86314392089844
1700075588,1.0226287841796875,0.0658416748046875,-0.087646484375,-0.6372454166412354,-0.2821094393730163,-1.2957628965377808,74.65177917480469,-84.16098022460938,239.991943359375
1700075588,1.011871337890625,0.0868682861328125,-0.1150970458984375,-0.6329550743103027,-0.2927826046943664,-1.2594573497772217,74.77313232421875,-84.43264770507812,239.9014587402344
1700075588,1.0139617919921875,0.12445068359375,-0.125396728515625,-0.6025223731994629,-0.2954524159431457,-1.24308180809021,74.46176147460938,-84.48469543457031,239.3652191162109
1700075588,1.0224609375,0.1503753662109375,-0.138214111328125,-0.5530427098274231,-0.307755172252655,-1.2138677835464478,74.79666137695312,-84.1473388671875,240.0562896728516
1700075588,1.0200958251953125,0.1739654541015625,-0.1232147216796875,-0.5049622654914856,-0.3150128126144409,-1.162611722946167,74.83157348632812,-84.40977478027344,239.59149169921875
1700075588,1.007415771484375,0.183837890625,-0.10546875,-0.4765561521053314,-0.3267078101634979,-1.0855305194854736,74.70628356933594,-84.50460815429688,239.6480712890625
1700075588,0.98193359375,0.1886749267578125,-0.1060943603515625,-0.4919694662094116,-0.3261573314666748,-0.9802848100662231,74.74421691894531,-83.88198852539062,239.4221343994141
1700075588,0.95654296875,0.1972808837890625,-0.12945556640625,-0.5269280076026917,-0.3193172812461853,-0.8591839671134949,74.70359802246094,-84.10479736328125,240.0078582763672
1700075588,0.940399169921875,0.2115020751953125,-0.1450958251953125,-0.5562818646430969,-0.3159811198711395,-0.7285042405128479,74.88758850097656,-84.25802612304688,239.41323852539065
1700075588,0.9355926513671876,0.220703125,-0.1494903564453125,-0.5746496915817261,-0.296512633562088,-0.5937512516975403,74.50926208496094,-84.0614013671875,239.4808044433593
1700075588,0.927398681640625,0.2236328125,-0.1524658203125,-0.5695769190788269,-0.2649688124656677,-0.4515096545219421,74.70469665527344,-84.30778503417969,240.01124572753903
1700075588,0.913177490234375,0.225799560546875,-0.16180419921875,-0.5384887456893921,-0.2138510346412658,-0.3016618490219116,74.51542663574219,-84.22859191894531,239.7738647460937
1700075588,0.893646240234375,0.2442626953125,-0.1736907958984375,-0.4808363914489746,-0.1540862321853637,-0.1934035569429397,74.65724182128906,-84.2452392578125,239.65728759765625
1700075588,0.879730224609375,0.2530059814453125,-0.2013092041015625,-0.384230762720108,-0.1042132228612899,-0.0927453860640525,74.96441650390625,-83.83700561523438,239.6512145996093
1700075588,0.8713836669921875,0.267181396484375,-0.2023162841796875,-0.2789075374603271,-0.0486666038632392,-0.0178431794047355,74.65444946289062,-83.91184997558594,240.0156707763672
1700075588,0.8864898681640625,0.260955810546875,-0.2160797119140625,-0.17332623898983,0.0030541131272912,0.055714126676321,74.7857666015625,-83.92018127441406,239.1574859619141
1700075588,0.9043426513671876,0.25146484375,-0.233795166015625,-0.0562307834625244,0.0381929241120815,0.1331498026847839,74.57891845703125,-83.90794372558594,239.85438537597656
1700075588,0.8947296142578125,0.25115966796875,-0.2581634521484375,0.0652090981602668,0.0783677771687507,0.2052894979715347,74.81245422363281,-84.03811645507812,239.4244537353516
1700075588,0.856109619140625,0.2628936767578125,-0.2829437255859375,0.1630568355321884,0.1490714997053146,0.2185168862342834,74.57673645019531,-84.29681396484375,239.4068145751953
1700075588,0.82012939453125,0.25494384765625,-0.323760986328125,0.2812995910644531,0.2549633085727691,0.3380036056041717,74.73756408691406,-84.14793395996094,239.91030883789065
1700075588,0.7938079833984375,0.2933197021484375,-0.4104156494140625,0.4384745657444,0.3238880634307861,0.5656263828277588,74.89886474609375,-84.17742919921875,239.69293212890625
1700075588,0.71856689453125,0.4437408447265625,-0.4400634765625,0.6625366806983948,0.2550621330738067,0.4079454243183136,74.69502258300781,-83.8966064453125,239.482650756836
1700075588,0.9163818359375,0.3527679443359375,-0.267822265625,0.8854935765266418,0.2044114619493484,-0.0809180215001106,74.57209777832031,-84.27247619628906,239.39520263671875
1700075588,1.208953857421875,-0.1286773681640625,-0.0283966064453125,0.8460484743118286,0.2201811075210571,-0.2446933686733245,74.35295104980469,-84.54371643066406,239.4174041748047
1700075588,1.2326812744140625,-0.5873260498046875,0.0681304931640625,0.3768194615840912,0.3841812312602997,-0.0013741911388933,74.57080078125,-84.01362609863281,239.593002319336
1700075588,1.181854248046875,-0.767486572265625,-0.01409912109375,-0.6045578122138977,0.5816293358802795,0.5942894816398621,74.63041687011719,-83.99330139160156,239.4340667724609
1700075588,1.1442413330078125,-0.6744384765625,-0.371246337890625,-1.1137851476669312,0.4977557361125946,1.1574630737304688,74.72335815429688,-84.08917236328125,239.474609375
1700075588,1.150360107421875,-0.486175537109375,-0.4103546142578125,-1.1770492792129517,0.3235144019126892,1.4154365062713623,74.64950561523438,-84.0272216796875,239.1835327148437
1700075588,1.10736083984375,-0.104949951171875,-0.26483154296875,-1.069496989250183,0.3470381200313568,1.2152835130691528,74.68411254882812,-83.93379211425781,239.5041046142578
1700075588,1.0223236083984375,0.2087249755859375,-0.1204681396484375,-0.733954668045044,0.5132697224617004,0.838623046875,74.27799987792969,-83.94502258300781,240.0774383544922
1700075588,0.9604034423828124,0.4569549560546875,-0.034332275390625,-0.2393654435873031,0.5714129209518433,0.6466674208641052,74.39785766601562,-83.86119079589844,239.2379150390625
1700075588,1.007080078125,0.55841064453125,0.0101165771484375,0.1671253442764282,0.5668956637382507,0.4553765654563904,74.46940612792969,-83.85986328125,239.45416259765625
1700075588,1.1252593994140625,0.30316162109375,-0.0952911376953125,0.3041681349277496,0.5351819396018982,0.4110157787799835,74.66732788085938,-83.74070739746094,239.3093719482422
1700075588,1.0774993896484375,0.14373779296875,-0.2249603271484375,0.3330069780349731,0.4830438792705536,0.386551171541214,74.34988403320312,-83.81233215332031,239.1995849609375
1700075588,1.0245208740234375,0.0167083740234375,-0.26568603515625,0.3094723522663116,0.4203522801399231,0.3849692642688751,74.43736267089844,-84.02915954589844,239.53005981445312
1700075588,0.9962310791015624,-0.00811767578125,-0.2658843994140625,0.2477229833602905,0.3597714900970459,0.340038001537323,74.39930725097656,-83.95252990722656,239.3937225341797
1700075588,1.008087158203125,0.0452423095703125,-0.2813262939453125,0.2289580851793289,0.3124569654464721,0.2554756999015808,74.34147644042969,-83.76370239257812,239.4420623779297
1700075588,1.0422210693359375,0.10107421875,-0.269500732421875,0.2243649214506149,0.2930688858032226,0.1597917973995208,74.61532592773438,-84.13212585449219,239.6986846923828
1700075588,1.04974365234375,0.119384765625,-0.218109130859375,0.2116874754428863,0.3091738224029541,0.0852871984243393,74.51290893554688,-84.13429260253906,239.47781372070312
1700075588,1.01531982421875,0.0631103515625,-0.1566009521484375,0.1550819873809814,0.321698933839798,0.0675273761153221,74.65510559082031,-83.736572265625,239.90286254882807
1700075588,0.97100830078125,-0.02362060546875,-0.164459228515625,0.0705580562353134,0.3144506216049194,0.1022608578205108,74.84611511230469,-84.02505493164062,239.691635131836
1700075588,0.9737701416015624,-0.0670928955078125,-0.20635986328125,0.0044749095104634,0.2949165999889374,0.138730451464653,74.6490478515625,-83.77937316894531,239.17654418945312
1700075588,1.0103912353515625,-0.0601348876953125,-0.212982177734375,-0.0112036522477865,0.2826314270496368,0.149620920419693,74.6485595703125,-83.88632202148438,239.3849029541016
1700075588,1.01605224609375,-0.0310211181640625,-0.210479736328125,0.079167254269123,0.2496210187673568,0.146182507276535,74.88383483886719,-84.06271362304688,239.56448364257807
1700075588,0.9922943115234376,0.011322021484375,-0.2506103515625,0.1993679702281952,0.1839200407266616,0.1281230747699737,74.66372680664062,-83.84672546386719,239.937728881836
1700075588,0.9894561767578124,0.0384368896484375,-0.2798614501953125,0.2801570892333984,0.123267076909542,0.1116197407245636,75.00331115722656,-83.87374877929688,239.5092010498047
1700075588,0.9912872314453124,0.0251617431640625,-0.268768310546875,0.2896182239055633,0.0731234773993492,0.0978266969323158,74.58956909179688,-83.96029663085938,239.5637664794922
1700075588,0.9854736328125,-0.02069091796875,-0.27001953125,0.2303261458873748,0.024009196087718,0.1013045161962509,74.64775085449219,-84.05108642578125,239.549560546875
1700075588,0.9774627685546876,-0.0425262451171875,-0.2949371337890625,0.1125483810901641,-0.030027674511075,0.0946948155760765,74.46369934082031,-83.93705749511719,240.0023956298828
1700075588,0.9885406494140624,-0.004058837890625,-0.303070068359375,0.0327094756066799,-0.0744369477033615,0.0514080636203289,74.61859130859375,-83.98001098632812,239.58157348632807
1700075588,1.012176513671875,0.059326171875,-0.280426025390625,-0.0118827586993575,-0.0830970183014869,-0.0198871549218893,74.66111755371094,-84.06446838378906,239.56106567382807
1700075588,1.033172607421875,0.099578857421875,-0.227691650390625,0.0415186807513237,-0.0855071768164634,-0.0735266804695129,74.97012329101562,-83.88265991210938,239.89813232421875
1700075588,1.0303497314453125,0.08795166015625,-0.16424560546875,0.0896454602479934,-0.0719745904207229,-0.0989968851208686,74.87332153320312,-83.69277954101562,239.4002380371093
1700075588,1.0129241943359375,0.0377960205078125,-0.181304931640625,0.1130360066890716,-0.073975421488285,-0.0997010245919227,74.93141174316406,-84.11468505859375,239.81727600097656
1700075588,0.9898834228515624,-0.00701904296875,-0.208831787109375,0.1357437223196029,-0.0707721710205078,-0.0859644412994384,74.82124328613281,-84.24528503417969,239.77085876464844
1700075588,0.9829864501953124,-0.0267333984375,-0.2091522216796875,0.1982726007699966,-0.0581762194633483,-0.0797939002513885,75.178466796875,-84.202392578125,240.0066680908203
1700075588,0.9838104248046876,-0.043365478515625,-0.2026824951171875,0.2632382810115814,-0.0552808307111263,-0.0557487495243549,74.95442199707031,-83.91845703125,239.4766540527344
1700075588,0.96453857421875,-0.04119873046875,-0.198455810546875,0.2862522602081299,-0.0347260236740112,-0.0258859246969223,74.98500061035156,-84.20413208007812,240.06509399414065
1700075588,0.9491729736328124,-0.077911376953125,-0.197784423828125,0.2565979659557342,-0.0206693261861801,0.0353089869022369,75.03410339355469,-84.28521728515625,239.8296813964844
1700075588,0.9324493408203124,-0.1268310546875,-0.2045440673828125,0.1536659896373748,-0.0060685449279844,0.1081483066082,74.92338562011719,-84.36396789550781,239.9388732910156
1700075588,0.937744140625,-0.169708251953125,-0.23126220703125,0.0745653137564659,0.0065401908941566,0.2049201279878616,74.80142211914062,-84.01303100585938,239.88291931152344
1700075588,0.939422607421875,-0.165924072265625,-0.240997314453125,0.0461139641702175,-0.0010836402652785,0.2858751714229584,75.14927673339844,-84.04679870605469,240.54376220703125
1700075588,0.93853759765625,-0.100494384765625,-0.250091552734375,0.063828244805336,0.0038235003594309,0.3144372999668121,74.91926574707031,-84.07984924316406,239.70887756347656
1700075588,0.9543609619140624,-0.0442962646484375,-0.2108154296875,0.1013146340847015,0.0443671979010105,0.3351135551929474,75.07353210449219,-83.86181640625,239.7250061035156
1700075588,0.9566802978515624,-0.03173828125,-0.1715240478515625,0.1538207232952118,0.0680733248591423,0.3830389976501465,74.75018310546875,-84.01193237304688,239.5520477294922
1700075588,0.9486541748046876,-0.0435028076171875,-0.1826934814453125,0.1546944975852966,0.0832626670598983,0.4318251609802246,74.88961791992188,-83.83918762207031,240.06756591796875
1700075588,0.955902099609375,-0.0590362548828125,-0.18780517578125,0.141829565167427,0.0990477502346038,0.4753335118293762,75.07928466796875,-84.14207458496094,239.99240112304688
1700075588,0.9752044677734376,-0.0804595947265625,-0.1807861328125,0.1484757512807846,0.1219322979450225,0.5206471681594849,74.95079040527344,-84.20936584472656,239.70249938964844
1700075588,0.9749755859375,-0.071685791015625,-0.182342529296875,0.1408010572195053,0.1342230588197708,0.559333086013794,75.15036010742188,-83.760009765625,239.7373809814453
1700075588,0.971405029296875,-0.05438232421875,-0.2017059326171875,0.1445539891719818,0.1446642428636551,0.5978708863258362,75.11457824707031,-84.03689575195312,239.8214111328125
1700075588,0.9708099365234376,-0.0636444091796875,-0.1998138427734375,0.1144416257739067,0.1700076758861541,0.6519396901130676,74.96125793457031,-83.86662292480469,239.79733276367188
1700075588,0.960418701171875,-0.061859130859375,-0.194061279296875,0.0565940365195274,0.1980411857366562,0.7177642583847046,75.22700500488281,-84.09617614746094,239.8380889892578
1700075588,0.9510955810546876,-0.0557098388671875,-0.188629150390625,0.0130777191370725,0.2377326637506485,0.7972585558891296,75.15158081054688,-84.34091186523438,239.36358642578125
1700075588,0.93798828125,-0.0599365234375,-0.1900634765625,0.0163376946002244,0.257929265499115,0.8697766661643982,75.21633911132812,-83.90681457519531,240.4459686279297
1700075588,0.9314117431640624,-0.0487518310546875,-0.192596435546875,0.0242715179920196,0.276940256357193,0.924996256828308,74.88681030273438,-84.00486755371094,240.4923858642578
1700075588,0.942291259765625,-0.021514892578125,-0.19512939453125,0.0504208281636238,0.2949965000152588,0.9603787660598756,75.13883972167969,-84.22592163085938,240.1377716064453
1700075588,0.980926513671875,0.0106201171875,-0.1885528564453125,0.057705108076334,0.2775661051273346,0.987099826335907,75.27580261230469,-83.77885437011719,240.1998291015625
1700075588,1.0111541748046875,0.0659332275390625,-0.236114501953125,0.0878259912133216,0.2506774961948395,1.011371374130249,75.14218139648438,-83.74269104003906,239.9689178466797
1700075588,1.0267486572265625,0.09197998046875,-0.246368408203125,0.1256631165742874,0.246211364865303,1.0142427682876587,75.45805358886719,-83.66600036621094,240.0224151611328
1700075588,1.02581787109375,0.0615234375,-0.239044189453125,0.1585755348205566,0.2297386527061462,1.0329416990280151,75.21257019042969,-83.56805419921875,239.9602813720703
1700075588,1.0217437744140625,0.0481719970703125,-0.245361328125,0.2114666998386383,0.223251461982727,1.070039987564087,75.20553588867188,-83.82899475097656,239.5509490966797
1700075588,1.044281005859375,0.08673095703125,-0.2419281005859375,0.2362724542617797,0.2227334827184677,1.0967270135879517,75.33531188964844,-83.91423034667969,239.5845184326172
1700075588,1.0698699951171875,0.1402740478515625,-0.1970672607421875,0.2614467740058899,0.2455312013626098,1.1280755996704102,75.31428527832031,-83.8505859375,239.81678771972656
1700075588,1.0693359375,0.1555328369140625,-0.1890106201171875,0.3146652579307556,0.2460673004388809,1.154911994934082,75.08322143554688,-83.45872497558594,239.8207855224609
1700075588,1.0689544677734375,0.121551513671875,-0.2291107177734375,0.3889136612415313,0.2409079521894455,1.2216042280197144,75.00283813476562,-83.880126953125,240.11959838867188
1700075588,1.0718231201171875,0.1246337890625,-0.2607421875,0.518173098564148,0.2015725374221801,1.2215251922607422,75.30946350097656,-83.85638427734375,239.52243041992188
1700075588,1.133544921875,0.1337890625,-0.225982666015625,0.6423552632331848,0.1935787796974182,1.2107625007629397,75.09169006347656,-83.66773986816406,240.35772705078125
1700075588,1.236602783203125,0.1656036376953125,-0.185211181640625,0.6568556427955627,0.1677535772323608,1.2094138860702517,75.22306823730469,-83.84902954101562,239.83111572265625
1700075588,1.303497314453125,0.18829345703125,-0.1906890869140625,0.6094260811805725,0.1382345706224441,1.2120903730392456,75.28851318359375,-83.77377319335938,240.07118225097656
1700075589,1.3795013427734375,0.151947021484375,-0.1551055908203125,0.4885286688804626,0.0912145972251892,1.2588666677474976,75.30130004882812,-83.80978393554688,239.83251953125
1700075589,1.4542083740234375,0.14471435546875,-0.1455535888671875,0.341080904006958,0.0462575107812881,1.2748078107833862,75.52033996582031,-83.87788391113281,239.82086181640625
1700075589,1.5311431884765625,0.119842529296875,-0.1329193115234375,0.3333036601543426,0.0266617052257061,1.25883948802948,75.16581726074219,-83.96652221679688,239.35235595703125
1700075589,1.5883941650390625,0.11224365234375,-0.0883026123046875,0.3821761310100555,-0.0050139334052801,1.2124691009521484,75.30656433105469,-83.98088073730469,239.8284912109375
1700075589,1.646728515625,0.1115570068359375,-0.046173095703125,0.4640475511550903,-0.0366008877754211,1.173869490623474,75.23466491699219,-84.13771057128906,240.19454956054688
1700075589,1.691986083984375,0.02667236328125,-0.0258026123046875,0.5315901041030884,-0.0903083235025405,1.1691417694091797,75.52516174316406,-83.89735412597656,239.84378051757807
1700075589,1.7235107421875,-0.118865966796875,-0.02349853515625,0.5036980509757996,-0.1104359626770019,1.170603632926941,75.18942260742188,-84.00518798828125,240.15370178222656
1700075589,1.7328033447265625,-0.2968292236328125,-0.026580810546875,0.4112218916416168,-0.0406832471489906,1.1532044410705566,75.16552734375,-83.598876953125,240.06640625
1700075589,1.6514739990234375,-0.484527587890625,-0.017578125,0.3147283792495727,0.0145475175231695,1.20331072807312,75.62544250488281,-84.23275756835938,239.84246826171875
1700075589,1.468292236328125,-0.5839080810546875,0.027374267578125,0.2413750737905502,0.1386217921972274,1.3224834203720093,75.67703247070312,-83.77696228027344,240.1485748291016
1700075589,1.2978363037109375,-0.5863494873046875,-0.0694580078125,0.2152920663356781,0.386060893535614,1.435613989830017,75.37422180175781,-83.88925170898438,240.3131256103516
1700075589,1.1649932861328125,-0.505950927734375,-0.37249755859375,0.2668255567550659,0.6500205993652344,1.7360539436340332,75.60133361816406,-83.93778991699219,240.10595703125
1700075589,1.0443878173828125,-0.1996002197265625,-0.704010009765625,0.1314669400453567,0.8535037040710449,2.1777350902557373,75.75631713867188,-83.79643249511719,239.8202362060547
1700075589,1.0568389892578125,0.1828460693359375,-0.968353271484375,-0.1386694610118866,1.0010950565338137,2.349304914474488,75.69886779785156,-83.49923706054688,239.5599365234375
1700075589,1.3094482421875,0.2735595703125,-1.0145263671875,-0.3103549480438232,1.1204845905303955,2.1621367931365967,75.63703918457031,-83.3983154296875,240.028060913086
1700075589,1.4937286376953125,0.2150115966796875,-0.929412841796875,-0.1728378236293792,1.1315501928329468,2.040415048599243,75.59666442871094,-83.47111511230469,240.056640625
1700075589,1.374053955078125,0.3514556884765625,-0.8667449951171875,0.2494223415851593,0.9792935848236084,2.161617517471313,75.58100891113281,-83.32337951660156,239.54530334472656
1700075589,1.2976837158203125,0.5744476318359375,-0.6488800048828125,0.3021846115589142,0.8589940667152405,2.3427956104278564,75.70709228515625,-83.73445129394531,239.91677856445312
1700075589,1.430145263671875,0.7362060546875,-0.340240478515625,0.2081276327371597,1.1399338245391846,2.3870737552642822,75.68402099609375,-83.974609375,239.5679473876953
1700075589,1.468658447265625,0.7095184326171875,-0.306732177734375,0.3270201981067657,1.231713891029358,2.3672916889190674,75.57920837402344,-83.48223876953125,239.7567901611328
1700075589,1.4659576416015625,0.594635009765625,-0.2889404296875,0.475274920463562,1.095876693725586,2.120521068572998,75.52786254882812,-83.59832763671875,240.33035278320312
1700075589,1.545562744140625,0.2707366943359375,-0.363250732421875,0.3928812444210052,1.0080780982971191,1.919783592224121,75.57347106933594,-83.97108459472656,239.8280334472656
1700075589,1.507598876953125,0.04742431640625,-0.4850616455078125,0.1164528429508209,1.126059889793396,1.9760879278182983,75.8367919921875,-83.68084716796875,239.5238037109375
1700075589,1.3668365478515625,0.0013885498046875,-0.5979156494140625,-0.2442970871925354,1.229397177696228,2.2053475379943848,75.74128723144531,-83.55894470214844,240.00851440429688
1700075589,1.240966796875,0.052520751953125,-0.6797027587890625,-0.5607069730758667,1.2015879154205322,2.3906311988830566,75.89567565917969,-83.21485900878906,240.089111328125
1700075589,1.194976806640625,0.1953277587890625,-0.7529296875,-0.797081470489502,1.05561363697052,2.336073160171509,75.56491088867188,-83.66282653808594,240.25721740722656
1700075589,1.27099609375,0.3556976318359375,-0.7415313720703125,-1.015124797821045,0.9121862053871156,1.981358528137207,76.08555603027344,-83.57427978515625,239.8080139160156
1700075589,1.4126434326171875,0.474884033203125,-0.566436767578125,-1.0428699254989624,0.8916670680046082,1.503977656364441,75.30335998535156,-83.48524475097656,240.2890625
1700075589,1.401947021484375,0.6061248779296875,-0.33294677734375,-0.7278456687927246,0.9105334281921388,1.1630866527557373,75.86576843261719,-83.52436828613281,240.6688537597656
1700075589,1.156768798828125,0.6424713134765625,-0.219696044921875,-0.3636378645896911,0.8357194066047668,0.8807076215744019,75.62286376953125,-83.38600158691406,240.23831176757807
1700075589,0.8984527587890625,0.579833984375,-0.2241363525390625,-0.2483296543359756,0.718621551990509,0.6061943173408508,75.47445678710938,-83.58445739746094,239.40866088867188
1700075589,0.7266845703125,0.508758544921875,-0.2458648681640625,-0.3016405403614044,0.601475179195404,0.3085032403469085,75.64840698242188,-83.38778686523438,240.0937347412109
1700075589,0.6104888916015625,0.38916015625,-0.24053955078125,-0.4983453452587127,0.5381518602371216,0.0151477940380573,75.67333984375,-83.46635437011719,240.2867431640625
1700075589,0.5158233642578125,0.267120361328125,-0.2574920654296875,-0.7712562680244446,0.4451162219047546,-0.2480721175670623,76.13616943359375,-83.41505432128906,240.3139495849609
1700075589,0.4286346435546875,0.1508636474609375,-0.23321533203125,-1.111873984336853,0.3467672765254974,-0.454990953207016,75.96664428710938,-83.3656005859375,240.6339263916016
1700075589,0.341827392578125,0.044769287109375,-0.2206878662109375,-1.358265399932861,0.2355856299400329,-0.6332634687423706,75.85430908203125,-83.72245788574219,240.1459808349609
1700075589,0.270782470703125,-0.0323028564453125,-0.1854248046875,-1.556374192237854,0.1114373132586479,-0.7983421683311462,76.14059448242188,-83.71981811523438,240.27284240722656
1700075589,0.2341766357421875,-0.0344085693359375,-0.1871337890625,-1.6321171522140503,-0.0296399183571338,-1.0450153350830078,76.16465759277344,-83.67063903808594,240.707748413086
1700075589,0.237701416015625,-0.0218963623046875,-0.133514404296875,-1.6422840356826782,-0.1593774110078811,-1.3486822843551636,75.90419006347656,-83.45124816894531,240.38885498046875
1700075589,0.2291107177734375,0.012054443359375,-0.111083984375,-1.590442419052124,-0.3035859763622284,-1.633955001831055,75.98554992675781,-83.452880859375,240.94265747070312
1700075589,0.169525146484375,0.0808868408203125,-0.0877227783203125,-1.4729206562042236,-0.4780837595462799,-1.933392882347107,75.99662780761719,-83.32716369628906,240.63375854492188
1700075589,0.1330718994140625,0.06219482421875,-0.0595855712890625,-1.4113783836364746,-0.6042307615280151,-2.258354663848877,76.27394104003906,-83.59536743164062,240.6154937744141
1700075589,0.1344757080078125,0.0174407958984375,-0.0831756591796875,-1.297237992286682,-0.74470454454422,-2.508764266967773,76.03199768066406,-83.6322021484375,240.5961761474609
1700075589,0.119110107421875,-0.0189971923828125,-0.0784454345703125,-1.154597282409668,-0.8528406023979187,-2.6559786796569824,76.21920776367188,-83.57760620117188,239.8213806152344
1700075589,0.0554656982421875,-0.0316314697265625,-0.04693603515625,-1.038729548454285,-0.9784717559814452,-2.853914260864258,76.10345458984375,-83.85647583007812,239.96885681152344
1700075589,0.0323028564453125,-0.0184783935546875,-0.0730133056640625,-1.1367663145065308,-1.0188732147216797,-3.102701187133789,76.20475769042969,-83.39186096191406,240.12550354003903
1700075589,0.063568115234375,0.02667236328125,-0.15338134765625,-1.2602416276931765,-1.1091458797454834,-3.240884780883789,76.45845031738281,-83.15048217773438,240.218490600586
1700075589,0.0671844482421875,0.07183837890625,-0.14923095703125,-1.4862987995147705,-1.2052875757217407,-3.266059398651123,76.43807983398438,-82.94969177246094,240.2747344970703
1700075589,0.0639495849609375,0.1253204345703125,-0.1306304931640625,-1.862565875053405,-1.2319066524505615,-3.2267396450042725,76.470458984375,-83.31500244140625,240.31491088867188
1700075589,0.1438751220703125,0.153289794921875,-0.19110107421875,-2.033509016036988,-1.378820538520813,-3.0700199604034424,76.15298461914062,-83.35853576660156,240.3841857910156
1700075589,0.1937713623046875,0.325653076171875,-0.240753173828125,-1.9257264137268064,-1.5091828107833862,-2.974707126617432,76.23580932617188,-83.58013916015625,240.36080932617188
1700075589,0.222442626953125,0.577362060546875,-0.32763671875,-1.7654837369918823,-1.553672432899475,-2.866750478744507,76.64729309082031,-83.30169677734375,240.3377227783203
1700075589,0.2895660400390625,0.8352813720703125,-0.497039794921875,-1.3684113025665283,-1.546098709106445,-2.602369785308838,76.36421203613281,-83.0069580078125,241.0009002685547
1700075589,0.3525238037109375,1.097869873046875,-0.6617584228515625,-0.7343682646751404,-1.5139868259429932,-2.26012921333313,76.20195007324219,-83.23713684082031,240.83010864257807
1700075589,0.3880615234375,1.3906097412109375,-0.8197021484375,0.0536970496177673,-1.355529546737671,-1.98674750328064,76.47172546386719,-83.080078125,240.9013671875
1700075589,0.3881378173828125,1.6409912109375,-0.943572998046875,0.9867509603500366,-1.005007266998291,-1.857748746871948,76.44863891601562,-82.90214538574219,240.70782470703125
1700075589,0.382171630859375,1.737091064453125,-1.010467529296875,1.5319874286651611,-0.6694811582565308,-1.3683587312698364,76.43800354003906,-83.03884887695312,240.5440368652344
1700075589,0.24725341796875,2.021820068359375,-1.1038818359375,1.5592254400253296,-0.4277822375297546,-0.9139150977134703,76.55464172363281,-83.16555786132812,240.27674865722656
1700075589,0.2438812255859375,2.130584716796875,-1.09149169921875,1.498302698135376,-0.2031808197498321,-0.7174542546272278,76.53274536132812,-82.93692016601562,240.2912139892578
1700075589,0.3571014404296875,1.899169921875,-0.987640380859375,1.469020128250122,-0.0511438772082328,-0.4388830959796905,76.9874267578125,-82.97390747070312,240.68408203125
1700075589,0.293365478515625,1.639617919921875,-0.814788818359375,1.3083817958831787,-0.0044709146022796,-0.1893504858016967,76.97688293457031,-83.00782775878906,240.7884826660156
1700075589,0.1681365966796875,1.2839813232421875,-0.59820556640625,0.9001806378364563,0.0766002386808395,-0.1858132779598236,76.68257141113281,-82.84129333496094,240.494873046875
1700075589,0.087158203125,0.8208770751953125,-0.4805450439453125,-0.0402257181704044,0.5578475594520569,-0.5004945397377014,76.48493957519531,-82.63356018066406,240.656494140625
1700075589,-0.1322174072265625,0.3685760498046875,-1.1688995361328125,0.024769527837634,0.3237682282924652,-0.078890286386013,76.55937194824219,-82.9757080078125,240.3363494873047
1700075589,0.16064453125,0.6016387939453125,-1.0572967529296875,0.7908890843391418,0.0558142624795436,0.0214309897273778,76.56964111328125,-82.63294982910156,240.694580078125
1700075589,1.832244873046875,0.5536651611328125,-0.40106201171875,0.585554838180542,-0.5321664214134216,0.2639424204826355,76.99656677246094,-82.79849243164062,240.59542846679688
1700075589,2.8365936279296875,0.5323028564453125,-0.3621826171875,-0.0298742763698101,-0.4433220326900482,0.9114088416099548,76.14227294921875,-82.91506958007812,240.82861328125
1700075589,2.551971435546875,0.61065673828125,-0.025360107421875,-0.3203436434268951,-0.1464778482913971,0.9203951358795166,76.91883850097656,-82.66104125976562,241.26502990722656
1700075589,1.69873046875,0.089019775390625,-0.0499420166015625,-0.2934249639511108,-0.1472030282020568,0.8882275819778442,77.12074279785156,-82.68392944335938,240.50685119628903
1700075589,0.9106597900390624,0.248626708984375,-0.3347015380859375,-0.1884380877017974,-0.1592932492494583,0.6517740488052368,76.93382263183594,-82.25495910644531,241.00767517089844
1700075589,0.5573577880859375,0.2691802978515625,-0.584716796875,-0.2307674288749694,-0.1848630607128143,0.4675229787826538,76.90074157714844,-82.90139770507812,240.6253662109375
1700075589,0.6673431396484375,0.3262481689453125,-0.4077301025390625,-0.2563407123088836,-0.0927549675107002,0.3243359923362732,77.07205200195312,-82.80645751953125,240.78672790527344
1700075589,0.8174285888671875,0.4745941162109375,-0.2819366455078125,-0.1160046309232711,0.0217766687273979,0.1138344258069992,77.06828308105469,-82.58309936523438,240.07179260253903
1700075589,1.0368194580078125,0.4349365234375,-0.165069580078125,-0.0117943417280912,0.1477063745260238,-0.0096254628151655,76.89431762695312,-82.40272521972656,240.9810333251953
1700075589,1.184783935546875,0.3392333984375,-0.222076416015625,0.0706262290477752,0.1673122942447662,-0.0405309163033962,77.32437133789062,-82.37571716308594,240.94337463378903
1700075589,1.178558349609375,0.2514801025390625,-0.3612060546875,0.1262740492820739,0.1030137315392494,-0.02283207885921,76.95042419433594,-82.20977783203125,240.8152313232422
1700075589,1.071533203125,0.2099151611328125,-0.4608001708984375,0.1174358129501342,0.0213849171996116,-0.0192514583468437,76.89399719238281,-82.41270446777344,240.98455810546875
1700075589,0.961090087890625,0.1969451904296875,-0.506683349609375,0.0565391741693019,-0.0499198883771896,-0.0453001037240028,76.97122192382812,-82.64381408691406,240.8143005371093
1700075589,0.9398193359375,0.20037841796875,-0.4996337890625,-0.0019651465117931,-0.1033378392457962,-0.0892188251018524,77.19416809082031,-82.597412109375,240.82411193847656
1700075589,0.9462738037109376,0.2074737548828125,-0.4601593017578125,-0.0566265285015106,-0.1461201906204223,-0.1300402879714965,77.25411987304688,-82.45909118652344,240.69332885742188
1700075589,0.9276580810546876,0.214080810546875,-0.44091796875,-0.0651001706719398,-0.1951830685138702,-0.1705776005983352,77.33963012695312,-82.73237609863281,240.4477996826172
1700075589,0.8851165771484375,0.217864990234375,-0.4584503173828125,-0.0628260970115661,-0.2732163667678833,-0.2312444001436233,77.11268615722656,-82.44987487792969,240.33839416503903
1700075589,0.8775787353515625,0.22113037109375,-0.48150634765625,-0.0416505075991153,-0.3543306589126587,-0.3024669289588928,76.81477355957031,-82.46804809570312,240.30116271972656
1700075589,0.922821044921875,0.21502685546875,-0.459991455078125,0.0198581274598836,-0.4071840047836303,-0.3611888289451599,77.30522155761719,-82.292236328125,240.80105590820312
1700075589,0.945343017578125,0.2144012451171875,-0.4377593994140625,0.061339259147644,-0.43967005610466,-0.4043560028076172,77.16514587402344,-81.90214538574219,240.89840698242188
1700075589,0.957763671875,0.2067413330078125,-0.4225616455078125,0.0602668039500713,-0.4640760421752929,-0.4419656991958618,77.32823181152344,-82.20307922363281,240.1717529296875
1700075589,0.9833984375,0.185943603515625,-0.400482177734375,0.0153094474226236,-0.4788243770599365,-0.4456632137298584,77.67767333984375,-82.38204956054688,240.9085998535156
1700075589,1.016571044921875,0.170013427734375,-0.3696136474609375,-0.0118087222799658,-0.468621551990509,-0.4021405279636383,77.59065246582031,-82.12413024902344,240.6044311523437
1700075589,1.0357208251953125,0.1607208251953125,-0.333831787109375,-0.0007478156476281,-0.4412341117858886,-0.3641438782215118,77.31144714355469,-81.9256591796875,240.3133544921875
1700075589,1.0158843994140625,0.1587677001953125,-0.315887451171875,0.0214791931211948,-0.4084205031394958,-0.3750700056552887,77.13720703125,-82.08163452148438,240.4800567626953
1700075589,0.9580841064453124,0.1649322509765625,-0.3193511962890625,0.0582377389073371,-0.3833468556404114,-0.4237273037433624,77.2421875,-81.85569763183594,241.008041381836
1700075589,0.891448974609375,0.1769866943359375,-0.3380584716796875,0.1185317039489746,-0.3747472465038299,-0.4814260303974151,77.0345458984375,-82.20162963867188,240.40798950195312
1700075589,0.858245849609375,0.19390869140625,-0.3470306396484375,0.1578261107206344,-0.3944301307201385,-0.5248808264732361,77.56071472167969,-81.72174072265625,240.9320526123047
1700075589,0.8568572998046875,0.20697021484375,-0.3298187255859375,0.1732431501150131,-0.3889821171760559,-0.5869913101196289,77.34913635253906,-81.86276245117188,240.5262908935547
1700075589,0.8647613525390625,0.18548583984375,-0.344207763671875,0.2064218819141388,-0.3774333000183105,-0.6308666467666626,77.15098571777344,-81.78823852539062,240.8746795654297
1700075589,0.8545379638671875,0.162567138671875,-0.401275634765625,0.2163229882717132,-0.4216108918190002,-0.6662025451660156,77.0150146484375,-81.71376037597656,240.3362274169922
1700075589,0.8600616455078125,0.149444580078125,-0.429718017578125,0.2783421576023102,-0.4540140926837921,-0.6978121399879456,77.22673034667969,-81.30377197265625,240.71173095703125
1700075589,0.8865814208984375,0.13995361328125,-0.4046783447265625,0.3333446681499481,-0.4650478363037109,-0.7263156771659851,76.54629516601562,-80.95603942871094,239.4228515625
1700075589,0.87823486328125,0.141693115234375,-0.378173828125,0.3536486029624939,-0.485321968793869,-0.7478654384613037,77.21282958984375,-81.097412109375,240.1527862548828
1700075590,0.8967437744140625,0.1278533935546875,-0.3649139404296875,0.3879551887512207,-0.4953695237636566,-0.7324979305267334,77.07875061035156,-80.90802001953125,239.94297790527344
1700075590,0.9321136474609376,0.0954132080078125,-0.351287841796875,0.4633141160011291,-0.4863123893737793,-0.6924352049827576,76.98983764648438,-80.22068786621094,239.98931884765625
1700075590,0.9342803955078124,0.070037841796875,-0.3221588134765625,0.5088246464729309,-0.4869731068611145,-0.6666880249977112,76.52734375,-80.10646057128906,239.5659027099609
1700075590,0.92095947265625,0.0567779541015625,-0.27838134765625,0.4751404225826263,-0.4755950272083282,-0.6407349705696106,76.68534851074219,-79.85725402832031,239.3108062744141
1700075590,0.9163665771484376,0.0587005615234375,-0.27166748046875,0.3576912879943847,-0.4581028521060943,-0.6064297556877136,76.72412109375,-79.64579772949219,239.26223754882807
1700075590,0.9346771240234376,0.057037353515625,-0.27447509765625,0.2729857265949249,-0.4448456466197967,-0.567186176776886,76.60166931152344,-78.98463439941406,239.16519165039065
1700075590,0.9611968994140624,0.00860595703125,-0.2438201904296875,0.1750224083662033,-0.4100998938083648,-0.4865704476833343,76.63555908203125,-78.55717468261719,239.3343048095703
1700075590,0.955596923828125,-0.0459747314453125,-0.2127838134765625,0.2071675658226013,-0.3443771004676819,-0.3672555088996887,76.74333190917969,-78.0653076171875,239.2262725830078
1700075590,0.9308624267578124,-0.1138763427734375,-0.1867828369140625,0.3355452418327331,-0.2898840308189392,-0.2262549698352813,76.39387512207031,-77.43829345703125,239.1059112548828
1700075590,0.906036376953125,-0.166351318359375,-0.2087554931640625,0.345755010843277,-0.257211297750473,-0.0774284750223159,76.09060668945312,-77.02995300292969,238.8178253173828
1700075590,0.906219482421875,-0.15472412109375,-0.221923828125,0.2608821988105774,-0.1874939948320388,0.0520269833505153,76.23916625976562,-76.7635498046875,238.68687438964844
1700075590,0.9176177978515624,-0.11456298828125,-0.2032318115234375,0.1809564679861068,-0.1223416253924369,0.185820996761322,76.07125854492188,-76.58807373046875,238.1345977783203
1700075590,0.9373626708984376,-0.113555908203125,-0.22283935546875,0.2072234898805618,-0.0971742197871208,0.326032429933548,76.02780151367188,-76.43869018554688,238.42662048339844
1700075590,0.990753173828125,-0.1255340576171875,-0.2532958984375,0.3063170611858368,-0.0950114652514457,0.437577873468399,75.31704711914062,-76.40705871582031,238.2088928222656
1700075590,1.0563507080078125,-0.1230621337890625,-0.2200927734375,0.3562574386596679,-0.0459397956728935,0.5232789516448975,75.50868225097656,-75.94941711425781,238.0774383544922
1700075590,1.117156982421875,-0.0908203125,-0.17236328125,0.3091320097446441,-0.0254773963242769,0.6090758442878723,75.24507141113281,-75.72465515136719,238.85939025878903
1700075590,1.1615753173828125,-0.028411865234375,-0.1898193359375,0.2296230792999267,-0.0633195862174034,0.6564582586288452,75.271728515625,-75.5147705078125,238.40138244628903
1700075590,1.1988067626953125,0.032989501953125,-0.2056732177734375,0.215614840388298,-0.0722057521343231,0.6818147897720337,75.40231323242188,-75.37838745117188,238.0738983154297
1700075590,1.2453155517578125,0.0222625732421875,-0.1838836669921875,0.3075295984745025,-0.0651643574237823,0.6893211603164673,75.19795227050781,-75.57305908203125,238.4259033203125
1700075590,1.2615203857421875,0.0009765625,-0.2072906494140625,0.4077403545379638,-0.1048140302300453,0.6918761730194092,74.92164611816406,-75.30247497558594,238.3313446044922
1700075590,1.3167572021484375,-0.0029449462890625,-0.186614990234375,0.4724977612495422,-0.1250665783882141,0.6884101033210754,74.72111511230469,-74.9320068359375,238.04840087890625
1700075590,1.3685760498046875,0.000946044921875,-0.149169921875,0.4947319626808166,-0.1550316661596298,0.689801037311554,74.53831481933594,-75.13230895996094,238.7244873046875
1700075590,1.4292449951171875,0.0074615478515625,-0.1240081787109375,0.473407506942749,-0.2132217288017273,0.7127931714057922,74.15486145019531,-75.11358642578125,238.82452392578125
1700075590,1.4875640869140625,0.017242431640625,-0.0597991943359375,0.4735095202922821,-0.237894058227539,0.736572802066803,74.24275207519531,-75.16651916503906,238.2705078125
1700075590,1.5361480712890625,-0.0377960205078125,0.028839111328125,0.4609806537628174,-0.2211054861545562,0.7861425280570984,74.29409790039062,-75.39065551757812,238.614990234375
1700075590,1.56585693359375,-0.1531524658203125,0.103271484375,0.3934759199619293,-0.1634528487920761,0.90086829662323,74.27157592773438,-75.63418579101562,238.8243865966797
1700075590,1.572113037109375,-0.2517547607421875,0.13555908203125,0.315641850233078,-0.1931963562965393,1.0017060041427612,74.14027404785156,-75.73782348632812,237.8490753173828
1700075590,1.569061279296875,-0.3544769287109375,0.218719482421875,0.317848801612854,-0.1989980489015579,1.0967570543289185,74.38969421386719,-75.61135864257812,238.7867889404297
1700075590,1.557373046875,-0.48187255859375,0.3121185302734375,0.1959647089242935,-0.1324656307697296,1.235977053642273,73.94244384765625,-76.35008239746094,238.4574737548828
1700075590,1.4738922119140625,-0.528167724609375,0.270599365234375,-0.0380019769072532,0.2080586552619934,1.3643555641174316,73.96775817871094,-76.5189208984375,238.2911529541016
1700075590,1.35028076171875,-0.533935546875,-0.0479583740234375,-0.2597671151161194,0.7391360998153687,1.5227984189987185,73.97589111328125,-76.640869140625,238.3688201904297
1700075590,1.2180023193359375,-0.44677734375,-0.4658966064453125,-0.5921576023101807,1.2971482276916504,1.9334567785263064,73.94491577148438,-76.95384216308594,238.38229370117188
1700075590,1.11767578125,-0.1494293212890625,-0.9002532958984375,-0.941524624824524,1.4386504888534546,2.3111941814422607,73.50437927246094,-77.22415161132812,238.3395233154297
1700075590,1.1977386474609375,0.071746826171875,-1.2043304443359375,-1.0650556087493896,1.2612826824188232,2.7045488357543945,73.58450317382812,-77.13398742675781,238.7662048339844
1700075590,1.4448394775390625,0.2788238525390625,-1.413909912109375,-0.5297325849533081,1.132860541343689,3.0189130306243896,73.7607421875,-77.66267395019531,238.32275390625
1700075590,1.50445556640625,0.491424560546875,-1.2423095703125,0.3538148105144501,0.9021759033203124,3.2396469116210938,73.59617614746094,-77.86814880371094,238.5576629638672
1700075590,1.485931396484375,0.6780853271484375,-0.7010040283203125,1.0008593797683716,1.0474745035171509,3.308899402618408,73.62638854980469,-77.90116882324219,238.3925323486328
1700075590,1.4796905517578125,0.8412322998046875,-0.439239501953125,1.4704172611236572,1.5938619375228882,3.295285701751709,73.84683227539062,-77.96281433105469,238.13710021972656
1700075590,1.5515594482421875,1.1126861572265625,-0.418670654296875,1.7182520627975464,2.010251998901367,3.294287204742432,73.66386413574219,-78.18936157226562,238.6066436767578
1700075590,1.6974029541015625,1.35107421875,-0.468170166015625,1.659191370010376,2.0722463130950928,3.0132486820220947,73.60768127441406,-78.34306335449219,238.36297607421875
1700075590,1.8699493408203125,1.171295166015625,-0.66729736328125,1.5969823598861694,1.9396651983261108,2.646049737930298,73.615234375,-78.46615600585938,238.1454925537109
1700075590,1.910675048828125,0.7391357421875,-0.757049560546875,1.4101773500442505,1.738236665725708,2.519718885421753,73.7490234375,-78.45819091796875,238.4359130859375
1700075590,1.767913818359375,0.5083465576171875,-0.755828857421875,1.0008220672607422,1.5160536766052246,2.641987562179565,73.66964721679688,-78.7705078125,238.2142028808593
1700075590,1.5784454345703125,0.405548095703125,-0.7291717529296875,0.4458927810192108,1.286871075630188,2.707662582397461,73.82807922363281,-78.57929992675781,238.43487548828125
1700075590,1.440338134765625,0.27093505859375,-0.6732177734375,-0.0641150698065757,1.1200538873672483,2.5923821926116943,73.77761840820312,-78.566162109375,238.65757751464844
1700075590,1.32720947265625,0.11773681640625,-0.5679168701171875,-0.3462224006652832,1.0844151973724363,2.277446985244751,73.71583557128906,-78.6331787109375,238.08712768554688
1700075590,1.24755859375,-0.018096923828125,-0.3809661865234375,-0.445048838853836,1.0494226217269895,1.9748862981796265,73.93011474609375,-78.49752807617188,238.71006774902344
1700075590,1.1037139892578125,-0.06817626953125,-0.1936492919921875,-0.4662068486213684,1.0037760734558103,1.691451907157898,73.99700927734375,-78.42752075195312,238.23829650878903
1700075590,0.919464111328125,-0.115142822265625,-0.1455230712890625,-0.4663911461830139,0.9214012622833252,1.3697401285171509,73.76130676269531,-78.41058349609375,238.0126495361328
1700075590,0.7384796142578125,-0.174774169921875,-0.16546630859375,-0.4543986618518829,0.8453179597854614,1.009441375732422,73.6361083984375,-78.20950317382812,238.2800750732422
1700075590,0.57177734375,-0.22479248046875,-0.19976806640625,-0.4143340587615967,0.7481871247291565,0.6121501922607422,73.14620971679688,-78.31263732910156,237.82485961914065
1700075590,0.4086761474609375,-0.29931640625,-0.1797332763671875,-0.3954043090343475,0.6339713335037231,0.2134044170379638,73.07907104492188,-77.85527038574219,238.0749969482422
1700075590,0.2834320068359375,-0.3818359375,-0.111480712890625,-0.3893256485462188,0.5080176591873169,-0.1378225833177566,73.15098571777344,-77.2562255859375,237.68719482421875
1700075590,0.184722900390625,-0.4220428466796875,-0.0318450927734375,-0.4045485556125641,0.3408721089363098,-0.4450426995754242,72.83177185058594,-77.24674987792969,237.7256317138672
1700075590,0.1494140625,-0.4168701171875,0.0087890625,-0.4171157479286194,0.1778328418731689,-0.737765908241272,72.39384460449219,-76.56803894042969,237.3235015869141
1700075590,0.1893310546875,-0.3889007568359375,0.0121917724609375,-0.6279461979866028,0.0361191220581531,-1.0402663946151731,72.80577087402344,-76.78172302246094,237.76885986328125
1700075590,0.2338714599609375,-0.3489990234375,-0.0346527099609375,-0.8938929438591003,-0.1051192283630371,-1.3643581867218018,72.32565307617188,-76.69119262695312,237.85250854492188
1700075590,0.2238006591796875,-0.3445281982421875,-0.0883636474609375,-1.1561479568481443,-0.2370897829532623,-1.681597113609314,71.96601867675781,-76.71662902832031,237.489013671875
1700075590,0.1690216064453125,-0.354156494140625,-0.0982666015625,-1.3686189651489258,-0.3445749580860138,-1.9698553085327148,71.78065490722656,-76.87858581542969,237.1969451904297
1700075590,0.121246337890625,-0.3789215087890625,-0.07427978515625,-1.4994462728500366,-0.450578898191452,-2.1631791591644287,72.04460144042969,-77.34414672851562,237.22637939453125
1700075590,0.0581817626953125,-0.3658905029296875,-0.0730438232421875,-1.706028938293457,-0.5411378145217896,-2.372594118118286,71.80024719238281,-76.71658325195312,236.8651885986328
1700075590,0.0090484619140625,-0.2951812744140625,-0.127044677734375,-1.9913747310638428,-0.6506925225257874,-2.6273136138916016,72.05574035644531,-76.96258544921875,237.26795959472656
1700075590,-0.0040130615234375,-0.212371826171875,-0.1782379150390625,-2.249720573425293,-0.8055945038795471,-2.849238634109497,71.52239990234375,-77.04908752441406,236.5143585205078
1700075590,-0.01153564453125,-0.1497650146484375,-0.167724609375,-2.4435479640960693,-0.970205545425415,-2.999699831008911,71.60177612304688,-77.16777038574219,236.8569793701172
1700075590,0.0115814208984375,-0.05535888671875,-0.1748809814453125,-2.170179843902588,-1.139439582824707,-3.003453493118286,71.29815673828125,-76.97039794921875,236.1060791015625
1700075590,0.040374755859375,0.140960693359375,-0.1058197021484375,-1.6480079889297483,-1.234765887260437,-3.06196403503418,71.34101867675781,-76.54432678222656,236.1845245361328
1700075590,0.0610809326171875,0.4177398681640625,-0.089569091796875,-1.0723439455032349,-1.290459156036377,-3.175878524780273,71.34812927246094,-76.46664428710938,236.4638214111328
1700075590,0.0526885986328125,0.7091217041015625,-0.298492431640625,-0.4453215301036834,-1.1603784561157229,-3.283977746963501,70.91192626953125,-76.28717041015625,236.2259063720703
1700075590,0.048828125,0.8532867431640625,-0.520904541015625,0.0762894451618194,-0.9664962887763976,-3.2465176582336426,71.12875366210938,-76.50863647460938,236.0366668701172
1700075590,0.1207275390625,0.93658447265625,-0.660614013671875,0.5357853770256042,-0.7891630530357361,-2.8988211154937744,70.89280700683594,-76.40692138671875,236.1690368652344
1700075590,0.1795501708984375,1.0536041259765625,-0.81488037109375,0.9404953122138976,-0.6630842089653015,-2.393706798553467,70.96229553222656,-76.42684936523438,235.9228973388672
1700075590,0.195892333984375,1.213775634765625,-0.98199462890625,1.1352653503417969,-0.5347166657447815,-1.9364584684371948,70.68035888671875,-76.24775695800781,235.8841247558593
1700075590,0.2402496337890625,1.3783416748046875,-1.1747589111328125,1.0472651720046997,-0.4461271464824676,-1.510248780250549,70.86961364746094,-76.41822814941406,236.0835418701172
1700075590,0.2744293212890625,1.661468505859375,-1.1872406005859375,0.8877740502357483,-0.3539239764213562,-1.1130218505859375,70.71633911132812,-75.96829223632812,236.27880859375
1700075590,0.3250885009765625,1.902801513671875,-0.943267822265625,0.7551997900009155,-0.2102464437484741,-0.6677111983299255,70.49562072753906,-75.94035339355469,235.8359222412109
1700075590,0.2809906005859375,2.054306030273437,-0.7506866455078125,0.6298503875732422,-0.1098495349287986,-0.3758561909198761,70.33453369140625,-75.71760559082031,236.1667022705078
1700075590,0.24432373046875,1.9581451416015625,-0.7313690185546875,0.0054861116223037,0.5300103425979614,-0.4949439465999603,70.57426452636719,-75.85881042480469,235.9061737060547
1700075590,0.3384857177734375,1.4541778564453125,-1.2723846435546875,0.2446973621845245,0.1976211965084076,-0.1821514219045639,70.841796875,-75.60054016113281,235.9111328125
1700075590,0.360809326171875,1.1649627685546875,-0.9877471923828124,-0.0485488921403884,-0.6579291224479675,0.2427186369895935,70.50386047363281,-75.60595703125,235.89517211914065
1700075590,1.04681396484375,1.108001708984375,0.157073974609375,-0.9605481624603271,-0.5198237299919128,-0.3046456575393677,70.41683959960938,-75.24053955078125,235.88067626953125
1700075590,1.8669281005859373,0.30255126953125,0.236358642578125,-0.5459246039390564,-0.228052869439125,-0.3774692714214325,70.58563232421875,-75.56544494628906,235.83888244628903
1700075590,1.77484130859375,0.08428955078125,0.0642852783203125,-0.2814623117446899,-0.0882446393370628,-0.0873349085450172,70.73609924316406,-75.4605712890625,235.9830322265625
1700075590,1.4741668701171875,0.1002655029296875,-0.5762481689453125,0.2512085139751434,-0.2295272052288055,0.2959632277488708,70.82937622070312,-75.51634216308594,236.26882934570312
1700075590,1.13763427734375,0.047119140625,-0.802154541015625,0.5707598924636841,-0.5620279312133789,0.6203527450561523,70.91960144042969,-75.59503173828125,236.22618103027344
1700075590,1.1699066162109375,0.22210693359375,-0.424102783203125,-0.06758863478899,-0.5779182314872742,0.7888096570968628,70.86891174316406,-75.51176452636719,235.7372589111328
1700075590,1.5652923583984375,0.6093902587890625,-0.06353759765625,-0.5399942398071289,-0.3653678596019745,0.5900976657867432,70.94816589355469,-75.38929748535156,236.34011840820312
1700075590,1.265594482421875,0.7379608154296875,-0.1516876220703125,-0.37699094414711,-0.2892469763755798,0.2391286939382553,70.32182312011719,-75.2952880859375,236.5993804931641
1700075590,0.826568603515625,0.5023345947265625,-0.3977508544921875,-0.2215494364500045,-0.2299234718084335,0.0307709611952304,70.71688842773438,-75.64430236816406,236.07644653320312
1700075590,0.6940460205078125,0.3179931640625,-0.49810791015625,-0.2041608542203903,-0.1815950870513916,-0.004529770463705,70.83549499511719,-75.11825561523438,235.9262237548828
1700075590,0.758026123046875,0.1984405517578125,-0.3960723876953125,-0.2496332675218582,-0.1338592618703842,0.0610756054520607,70.92860412597656,-75.15591430664062,236.12698364257807
1700075590,0.8633575439453125,0.2071990966796875,-0.313446044921875,-0.2940316200256347,-0.1036963015794754,0.0424103066325187,70.6915283203125,-75.23605346679688,235.7076110839844
1700075590,0.982452392578125,0.2747650146484375,-0.3436431884765625,-0.2499770820140838,-0.0812759473919868,-0.0561884380877018,70.7255859375,-75.25517272949219,235.9597625732422
1700075590,1.044281005859375,0.3061981201171875,-0.3917694091796875,-0.148607850074768,-0.1015268936753273,-0.1530446708202362,70.87153625488281,-74.79136657714844,236.4319000244141
1700075590,1.040313720703125,0.3072052001953125,-0.43927001953125,-0.1131907403469085,-0.1699054092168808,-0.2102586925029754,70.95101928710938,-75.27044677734375,236.1913146972656
1700075590,1.0391998291015625,0.2839508056640625,-0.4538421630859375,-0.0769272744655609,-0.222041055560112,-0.245522141456604,70.96247863769531,-75.13340759277344,236.4337310791016
1700075590,1.0235443115234375,0.2455596923828125,-0.4596099853515625,-0.0340892598032951,-0.2673968076705932,-0.2556909024715423,70.81539916992188,-75.09010314941406,235.9630279541016
1700075590,0.9926605224609376,0.224456787109375,-0.4402313232421875,-0.011822304688394,-0.3038578927516937,-0.26319220662117,71.11625671386719,-74.89100646972656,235.9344024658203
1700075590,0.9714508056640624,0.2102203369140625,-0.4149322509765625,-0.003345729317516,-0.341086208820343,-0.2953227162361145,70.6917724609375,-74.784423828125,235.7338409423828
1700075590,0.9660491943359376,0.188720703125,-0.408050537109375,0.0422672964632511,-0.3703463673591614,-0.3194522857666015,70.78924560546875,-74.47135925292969,235.40255737304688
1700075590,0.9599456787109376,0.169677734375,-0.4283447265625,0.0987244471907615,-0.4157087802886963,-0.3245029747486114,70.82679748535156,-74.60281372070312,235.7361602783203
1700075591,0.9149017333984376,0.1791839599609375,-0.4558563232421875,0.0730872601270675,-0.4729875326156616,-0.3481049835681915,70.40322875976562,-74.3929443359375,235.98780822753903
1700075591,0.912017822265625,0.1925506591796875,-0.4339599609375,0.0191340129822492,-0.4927553832530975,-0.387443333864212,70.65650939941406,-74.00515747070312,235.540267944336
1700075591,0.943634033203125,0.209716796875,-0.40093994140625,-0.0112382732331752,-0.4808385372161865,-0.4241797626018524,70.40121459960938,-74.02250671386719,235.8255310058593
1700075591,0.9817047119140624,0.21533203125,-0.379852294921875,0.0075918734073638,-0.4746695756912231,-0.4492845833301544,70.23271179199219,-74.2347412109375,235.68182373046875
1700075591,1.0159912109375,0.2112579345703125,-0.3558349609375,0.0324868373572826,-0.4881060123443603,-0.4603787958621979,70.42160034179688,-73.83399963378906,236.0791015625
1700075591,1.0353240966796875,0.2051849365234375,-0.354583740234375,0.0615621656179428,-0.4912118017673492,-0.4683717489242553,70.64726257324219,-73.77061462402344,235.67727661132807
1700075591,1.03521728515625,0.2042999267578125,-0.3440704345703125,0.1283316016197204,-0.480360746383667,-0.5019219517707825,70.09121704101562,-73.11457824707031,235.0321350097656
1700075591,1.004241943359375,0.190032958984375,-0.3497467041015625,0.2587663233280182,-0.4685653448104858,-0.5391822457313538,70.58567810058594,-73.64028930664062,235.2362365722656
1700075591,0.93585205078125,0.182159423828125,-0.39825439453125,0.3255360126495361,-0.5074943900108337,-0.5700703859329224,69.93531799316406,-73.27311706542969,235.743896484375
1700075591,0.8670654296875,0.1907501220703125,-0.403076171875,0.3148681819438934,-0.5265567302703857,-0.6110495328903198,70.32850646972656,-73.23091125488281,235.2901611328125
1700075591,0.841552734375,0.187591552734375,-0.3651885986328125,0.2543537318706512,-0.4902485311031341,-0.6519500613212585,70.06947326660156,-72.78187561035156,235.74639892578125
1700075591,0.844696044921875,0.1774444580078125,-0.34649658203125,0.2005490809679031,-0.4742338955402374,-0.6620408296585083,70.2021484375,-72.67160034179688,235.57342529296875
1700075591,0.8639373779296875,0.163909912109375,-0.3193206787109375,0.1570029258728027,-0.4727097451686859,-0.6478216648101807,69.94866943359375,-72.8363037109375,234.83355712890625
1700075591,0.9230194091796876,0.1332244873046875,-0.30535888671875,0.1153982281684875,-0.4462262094020843,-0.6113097071647644,70.2291259765625,-72.14126586914062,235.0688934326172
1700075591,0.9899139404296876,0.0919036865234375,-0.32452392578125,0.1445878148078918,-0.417297899723053,-0.5577210783958435,69.91807556152344,-71.93209838867188,235.0481414794922
1700075591,0.992950439453125,0.0579376220703125,-0.3046417236328125,0.2141029685735702,-0.3922101259231567,-0.5052639842033386,70.20756530761719,-71.49163818359375,234.94284057617188
1700075591,0.9451446533203124,0.0378875732421875,-0.293914794921875,0.2421023845672607,-0.3717168271541595,-0.466794341802597,69.91549682617188,-71.42184448242188,234.8167266845703
1700075591,0.9061737060546876,0.054443359375,-0.2880096435546875,0.3081008493900299,-0.3459928333759308,-0.435900866985321,69.46427917480469,-70.96781921386719,235.1268005371093
1700075591,0.9093170166015624,0.0502166748046875,-0.2348480224609375,0.405080646276474,-0.2974433898925781,-0.3771384954452514,69.72053527832031,-70.75816345214844,234.3836212158203
1700075591,0.9693756103515624,0.0318603515625,-0.1920013427734375,0.379481554031372,-0.2608917951583862,-0.2597913742065429,69.79908752441406,-70.212158203125,234.5746307373047
1700075591,1.0267333984375,0.01666259765625,-0.2420654296875,0.3774889707565307,-0.2324657291173935,-0.1815940290689468,69.84255981445312,-69.88713073730469,234.5717315673828
1700075591,1.02569580078125,-0.0381927490234375,-0.3092803955078125,0.4627596437931061,-0.2490407079458236,-0.1446804851293563,70.179931640625,-69.39923095703125,234.64321899414065
1700075591,0.975677490234375,-0.0547943115234375,-0.2772216796875,0.340971440076828,-0.2689422369003296,-0.0719863101840019,70.47209167480469,-69.09870910644531,234.3235778808593
1700075591,0.927032470703125,-0.0121917724609375,-0.2451629638671875,0.1250034570693969,-0.224540427327156,0.0424441285431385,70.75837707519531,-68.63728332519531,234.58973693847656
1700075591,0.88446044921875,-0.005645751953125,-0.292999267578125,0.056270994246006,-0.2204897701740265,0.131331130862236,70.76844787597656,-68.27244567871094,234.00262451171875
1700075591,0.8940277099609375,-0.058502197265625,-0.2947540283203125,0.1262950897216797,-0.2220213413238525,0.1874868124723434,71.03192138671875,-67.91983032226562,234.2094268798828
1700075591,0.971893310546875,-0.110870361328125,-0.24615478515625,0.1840768903493881,-0.2033232897520065,0.286387026309967,71.62528991699219,-67.51116943359375,233.7978363037109
1700075591,1.0223388671875,-0.0169830322265625,-0.2638397216796875,0.2384266853332519,-0.2354426085948944,0.3082278668880462,71.97697448730469,-66.87890625,233.3785552978516
1700075591,1.1056671142578125,0.0809783935546875,-0.232330322265625,0.2588938772678375,-0.2614033818244934,0.3203849494457245,72.17703247070312,-66.84510803222656,232.9404296875
1700075591,1.1611175537109375,0.1541900634765625,-0.2081146240234375,0.2578669488430023,-0.2864906191825866,0.291245698928833,72.00971984863281,-65.92909240722656,233.06260681152344
1700075591,1.2064361572265625,0.161041259765625,-0.181610107421875,0.3468053638935089,-0.276640385389328,0.2628340125083923,72.66111755371094,-65.41937255859375,232.8189697265625
1700075591,1.2351837158203125,0.1058349609375,-0.1873321533203125,0.5106456875801086,-0.2766094803810119,0.2224541157484054,72.77381896972656,-65.06715393066406,232.4187927246093
1700075591,1.24566650390625,0.05712890625,-0.1955718994140625,0.5914713144302368,-0.3018874228000641,0.2386080473661422,72.2730712890625,-64.14117431640625,231.6949157714844
1700075591,1.274139404296875,0.0380706787109375,-0.149932861328125,0.6071889996528625,-0.2915897667407989,0.2925144135951996,72.11715698242188,-63.42539978027344,231.3357696533203
1700075591,1.3031768798828125,-0.0063323974609375,-0.1280517578125,0.5309027433395386,-0.2823653817176819,0.3239176273345947,72.20994567871094,-63.23915100097656,231.1722869873047
1700075591,1.3380584716796875,-0.0664215087890625,-0.1685638427734375,0.4689211547374725,-0.3139142394065857,0.354377269744873,71.6473388671875,-62.41168212890625,230.95372009277344
1700075591,1.382965087890625,-0.171173095703125,-0.1306610107421875,0.4136059582233429,-0.3490938246250152,0.4787040054798126,72.11103820800781,-62.22613525390625,230.34571838378903
1700075591,1.4199981689453125,-0.2212371826171875,-0.0914764404296875,0.2796577513217926,-0.3995551168918609,0.6331010460853577,71.65655517578125,-61.405792236328125,230.3571319580078
1700075591,1.4593505859375,-0.238677978515625,-0.0315093994140625,0.2946737110614776,-0.3885389566421509,0.7251414656639099,71.54501342773438,-61.02508544921875,229.92868041992188
1700075591,1.503875732421875,-0.32037353515625,0.077239990234375,0.3483960628509521,-0.3993063867092132,0.8238829374313354,71.16218566894531,-60.48432922363281,229.7186889648437
1700075591,1.524688720703125,-0.3672943115234375,0.1875457763671875,0.3988285958766937,-0.4021320044994354,0.9399669766426086,71.21771240234375,-59.56031799316406,229.3920745849609
1700075591,1.4846343994140625,-0.4251556396484375,0.2291259765625,0.466310977935791,-0.349335104227066,1.031003713607788,71.0758056640625,-58.88041687011719,228.6529693603516
1700075591,1.418548583984375,-0.5441741943359375,0.204742431640625,0.5054485201835632,-0.215274229645729,1.0744789838790894,70.90611267089844,-58.09410095214844,228.17526245117188
1700075591,1.3386993408203125,-0.6500701904296875,0.134246826171875,0.340074747800827,0.1799191683530807,1.181146264076233,70.73330688476562,-57.88665771484375,227.4585876464844
1700075591,1.2562713623046875,-0.6056671142578125,-0.2437744140625,-0.1261981427669525,0.7022931575775146,1.606495976448059,70.14666748046875,-57.329833984375,227.05105590820312
1700075591,1.147796630859375,-0.2996673583984375,-0.7897186279296875,-0.901236057281494,0.996504247188568,2.176710844039917,70.27503967285156,-57.16941833496094,225.8640594482422
1700075591,1.049713134765625,0.014556884765625,-1.2781982421875,-1.315182089805603,1.0215376615524292,2.643794775009156,70.39349365234375,-57.02638244628906,225.37252807617188
1700075591,1.21063232421875,0.1378936767578125,-1.42724609375,-1.297333598136902,1.0390530824661257,3.07250452041626,70.10769653320312,-57.13442993164063,224.31788635253903
1700075591,1.3723907470703125,0.3325958251953125,-1.2530670166015625,-0.8479744791984558,1.0082824230194092,3.494719982147217,70.31965637207031,-56.95500183105469,223.4888916015625
1700075591,1.3765716552734375,0.60357666015625,-0.971221923828125,-0.4771995842456817,0.8048434853553772,3.755043268203736,70.47038269042969,-57.18072509765625,223.3602294921875
1700075591,1.4527130126953125,0.810699462890625,-0.631011962890625,-0.2936313450336456,0.9518513083457948,3.655303955078125,70.76776123046875,-56.63575744628906,222.67584228515625
1700075591,1.566650390625,0.941680908203125,-0.5128021240234375,0.0507593154907226,1.4393842220306396,3.303925037384033,71.24504089355469,-56.50445556640625,221.3812866210937
1700075591,1.7128448486328125,1.123992919921875,-0.471221923828125,0.5400752425193787,1.6985965967178345,2.869818925857544,71.67996215820312,-56.30619812011719,220.8024139404297
1700075591,1.837158203125,1.15228271484375,-0.3813629150390625,0.958853006362915,1.8551356792449951,2.5420477390289307,72.27583312988281,-56.73091125488281,220.45919799804688
1700075591,1.7693023681640625,0.8691253662109375,-0.5274505615234375,1.277133584022522,1.876696348190308,2.429553270339966,72.983154296875,-56.72270202636719,219.30506896972656
1700075591,1.6292266845703125,0.6262359619140625,-0.61505126953125,1.2074159383773804,1.645734429359436,2.485536575317383,73.07379150390625,-57.6737060546875,218.7577514648437
1700075591,1.596771240234375,0.5080108642578125,-0.6004486083984375,0.9012818932533264,1.37278413772583,2.50512170791626,73.78160095214844,-58.29032897949219,218.31954956054688
1700075591,1.6015167236328125,0.3477630615234375,-0.6036224365234375,0.5131368041038513,1.1489145755767822,2.3901662826538086,74.99278259277344,-58.71595764160156,217.64141845703125
1700075591,1.5411529541015625,0.1985626220703125,-0.5679931640625,0.1608850210905075,1.0501539707183838,2.22461485862732,75.94345092773438,-59.63201904296875,216.68307495117188
1700075591,1.3541412353515625,0.1351470947265625,-0.498565673828125,-0.0640128031373024,1.0410571098327637,1.9723341464996336,77.23556518554688,-60.71598815917969,216.3903045654297
1700075591,1.171417236328125,0.09161376953125,-0.3523406982421875,-0.2016082108020782,1.007349729537964,1.659613847732544,78.00590515136719,-61.53610229492188,215.9768981933593
1700075591,1.0075836181640625,0.051666259765625,-0.1787261962890625,-0.3319278657436371,0.9695605635643004,1.3521249294281006,78.83229064941406,-62.759796142578125,215.3544311523437
1700075591,0.8194122314453125,-0.0128021240234375,-0.1206512451171875,-0.4596139192581177,0.8734699487686157,1.1006330251693726,79.95516967773438,-63.69215393066406,215.79481506347656
1700075591,0.616912841796875,-0.068756103515625,-0.120086669921875,-0.5987758040428162,0.7666391134262085,0.7848833799362183,81.11669921875,-64.81059265136719,215.43679809570312
1700075591,0.4681396484375,-0.1696929931640625,-0.1546630859375,-0.6808125972747803,0.6901581883430481,0.4367128610610962,82.06045532226562,-65.4766845703125,215.3743896484375
1700075591,0.3473358154296875,-0.2746429443359375,-0.1473388671875,-0.7528184056282043,0.5919495820999146,0.1141995415091514,83.00320434570312,-67.05099487304688,215.0824584960937
1700075591,0.2660980224609375,-0.3330841064453125,-0.1046905517578125,-0.8542104959487915,0.4381299316883087,-0.1534747779369354,84.16836547851562,-68.4056396484375,215.47433471679688
1700075591,0.24273681640625,-0.336883544921875,-0.0774688720703125,-0.955419659614563,0.299128383398056,-0.3776642084121704,84.572998046875,-69.81971740722656,215.4809112548828
1700075591,0.2223968505859375,-0.30548095703125,-0.0738067626953125,-1.118537187576294,0.1723922789096832,-0.6643630862236023,85.66653442382812,-71.61209106445312,215.51190185546875
1700075591,0.2248687744140625,-0.28021240234375,-0.1000213623046875,-1.283578634262085,0.0112553173676133,-0.9746642112731934,86.09393310546875,-73.40718078613281,215.7186737060547
1700075591,0.2254638671875,-0.2610321044921875,-0.0737152099609375,-1.4258716106414795,-0.1058446764945983,-1.260777235031128,87.19572448730469,-74.9085693359375,216.1468811035156
1700075591,0.1894378662109375,-0.255126953125,-0.085540771484375,-1.4234890937805176,-0.2169613391160965,-1.4842755794525146,87.76722717285156,-76.51783752441406,216.28839111328125
1700075591,0.116119384765625,-0.2114105224609375,-0.0899810791015625,-1.39266037940979,-0.3275677561759949,-1.7659839391708374,88.67887878417969,-77.86953735351562,216.43307495117188
1700075591,0.067535400390625,-0.18255615234375,-0.1033477783203125,-1.342228651046753,-0.4428304135799408,-2.076399087905884,89.30479431152344,-78.97700500488281,216.91116333007807
1700075591,0.0557098388671875,-0.1602325439453125,-0.10797119140625,-1.3043111562728882,-0.4827863574028015,-2.371692180633545,89.62698364257812,-79.49574279785156,217.12274169921875
1700075591,0.0319976806640625,-0.14013671875,-0.128448486328125,-1.32636559009552,-0.5770018100738525,-2.616626262664795,90.10995483398438,-79.87995910644531,217.1192779541016
1700075591,0.0278472900390625,-0.0945587158203125,-0.134033203125,-1.3890427350997925,-0.6867887377738953,-2.8456003665924072,90.21304321289062,-79.44827270507812,216.79429626464844
1700075591,0.018402099609375,-0.0341796875,-0.1451263427734375,-1.3188109397888184,-0.8064563274383545,-2.9970147609710693,90.7544403076172,-78.91490173339844,217.4471130371093
1700075591,0.0377197265625,0.0520172119140625,-0.1293487548828125,-1.0278651714324951,-0.855737566947937,-3.0143818855285645,90.1351318359375,-78.49922180175781,216.8853912353516
1700075591,0.1075439453125,0.198577880859375,-0.0831451416015625,-0.7255646586418152,-0.933824896812439,-3.009930372238159,90.54966735839844,-77.78495788574219,216.66458129882807
1700075591,0.1284942626953125,0.4344482421875,-0.1575927734375,-0.2592414319515228,-0.9996609091758728,-3.017717361450196,90.00030517578125,-77.57696533203125,216.89669799804688
1700075591,0.11688232421875,0.68609619140625,-0.29595947265625,0.1935130059719085,-0.9514630436897278,-2.997100114822388,90.21360778808594,-77.1685791015625,216.9322662353516
1700075591,0.127716064453125,0.8798370361328125,-0.4103240966796875,0.60715252161026,-0.8036831617355347,-2.9017577171325684,89.89060974121094,-76.5517578125,216.8162536621093
1700075591,0.1455078125,1.0328521728515625,-0.5655670166015625,1.0545390844345093,-0.6714057922363281,-2.6692111492156982,88.85050964355469,-77.14411926269531,215.9618530273437
1700075591,0.1712493896484375,1.2130584716796875,-0.714569091796875,1.4175399541854858,-0.5569719076156616,-2.424668312072754,89.29251098632812,-76.70477294921875,216.6943359375
1700075591,0.250335693359375,1.3564300537109375,-0.81036376953125,1.426427721977234,-0.4313386082649231,-1.9116164445877075,88.87442016601562,-76.38040161132812,216.87112426757807
1700075591,0.25042724609375,1.64825439453125,-0.884796142578125,1.2212811708450315,-0.3216201066970825,-1.329388976097107,89.12069702148438,-76.58209228515625,216.91036987304688
1700075591,0.2554931640625,1.9076080322265625,-0.8886566162109375,0.8758518695831299,-0.2270717620849609,-0.8339699506759644,89.41473388671875,-76.10256958007812,217.1009826660156
1700075591,0.2933197021484375,2.022613525390625,-0.827392578125,0.5727916359901428,-0.0318428836762905,-0.5233646631240845,89.64334106445312,-76.08757019042969,217.177734375
1700075591,0.298492431640625,1.9149932861328125,-0.77789306640625,0.3784085512161255,0.1030161306262016,-0.2796002328395843,89.62260437011719,-75.87528991699219,217.26123046875
1700075591,0.2060394287109375,1.7157135009765625,-0.6685791015625,-0.2383678257465362,0.3960679769515991,-0.2922150790691376,89.79290771484375,-75.94261169433594,217.697265625
1700075591,0.102081298828125,1.346435546875,-0.7562713623046875,-0.2552258968353271,0.0882022976875305,-0.6488171219825745,89.66940307617188,-75.58932495117188,217.4810333251953
1700075591,0.2606964111328125,0.5466461181640625,-0.4879608154296875,-0.3992381989955902,-0.2705388069152832,-0.3099746406078338,90.07058715820312,-75.58454895019531,217.5532073974609
1700075591,0.74127197265625,0.4823455810546875,0.2463226318359375,-0.3574571907520294,0.0416180156171321,-0.9966129064559937,89.5848388671875,-75.7333984375,217.25064086914065
1700075591,1.8111572265625,-0.0431060791015625,-0.23516845703125,-0.0197401493787765,0.3451001346111297,-0.891075611114502,89.51268005371094,-75.65853881835938,217.5607147216797
1700075591,2.1630096435546875,0.069122314453125,-0.8625030517578125,0.5765578746795654,-0.1602900773286819,0.1736559420824051,89.69682312011719,-75.60003662109375,217.02371215820312
1700075591,1.837615966796875,0.55029296875,-0.816741943359375,0.4389720261096954,-0.7873028516769409,0.7471626400947571,89.49789428710938,-75.35148620605469,217.3317413330078
1700075591,1.64935302734375,0.3053436279296875,-0.2996063232421875,-0.8946516513824463,-0.6407901048660278,0.8259215950965881,89.49874877929688,-75.93812561035156,216.888916015625
1700075591,1.4447479248046875,0.551361083984375,0.074188232421875,-1.0900728702545166,-0.2192380726337433,0.3733040690422058,89.58491516113281,-75.74496459960938,217.103515625
1700075592,1.091644287109375,0.5826568603515625,-0.0207977294921875,-0.6090095639228821,-0.1013428643345832,0.0470641814172267,89.54908752441406,-75.75765991210938,216.99069213867188
1700075592,0.8449249267578125,0.25445556640625,-0.474578857421875,-0.2249691933393478,-0.1506073474884033,0.0716062784194946,89.63665771484375,-75.71080017089844,217.36276245117188
1700075592,0.8522186279296875,0.154296875,-0.585601806640625,-0.0912305787205696,-0.1342648565769195,0.1868993192911148,90.00773620605469,-75.94720458984375,217.88818359375
1700075592,0.774658203125,0.1403045654296875,-0.425048828125,-0.1808283776044845,-0.0437272414565086,0.1398119628429412,90.17649841308594,-75.98419189453125,217.3946685791016
1700075592,0.714691162109375,0.235992431640625,-0.3237762451171875,-0.2796137928962707,0.0096185384318232,-0.0672474801540374,90.5817413330078,-76.3828125,218.0418701171875
1700075592,0.927825927734375,0.3546600341796875,-0.340179443359375,-0.2285386323928833,-0.0083905551582574,-0.2385009825229644,90.83303833007812,-76.25131225585938,217.9086303710937
1700075592,1.1315155029296875,0.395263671875,-0.409759521484375,-0.0915360450744628,-0.0606700032949447,-0.3601025342941284,90.68255615234376,-76.59686279296875,218.7533569335937
1700075592,1.1685791015625,0.32525634765625,-0.4663543701171875,0.0093365097418427,-0.1103483438491821,-0.4133012890815735,91.133544921875,-76.69113159179688,218.7471923828125
1700075592,1.059417724609375,0.207672119140625,-0.486968994140625,0.0459914617240428,-0.1505295932292938,-0.3841846883296966,91.10562133789062,-76.86018371582031,219.05284118652344
1700075592,0.93450927734375,0.16229248046875,-0.4941864013671875,0.0392051935195922,-0.1980164051055908,-0.3651406764984131,91.5296630859375,-76.67549133300781,219.1443328857422
1700075592,0.9066619873046876,0.162109375,-0.455902099609375,0.0314122512936592,-0.2415335327386856,-0.3774061501026153,92.10032653808594,-77.04994201660156,218.90631103515625
1700075592,0.902099609375,0.189697265625,-0.4358978271484375,0.0433517359197139,-0.291061133146286,-0.4089310467243194,91.74453735351562,-77.21937561035156,218.83892822265625
1700075592,0.91058349609375,0.203094482421875,-0.4596710205078125,0.0778428688645362,-0.3722337484359741,-0.4528673589229584,92.02386474609376,-77.44509887695312,219.55972290039065
1700075592,0.936126708984375,0.1887664794921875,-0.484893798828125,0.0994352474808693,-0.461377739906311,-0.4660792946815491,92.33828735351562,-76.9932861328125,219.435791015625
1700075592,0.9665679931640624,0.173065185546875,-0.4818572998046875,0.0871298387646675,-0.5305442810058594,-0.4612951874732971,92.3203125,-77.49014282226562,219.6319274902344
1700075592,0.992584228515625,0.1634521484375,-0.4684295654296875,0.0945502072572708,-0.57375568151474,-0.4411941766738891,92.6243896484375,-77.66139221191406,219.9391326904297
1700075592,1.00494384765625,0.167510986328125,-0.438201904296875,0.123395174741745,-0.6048589944839478,-0.4284805059432983,92.70945739746094,-77.56683349609375,219.8658599853516
1700075592,1.0164337158203125,0.1822967529296875,-0.3964691162109375,0.1389882415533065,-0.6027867794036865,-0.4452224671840668,92.75352478027344,-77.9423828125,220.11553955078125
1700075592,1.0337066650390625,0.1863250732421875,-0.35321044921875,0.1469561606645584,-0.56717848777771,-0.4716697931289673,93.06060791015624,-78.24012756347656,220.43331909179688
1700075592,1.02056884765625,0.191497802734375,-0.3292999267578125,0.1347290575504303,-0.5233327150344849,-0.4905060529708862,93.11309814453124,-77.794189453125,220.45278930664065
1700075592,0.97894287109375,0.198974609375,-0.3272247314453125,0.1113606095314025,-0.4931769371032715,-0.5039774179458618,93.67277526855467,-78.08999633789062,220.8733825683593
1700075592,0.9324798583984376,0.2052154541015625,-0.355560302734375,0.0881727337837219,-0.4893028438091278,-0.5416856408119202,93.67645263671876,-77.79246520996094,221.1539459228516
1700075592,0.898773193359375,0.2130279541015625,-0.3647308349609375,0.0783888176083564,-0.4985685050487518,-0.5889367461204529,94.0314483642578,-78.00323486328125,221.05702209472656
1700075592,0.8751068115234375,0.215789794921875,-0.3598785400390625,0.0884699448943138,-0.489137202501297,-0.6659684181213379,93.99281311035156,-77.83816528320312,221.85841369628903
1700075592,0.883056640625,0.1878814697265625,-0.357696533203125,0.1546545624732971,-0.4783223569393158,-0.7282453775405884,94.0417938232422,-78.38461303710938,221.6777801513672
1700075592,0.8843841552734375,0.1514739990234375,-0.354736328125,0.2514229118824005,-0.4777476489543915,-0.7363496422767639,94.0771484375,-77.84619140625,221.9177398681641
1700075592,0.86688232421875,0.13848876953125,-0.3468780517578125,0.3522187769412994,-0.4678002297878265,-0.7275683879852295,94.073974609375,-78.22184753417969,221.5772705078125
1700075592,0.886474609375,0.116058349609375,-0.322021484375,0.4189935326576233,-0.442357987165451,-0.703913688659668,94.3984832763672,-78.57894897460938,221.800048828125
1700075592,0.9045867919921876,0.089263916015625,-0.314117431640625,0.3766777813434601,-0.4176529049873352,-0.6415318250656128,94.316650390625,-78.37957763671875,221.57205200195312
1700075592,0.9092864990234376,0.0869293212890625,-0.322357177734375,0.3408630490303039,-0.4151471257209778,-0.6046547293663025,94.4538116455078,-78.40513610839844,222.18963623046875
1700075592,0.9199371337890624,0.0621795654296875,-0.32513427734375,0.3536837697029114,-0.4002387523651123,-0.5835183262825012,94.81361389160156,-78.01809692382812,222.37286376953125
1700075592,0.9012451171875,0.057861328125,-0.319976806640625,0.351432591676712,-0.3821345865726471,-0.5521841049194336,94.55345153808594,-78.17654418945312,222.57899475097656
1700075592,0.890228271484375,0.070037841796875,-0.294342041015625,0.3317899107933044,-0.3674733638763428,-0.5398973226547241,94.85952758789062,-77.80972290039062,222.32090759277344
1700075592,0.90069580078125,0.052520751953125,-0.293365478515625,0.274213433265686,-0.3545666038990021,-0.4958395659923553,94.64373779296876,-77.70892333984375,222.676986694336
1700075592,0.9013824462890624,0.0225677490234375,-0.3194732666015625,0.2652535140514374,-0.3518501818180084,-0.4551259577274322,94.97195434570312,-77.22573852539062,222.1690368652344
1700075592,0.9112091064453124,-0.0217437744140625,-0.32952880859375,0.3035702705383301,-0.3289012014865875,-0.4390564560890198,94.93098449707033,-77.00022888183594,222.343490600586
1700075592,0.9301605224609376,-0.070465087890625,-0.297088623046875,0.3556750118732452,-0.3028232455253601,-0.387520283460617,94.99250793457033,-76.38311767578125,222.25213623046875
1700075592,0.9051055908203124,-0.04705810546875,-0.2244415283203125,0.2382615655660629,-0.2820521891117096,-0.2752411663532257,95.27096557617188,-76.14466857910156,222.7432556152344
1700075592,0.86773681640625,0.00738525390625,-0.226226806640625,0.0553316995501518,-0.2467599809169769,-0.1621494889259338,95.38735961914062,-76.08633422851562,222.625244140625
1700075592,0.85430908203125,-0.0230255126953125,-0.302215576171875,0.0110896686092019,-0.2459935247898101,-0.0779552534222602,95.49029541015624,-75.71221923828125,222.60772705078125
1700075592,0.886962890625,-0.096221923828125,-0.3170318603515625,0.164115697145462,-0.2337805330753326,-0.0241846982389688,95.52011108398438,-74.77618408203125,222.5934600830078
1700075592,0.9432830810546876,-0.160552978515625,-0.2443389892578125,0.257030725479126,-0.1963362246751785,0.0908891633152961,95.8815460205078,-74.59291076660156,222.0399475097656
1700075592,0.975341796875,-0.0977020263671875,-0.23297119140625,0.2586113214492798,-0.1669493019580841,0.1783124804496765,96.38357543945312,-74.00471496582031,222.35401916503903
1700075592,1.0190277099609375,-0.0212860107421875,-0.204132080078125,0.180663526058197,-0.1025641933083534,0.2479605376720428,96.39271545410156,-73.54505920410156,221.9760589599609
1700075592,1.07098388671875,-0.0045928955078125,-0.1492767333984375,0.0778300836682319,-0.0489824563264846,0.3330080509185791,96.96809387207033,-73.08328247070312,222.8977508544922
1700075592,1.10003662109375,-0.040252685546875,-0.1346435546875,0.0603221952915191,-0.0143416551873087,0.4449596107006073,97.1391143798828,-72.62588500976562,223.024642944336
1700075592,1.123260498046875,-0.073028564453125,-0.218170166015625,0.122873455286026,-0.0465701632201671,0.5125522613525391,97.7396240234375,-72.00128173828125,223.03208923339844
1700075592,1.178466796875,-0.0690460205078125,-0.2686920166015625,0.2557558715343475,-0.0782892107963562,0.5383502840995789,98.30335998535156,-71.46566772460938,222.8817749023437
1700075592,1.2379302978515625,-0.03851318359375,-0.2461700439453125,0.3711839318275451,-0.1107134670019149,0.5541446805000305,98.829833984375,-71.21482849121094,222.68511962890625
1700075592,1.2606201171875,0.0219268798828125,-0.2052764892578125,0.4917220771312713,-0.1509239971637725,0.5630127787590027,98.89735412597656,-70.66519165039062,222.0628204345703
1700075592,1.2830810546875,0.0800323486328125,-0.20977783203125,0.6053801774978638,-0.2326502948999405,0.5402352809906006,99.09507751464844,-69.86729431152344,221.968978881836
1700075592,1.3285064697265625,0.1107177734375,-0.21636962890625,0.6423786878585815,-0.2981254458427429,0.5008002519607544,99.23817443847656,-69.34416198730469,221.5579528808593
1700075592,1.4120941162109375,0.09625244140625,-0.129974365234375,0.6436306238174438,-0.2856218814849853,0.5218416452407837,98.98675537109376,-68.5987548828125,220.7056121826172
1700075592,1.41668701171875,0.030975341796875,-0.0107269287109375,0.5904046893119812,-0.2197651118040084,0.6146000623703003,98.81291198730467,-68.14433288574219,219.6774444580078
1700075592,1.35302734375,-0.0954132080078125,0.0183563232421875,0.3935118615627289,-0.2000598609447479,0.7839486002922058,98.53303527832033,-67.26162719726562,219.1602935791016
1700075592,1.3293304443359375,-0.1924896240234375,-0.05865478515625,0.2799203395843506,-0.2290472984313964,0.9020472764968872,98.38327026367188,-66.04985046386719,218.7469024658203
1700075592,1.3804931640625,-0.3186492919921875,-0.0675506591796875,0.3010029792785644,-0.2635437548160553,1.037739634513855,98.45123291015624,-63.92131042480469,218.75994873046875
1700075592,1.4402313232421875,-0.3980865478515625,-0.007598876953125,0.3672347366809845,-0.3010618388652801,1.172170877456665,98.068359375,-62.03303527832031,218.39547729492188
1700075592,1.4763641357421875,-0.4292755126953125,0.0583648681640625,0.304581731557846,-0.3060201108455658,1.3377861976623535,97.57066345214844,-60.08293151855469,218.27407836914065
1700075592,1.5053558349609375,-0.4166259765625,0.073974609375,0.3383157253265381,-0.2894792258739471,1.3893834352493286,97.20347595214844,-57.4205322265625,216.8869171142578
1700075592,1.5039825439453125,-0.5142059326171875,0.135833740234375,0.4690348505973816,-0.2686351835727691,1.3693630695343018,96.2447509765625,-55.78411865234375,217.15447998046875
1700075592,1.4955596923828125,-0.6237945556640625,0.16717529296875,0.4380966424942016,-0.1163252741098404,1.3973605632781982,95.89268493652344,-53.22360229492188,216.7158660888672
1700075592,1.4337921142578125,-0.64215087890625,0.0161895751953125,0.1461787819862365,0.4211280643939972,1.664103388786316,95.6766357421875,-51.37345886230469,216.90956115722656
1700075592,1.30413818359375,-0.4694061279296875,-0.4900970458984375,-0.504115641117096,0.8809523582458496,2.2318310737609863,95.33563232421876,-49.90950012207031,216.657455444336
1700075592,1.14190673828125,-0.107086181640625,-1.04400634765625,-1.1945923566818235,1.0076464414596558,2.715787887573242,94.8778839111328,-48.65884399414063,216.8520355224609
1700075592,1.178741455078125,0.0981903076171875,-1.3780059814453125,-1.3499728441238403,1.0143373012542725,2.9732820987701416,94.83332824707033,-47.49732971191406,216.72076416015625
1700075592,1.4115142822265625,0.23834228515625,-1.4639129638671875,-1.0233862400054932,0.8802279829978943,3.28507924079895,94.71849060058594,-46.28492736816406,216.49734497070312
1700075592,1.4655914306640625,0.514923095703125,-1.180328369140625,-0.4684833288192749,0.6306264400482178,3.647659301757813,95.0144500732422,-45.13569641113281,216.37586975097656
1700075592,1.486968994140625,0.7729644775390625,-0.700927734375,-0.0522560141980648,0.6293236017227173,3.770700216293335,94.72647094726562,-44.26225280761719,216.3349456787109
1700075592,1.5597381591796875,0.9209442138671876,-0.4249267578125,0.3451656401157379,1.0613317489624023,3.5831661224365234,94.90756225585938,-43.8770751953125,215.9715118408203
1700075592,1.732177734375,1.168701171875,-0.3480377197265625,0.7397582530975342,1.3132073879241943,3.2460808753967285,95.1417999267578,-43.06785583496094,216.00930786132807
1700075592,1.907562255859375,1.3734283447265625,-0.252716064453125,1.2080607414245603,1.350985407829285,2.906242609024048,95.31510925292967,-42.47550964355469,216.25079345703125
1700075592,1.883697509765625,1.180999755859375,-0.41290283203125,1.6128731966018677,1.230610489845276,2.702603578567505,95.72586059570312,-42.48936462402344,216.4523468017578
1700075592,1.7335357666015625,0.8412017822265625,-0.568878173828125,1.6437528133392334,1.0665537118911743,2.597107648849488,96.61572265625,-42.26841735839844,216.36231994628903
1700075592,1.6226959228515625,0.6373291015625,-0.6648712158203125,1.2236852645874023,0.8968666195869446,2.534115791320801,96.73112487792967,-41.82331848144531,216.6298065185547
1700075592,1.5260772705078125,0.4687652587890625,-0.6835479736328125,0.5897828340530396,0.7093777060508728,2.3881523609161377,97.64942932128906,-42.335693359375,216.78526306152344
1700075592,1.4485931396484375,0.2609405517578125,-0.593902587890625,0.0519172586500644,0.5852906107902527,2.152317523956299,98.72024536132812,-42.80802917480469,216.3731842041016
1700075592,1.34716796875,0.0614166259765625,-0.4426422119140625,-0.3067910969257355,0.5625571012496948,1.903916478157044,99.48963928222656,-43.4820556640625,216.28843688964844
1700075592,1.1705780029296875,-0.0857696533203125,-0.284698486328125,-0.5435988306999207,0.501503586769104,1.7234382629394531,100.8947296142578,-44.34361267089844,216.0638885498047
1700075592,0.9309844970703124,-0.1764373779296875,-0.15606689453125,-0.838252067565918,0.4232434034347534,1.510465383529663,102.0967254638672,-45.52287292480469,216.47662353515625
1700075592,0.7097320556640625,-0.2718505859375,-0.1490478515625,-1.1722230911254885,0.3633598387241363,1.203022837638855,103.148681640625,-46.82354736328125,216.4339141845703
1700075592,0.5542144775390625,-0.3698883056640625,-0.223907470703125,-1.4421638250350952,0.3236395716667175,0.9628264904022216,104.431640625,-48.445556640625,216.46902465820312
1700075592,0.398162841796875,-0.3815460205078125,-0.24835205078125,-1.6193947792053225,0.2395215034484863,0.7753844261169434,105.62289428710938,-50.46977233886719,216.404037475586
1700075592,0.2713165283203125,-0.338043212890625,-0.2221221923828125,-1.713282346725464,0.1527218967676162,0.4938608407974243,106.8798370361328,-52.51319885253906,216.1536865234375
1700075592,0.255615234375,-0.3392333984375,-0.1709442138671875,-1.7527695894241333,0.0500589050352573,0.1262380927801132,107.73443603515624,-54.65216064453125,216.1509704589844
1700075592,0.2751312255859375,-0.3314666748046875,-0.124755859375,-1.7078734636306765,-0.0963521003723144,-0.1944033056497573,108.99211120605467,-57.162841796875,215.3275909423828
1700075592,0.251922607421875,-0.231292724609375,-0.1175079345703125,-1.643634796142578,-0.261810839176178,-0.5294766426086426,110.03558349609376,-59.25048828125,215.8915557861328
1700075592,0.2275848388671875,-0.1678009033203125,-0.12176513671875,-1.597086787223816,-0.3913848102092743,-0.8839020729064941,110.92570495605467,-60.58978271484375,216.4452667236328
1700075592,0.172088623046875,-0.1680450439453125,-0.112457275390625,-1.5803672075271606,-0.4947881698608398,-1.2605524063110352,111.6401824951172,-62.05158996582031,216.6535797119141
1700075592,0.11322021484375,-0.232666015625,-0.1492919921875,-1.557852864265442,-0.5796428918838501,-1.540299415588379,111.94078063964844,-63.14947509765625,216.69186401367188
1700075592,0.049041748046875,-0.2681732177734375,-0.1537017822265625,-1.4864788055419922,-0.6544079184532166,-1.7511786222457886,112.65290832519533,-64.0228271484375,217.41531372070312
1700075592,-0.039886474609375,-0.2840728759765625,-0.1554412841796875,-1.5227696895599363,-0.7699915170669556,-2.0245423316955566,112.57283020019533,-64.37071228027344,217.8763122558593
1700075592,-0.0482025146484375,-0.240386962890625,-0.188873291015625,-1.6698877811431885,-0.8486700654029846,-2.3338468074798584,113.03514099121094,-64.60299682617188,217.8173370361328
1700075592,-0.0054779052734375,-0.17535400390625,-0.247589111328125,-1.797471284866333,-0.935398280620575,-2.580994367599488,113.04348754882812,-64.68209838867188,218.1174468994141
1700075592,-0.0053558349609375,-0.12091064453125,-0.2071075439453125,-1.777157425880432,-1.0490615367889404,-2.723233938217163,112.82106018066406,-64.19404602050781,217.7388153076172
1700075592,-0.02337646484375,-0.0098876953125,-0.186981201171875,-1.5511094331741333,-1.069657802581787,-2.7923743724823,112.37112426757812,-64.56890869140625,217.90945434570312
1700075592,0.001739501953125,0.099639892578125,-0.122955322265625,-1.3188905715942385,-1.1124542951583862,-2.8528494834899902,112.21694946289062,-64.40911865234375,218.2108612060547
1700075592,0.015960693359375,0.294281005859375,-0.1866302490234375,-0.8626210689544678,-1.1128625869750977,-2.938103437423706,111.25221252441406,-64.37313842773438,217.6658630371093
1700075592,0.02716064453125,0.506011962890625,-0.314361572265625,-0.5048378705978394,-1.0564653873443604,-2.9807238578796387,111.36286926269533,-64.44891357421875,217.43951416015625
1700075592,0.058868408203125,0.683929443359375,-0.39483642578125,-0.1206198930740356,-0.9596535563468932,-2.893527269363404,111.11611938476562,-65.06675720214844,217.88951110839844
1700075593,0.0965728759765625,0.8593597412109375,-0.520111083984375,0.2213733941316604,-0.8270885944366455,-2.6755621433258057,111.18670654296876,-65.34060668945312,217.78257751464844
1700075593,0.1332550048828125,1.0229949951171875,-0.7140960693359375,0.3484288156032562,-0.6634701490402222,-2.389484405517578,111.02842712402344,-65.37153625488281,218.0074157714844
1700075593,0.1908721923828125,1.176239013671875,-0.878753662109375,0.3461456894874573,-0.5151005983352661,-1.9779577255249023,110.92277526855467,-65.37187194824219,218.32095336914065
1700075593,0.251617431640625,1.338409423828125,-0.99139404296875,0.2965587079524994,-0.4259031116962433,-1.4458264112472534,110.87998962402344,-65.21168518066406,218.48828125
1700075593,0.2600555419921875,1.5778045654296875,-1.0558929443359375,0.2089910358190536,-0.3214803040027618,-1.0151556730270386,111.07737731933594,-65.01033020019531,218.3516082763672
1700075593,0.2611846923828125,1.75274658203125,-0.9830322265625,0.2755551338195801,-0.1532936841249466,-0.6947862505912781,111.08163452148438,-64.27680969238281,218.908203125
1700075593,0.21673583984375,1.853271484375,-0.8057861328125,0.5760305523872375,0.0399948209524154,-0.5861366987228394,111.46536254882812,-64.47396850585938,218.71871948242188
1700075593,0.1924896240234375,1.769744873046875,-0.6763916015625,0.4134738743305206,0.5883141160011292,-0.5758971571922302,111.25527954101562,-64.549560546875,219.1787109375
1700075593,0.1946868896484375,1.528594970703125,-0.97869873046875,0.8307927846908569,0.7558732628822327,-0.323602557182312,111.22029113769533,-64.65655517578125,218.8488922119141
1700075593,0.150543212890625,1.3717498779296875,-1.2845001220703125,1.0920627117156982,-0.0082115912809968,-0.1662201285362243,111.55746459960938,-64.61622619628906,219.533432006836
1700075593,0.989288330078125,1.2329864501953125,-0.3763427734375,-0.0442388355731964,-0.3679758906364441,-0.762347936630249,111.09860229492188,-64.5159912109375,219.72198486328125
1700075593,2.093536376953125,0.39801025390625,0.039398193359375,-0.0957640781998634,-0.4001223742961883,-0.7336281538009644,111.22320556640624,-64.58413696289062,219.722412109375
1700075593,2.009246826171875,0.0691680908203125,0.451202392578125,0.1804400831460952,-0.1248199641704559,0.0396709814667701,111.20535278320312,-64.68827819824219,219.2689666748047
1700075593,1.449554443359375,0.0755615234375,0.012542724609375,0.0327803157269954,-0.1458277702331543,0.8830770254135132,111.17445373535156,-65.20890808105469,219.57208251953125
1700075593,1.1203460693359375,0.209014892578125,-0.6366119384765625,-0.1005881279706955,-0.4487586319446563,1.0086387395858765,111.43170166015624,-65.36669921875,219.61163330078125
1700075593,1.0781707763671875,0.384490966796875,-0.6307525634765625,-0.5431567430496216,-0.5240211486816406,0.6449965834617615,111.61146545410156,-65.55752563476562,220.04237365722656
1700075593,1.223907470703125,0.5269317626953125,-0.3332366943359375,-0.5520296096801758,-0.230538934469223,0.3278657495975494,111.44377136230467,-65.71516418457031,220.26364135742188
1700075593,0.7377777099609375,0.626220703125,-0.344818115234375,-0.1107355654239654,-0.2613700926303863,0.0598231181502342,111.7252960205078,-65.8038330078125,220.4159698486328
1700075593,0.66729736328125,0.5829620361328125,-0.3355255126953125,-0.1328683048486709,-0.2869793176651001,-0.0531271323561668,111.82926940917967,-65.81425476074219,220.6335601806641
1700075593,0.899261474609375,0.5915679931640625,-0.305267333984375,-0.2221347987651825,-0.2034465968608856,-0.1862819939851761,112.00944519042967,-66.13247680664062,220.8094940185547
1700075593,0.950653076171875,0.4395904541015625,-0.2869720458984375,-0.2215819209814071,-0.1638579070568084,-0.2738629579544067,112.2056121826172,-66.33746337890625,221.0646514892578
