timestamp,acc-x,acc-y,acc-z,gyr-x,gyr-y,gyr-z,mag-x,mag-y,mag-z
1700075345,1.268524169921875,0.1921234130859375,-0.376922607421875,0.2966870665550232,0.3826621472835541,3.316307783126831,92.31124877929688,-48.941741943359375,234.2827911376953
1700075345,1.1728363037109375,0.119842529296875,-0.415496826171875,0.1828161478042602,0.2439314424991607,3.1496896743774414,92.62908935546876,-48.24754333496094,234.457260131836
1700075345,1.042327880859375,0.056610107421875,-0.42413330078125,-0.0338458493351936,0.0949699208140373,3.002485513687134,92.1812744140625,-48.22705078125,234.20518493652344
1700075345,0.950408935546875,-0.0221710205078125,-0.3977813720703125,-0.3174037933349609,-0.0427855476737022,2.8582451343536377,92.14007568359376,-47.75044250488281,234.6056671142578
1700075345,0.8670806884765625,-0.10986328125,-0.384429931640625,-0.6359633803367615,-0.2104222178459167,2.705360651016236,91.9675750732422,-47.16862487792969,234.5381622314453
1700075345,0.781524658203125,-0.1895904541015625,-0.364013671875,-1.019134759902954,-0.3969465494155884,2.477927923202514,92.03744506835938,-46.82569885253906,235.3876495361328
1700075345,0.7071533203125,-0.2898101806640625,-0.3211517333984375,-1.370457887649536,-0.6226425170898438,2.1382596492767334,92.1835479736328,-46.35627746582031,235.23580932617188
1700075345,0.636871337890625,-0.4127197265625,-0.2199859619140625,-1.6268348693847656,-0.8858349919319153,1.7039532661437988,91.84933471679688,-45.864837646484375,235.53253173828125
1700075345,0.55364990234375,-0.5386810302734375,-0.104339599609375,-1.823686122894287,-1.177106261253357,1.2499607801437378,91.60905456542967,-45.35929870605469,235.4293975830078
1700075345,0.440673828125,-0.6275482177734375,-0.051666259765625,-1.940400242805481,-1.3896763324737549,0.8500815629959106,91.84529113769533,-44.88156127929688,236.34413146972656
1700075345,0.3144683837890625,-0.658721923828125,-0.0864410400390625,-2.026074171066284,-1.5107537508010864,0.5407343506813049,91.97654724121094,-44.018096923828125,236.805892944336
1700075345,0.2083740234375,-0.628509521484375,-0.2032012939453125,-2.167809009552002,-1.6107144355773926,0.2645294070243835,91.9523468017578,-43.52171325683594,237.05010986328125
1700075345,0.1713104248046875,-0.5618133544921875,-0.3277435302734375,-2.3466782569885254,-1.7285223007202148,-0.0785789638757705,91.82698059082033,-42.87155151367188,237.545166015625
1700075345,0.2320098876953125,-0.4795379638671875,-0.365692138671875,-2.530835151672364,-1.906126618385315,-0.4221360683441162,91.2415771484375,-42.55661010742188,237.4363708496093
1700075345,0.3106231689453125,-0.4239044189453125,-0.3327484130859375,-2.6409354209899902,-2.1110999584198,-0.7683001160621643,90.7721710205078,-41.97540283203125,237.4879913330078
1700075345,0.3781280517578125,-0.3961639404296875,-0.309844970703125,-2.6838691234588623,-2.3082525730133057,-1.099545121192932,90.81468200683594,-41.66871643066406,237.58706665039065
1700075345,0.3990631103515625,-0.36798095703125,-0.3033599853515625,-2.7236735820770264,-2.5045413970947266,-1.428229808807373,89.81655883789062,-41.28947448730469,235.96926879882807
1700075345,0.404266357421875,-0.3301544189453125,-0.3225555419921875,-2.7415170669555664,-2.703113317489624,-1.732611894607544,88.76544189453125,-40.6416015625,234.75848388671875
1700075345,0.410247802734375,-0.2811126708984375,-0.346221923828125,-2.71405291557312,-2.8693971633911133,-2.027559518814087,87.70033264160156,-40.27204895019531,233.54444885253903
1700075345,0.4229278564453125,-0.244964599609375,-0.3737030029296875,-2.680544376373291,-3.0080759525299072,-2.3141424655914307,86.78216552734375,-39.65373229980469,233.5473175048828
1700075345,0.4383697509765625,-0.2021484375,-0.4110260009765625,-2.596925973892212,-3.106843948364258,-2.5847268104553223,85.14640808105469,-38.80043029785156,232.35772705078125
1700075345,0.478363037109375,-0.15386962890625,-0.4380340576171875,-2.4407835006713867,-3.1822967529296875,-2.842214107513428,84.24668884277344,-38.01045227050781,231.8013916015625
1700075345,0.5301361083984375,-0.106781005859375,-0.4358673095703125,-2.313725233078003,-3.2452991008758545,-3.084420680999756,83.05342102050781,-37.1612548828125,231.6811065673828
1700075345,0.5867462158203125,-0.0502166748046875,-0.4465789794921875,-2.190955638885498,-3.304889440536499,-3.325048923492432,81.67752075195312,-36.63560485839844,230.9349365234375
1700075345,0.6698455810546875,-0.001129150390625,-0.45965576171875,-1.9974714517593384,-3.3510212898254395,-3.5356411933898926,80.379150390625,-35.57466125488281,231.13946533203125
1700075345,0.7444000244140625,0.032379150390625,-0.4625091552734375,-1.763758897781372,-3.405433177947998,-3.769111156463623,79.51351928710938,-34.07676696777344,231.1617889404297
1700075345,0.8406982421875,0.0179901123046875,-0.425994873046875,-1.4646568298339844,-3.402268648147583,-4.005234718322754,78.35356140136719,-33.29437255859375,231.73971557617188
1700075345,0.934844970703125,-0.002197265625,-0.3865814208984375,-1.1983742713928225,-3.298541307449341,-4.195683479309082,76.90106201171875,-31.85980224609375,231.7221221923828
1700075345,0.9668731689453124,0.04876708984375,-0.4430694580078125,-1.021022915840149,-3.2076849937438965,-4.398608207702637,75.75651550292969,-30.84712219238281,231.659408569336
1700075345,1.0163726806640625,0.1220550537109375,-0.5379180908203125,-0.9966286420822144,-3.12681531906128,-4.64990234375,75.26397705078125,-30.28160095214844,231.85696411132807
1700075345,1.1515655517578125,0.188323974609375,-0.636016845703125,-1.115919828414917,-3.0278005599975586,-4.887503147125244,74.42848205566406,-28.94789123535156,232.1326599121093
1700075345,1.3133697509765625,0.2738800048828125,-0.71026611328125,-1.3460345268249512,-2.922758817672729,-5.069162845611572,73.68467712402344,-28.545913696289062,231.37176513671875
1700075345,1.477020263671875,0.352813720703125,-0.761383056640625,-1.6128082275390625,-2.7959296703338623,-5.203130722045898,72.77934265136719,-27.701416015625,231.28648376464844
1700075345,1.6446990966796875,0.391387939453125,-0.813995361328125,-1.915562987327576,-2.6930606365203857,-5.303891181945801,71.9898681640625,-27.49620056152344,231.59210205078125
1700075345,1.815704345703125,0.388580322265625,-0.849151611328125,-2.2163233757019043,-2.642179250717163,-5.30156135559082,71.7528076171875,-26.730697631835938,230.7499237060547
1700075345,1.949432373046875,0.3670501708984375,-0.841033935546875,-2.6071887016296387,-2.452910900115967,-5.079351425170898,71.03842163085938,-26.589019775390625,230.6368408203125
1700075345,1.9642791748046875,0.36407470703125,-0.916290283203125,-2.988187313079834,-2.208893060684204,-4.698336124420166,71.16740417480469,-25.749038696289062,229.76251220703125
1700075345,1.9482269287109373,0.4019622802734375,-1.01947021484375,-3.271224021911621,-2.083724975585937,-4.256794452667236,71.31280517578125,-25.516586303710938,229.60162353515625
1700075345,1.885986328125,0.515838623046875,-1.0474853515625,-3.422600269317627,-2.095219373703003,-3.856893301010132,71.44635009765625,-25.493896484375,228.9779510498047
1700075345,1.8001861572265625,0.65191650390625,-0.956573486328125,-3.451801300048828,-2.0710666179656982,-3.482231378555298,71.7506103515625,-25.290802001953125,228.9016571044922
1700075345,1.695220947265625,0.807769775390625,-0.7330780029296875,-3.331268310546875,-1.8782776594161987,-3.1569952964782715,72.19053649902344,-24.747238159179688,228.3788299560547
1700075345,1.484283447265625,0.9923858642578124,-0.5347442626953125,-2.996196985244751,-1.6074411869049072,-2.906851053237915,72.61070251464844,-25.1209716796875,227.552001953125
1700075345,1.230926513671875,1.110137939453125,-0.588531494140625,-2.517538547515869,-1.3204330205917358,-2.6671252250671387,73.62997436523438,-24.570068359375,226.17477416992188
1700075345,1.0316314697265625,1.1139678955078125,-0.788116455078125,-2.089096784591675,-0.9727073311805724,-2.31504774093628,74.48471069335938,-24.54731750488281,226.1226501464844
1700075345,0.8633880615234375,1.0766448974609375,-0.872283935546875,-1.7277851104736328,-0.5627539157867432,-1.7603355646133425,75.55409240722656,-24.56626892089844,225.028076171875
1700075345,0.70849609375,1.0622711181640625,-0.8648681640625,-1.457752346992493,-0.1449465304613113,-1.0572850704193115,76.60397338867188,-24.80928039550781,224.90586853027344
1700075345,0.5648345947265625,1.0962982177734375,-0.859710693359375,-1.1950149536132812,0.2453591525554657,-0.250298261642456,77.85208129882812,-24.642547607421875,223.9028167724609
1700075345,0.4330291748046875,1.201507568359375,-0.8579254150390625,-1.0141026973724363,0.6110026240348816,0.5653517842292786,79.21078491210938,-24.85455322265625,222.9892578125
1700075345,0.3734130859375,1.29248046875,-0.8574371337890625,-0.9677181839942932,0.8988775610923767,1.2004318237304688,80.96405029296875,-25.19810485839844,221.57872009277344
1700075345,0.49151611328125,1.2139434814453125,-0.8582000732421875,-0.8213587999343872,1.064136624336243,1.6000237464904783,82.74467468261719,-25.569992065429688,220.928955078125
1700075345,0.769622802734375,0.953155517578125,-0.7099761962890625,-0.9083722829818726,1.1476866006851196,2.005772352218628,84.51254272460938,-25.597702026367188,219.9085693359375
1700075345,0.85162353515625,0.8514556884765625,-0.603851318359375,-0.9530755877494812,0.9815080165863036,1.772615671157837,86.37055969238281,-25.756500244140625,219.01759338378903
1700075345,1.081146240234375,0.386322021484375,-0.2647705078125,-0.4827988743782043,0.3106039464473724,0.5626969337463379,88.51773071289062,-26.121734619140625,218.49647521972656
1700075345,1.7394256591796875,-0.8585357666015625,0.92694091796875,0.0780063867568969,0.4104876518249511,-1.1747448444366455,90.49665832519533,-26.702651977539062,217.1939849853516
1700075345,2.1243438720703125,-1.9429931640625,1.344818115234375,-0.3019441366195678,1.047770380973816,-0.6526904702186584,92.77964782714844,-26.795669555664062,216.2908477783203
1700075345,1.470428466796875,-1.2381439208984375,0.1818695068359375,-0.9496403336524964,1.6989247798919678,1.9900271892547607,95.11904907226562,-26.99346923828125,215.75582885742188
1700075345,1.085906982421875,0.06719970703125,-0.58441162109375,-0.5609184503555298,1.6079074144363403,3.4950296878814697,96.54942321777344,-27.059478759765625,215.507080078125
1700075345,1.504730224609375,0.014190673828125,-0.142181396484375,-0.0416001752018928,1.3608534336090088,2.9521756172180176,98.23638916015624,-26.71221923828125,214.25347900390625
1700075345,1.68341064453125,-0.489013671875,-0.063385009765625,-0.0365774519741535,0.9400889277458192,2.18253231048584,100.05345153808594,-26.709396362304688,213.2601928710937
1700075345,1.18939208984375,-0.072601318359375,-0.3513641357421875,-0.4013101458549499,0.8946167826652527,1.7149287462234497,101.0168914794922,-26.57421875,212.7135772705078
1700075345,0.8647308349609375,0.3864288330078125,-0.2776947021484375,-0.6298253536224365,1.1505903005599976,1.4416735172271729,102.46719360351562,-26.400650024414062,212.2335968017578
1700075345,0.7580413818359375,0.7606964111328125,0.04217529296875,-0.254519373178482,1.3336820602416992,1.2901955842971802,103.316650390625,-26.10728454589844,211.3268585205078
1700075345,0.84698486328125,0.945037841796875,0.0281219482421875,0.0969582349061966,1.2450426816940308,0.9446128606796264,103.8624267578125,-25.822189331054688,210.6415252685547
1700075345,1.1141357421875,0.7888946533203125,-0.2139129638671875,0.3065186440944671,1.0368077754974363,0.6048344969749451,104.22190856933594,-24.854751586914062,210.28839111328125
1700075345,1.3046417236328125,0.522918701171875,-0.3018951416015625,0.3126487135887146,0.8380659222602844,0.4030145704746246,104.3041534423828,-24.76817321777344,210.11474609375
1700075345,1.277923583984375,0.2659454345703125,-0.274078369140625,0.1679165661334991,0.6508432626724243,0.344105988740921,104.10148620605467,-24.15386962890625,209.563232421875
1700075346,1.1803436279296875,0.061737060546875,-0.1988983154296875,0.0918992981314659,0.5528549551963806,0.3854451477527618,103.3351593017578,-23.342361450195312,208.89735412597656
1700075346,1.0812225341796875,-0.08929443359375,-0.1192779541015625,0.0505771562457084,0.5064679980278015,0.4682423174381256,102.8005828857422,-22.778350830078125,208.91842651367188
1700075346,1.0231781005859375,-0.15924072265625,-0.0391998291015625,-0.1908506453037262,0.5138830542564392,0.5202450752258301,102.7172393798828,-22.55194091796875,209.1062469482422
1700075346,1.0125885009765625,-0.080596923828125,-0.0346527099609375,-0.4817914068698883,0.5052016377449036,0.4850172996520996,102.85432434082033,-22.792984008789062,208.9752655029297
1700075346,1.0467987060546875,0.0076446533203125,-0.0638580322265625,-0.5893093347549438,0.4652286767959595,0.4183141589164734,102.83071899414062,-22.369857788085938,209.02789306640625
1700075346,1.0645751953125,0.05181884765625,-0.072967529296875,-0.4976803660392761,0.4181442558765411,0.3591483235359192,102.69781494140624,-22.0040283203125,209.2469482421875
1700075346,1.0500335693359375,0.095062255859375,-0.0754547119140625,-0.3343886435031891,0.4021852612495422,0.2926680743694305,102.48521423339844,-21.46197509765625,209.0645751953125
1700075346,1.0351409912109375,0.1097564697265625,-0.096221923828125,-0.1913089752197265,0.3710957765579223,0.2319887578487396,102.52870178222656,-20.917938232421875,209.285385131836
1700075346,1.03192138671875,0.0797882080078125,-0.114013671875,-0.0167275816202163,0.3279539048671722,0.2023565620183944,102.47711181640624,-20.51380920410156,209.7225799560547
1700075346,1.0284576416015625,0.016998291015625,-0.122314453125,0.1668345183134079,0.291806012392044,0.2085199207067489,102.25372314453124,-19.4420166015625,209.66082763671875
1700075346,1.0095672607421875,-0.06561279296875,-0.1054840087890625,0.2920267879962921,0.2692309319972992,0.2521675229072571,101.86337280273438,-19.142501831054688,209.4317169189453
1700075346,0.97857666015625,-0.1373138427734375,-0.083648681640625,0.3244827389717102,0.2683020234107971,0.3045756220817566,101.97439575195312,-19.03233337402344,209.34646606445312
1700075346,0.9572601318359376,-0.17999267578125,-0.0945892333984375,0.2421516478061676,0.2694032490253448,0.339434266090393,102.17039489746094,-19.076385498046875,209.5074615478516
1700075346,0.966156005859375,-0.203887939453125,-0.1300506591796875,0.0959086865186691,0.2670652568340301,0.3981529772281647,102.35874938964844,-19.130538940429688,209.75816345214844
1700075346,0.97821044921875,-0.2032012939453125,-0.161956787109375,-0.106082759797573,0.257847249507904,0.4728911221027374,102.05734252929688,-19.21723937988281,209.4483337402344
1700075346,0.998321533203125,-0.18670654296875,-0.1264190673828125,-0.2779751718044281,0.273765504360199,0.5330327749252319,102.27587890625,-19.14122009277344,209.78065490722656
1700075346,0.9964141845703124,-0.1639862060546875,-0.116729736328125,-0.2937288284301758,0.268913209438324,0.599152147769928,102.3760223388672,-19.044265747070312,210.257080078125
1700075346,0.9704132080078124,-0.0777587890625,-0.1166229248046875,-0.1494792401790619,0.2503089010715484,0.6130791306495667,102.49688720703124,-19.01118469238281,209.96148681640625
1700075346,0.9748687744140624,0.02569580078125,-0.09417724609375,0.0131914354860782,0.2467996627092361,0.5718368887901306,102.60728454589844,-19.04429626464844,209.7157287597656
1700075346,0.99566650390625,0.093902587890625,-0.084686279296875,0.1051240190863609,0.250077486038208,0.5377079248428345,102.7310791015625,-19.079010009765625,210.6576995849609
1700075346,1.0116729736328125,0.0843048095703125,-0.0566558837890625,0.1365903317928314,0.2864456176757812,0.5468465685844421,103.06951904296876,-19.26815795898437,210.3345642089844
1700075346,0.9989013671875,-0.0160064697265625,-0.0562896728515625,0.1291326880455017,0.2900832295417785,0.594982922077179,103.55172729492188,-19.19442749023437,210.8961639404297
1700075346,0.9902496337890624,-0.1044158935546875,-0.1152496337890625,0.1186864376068115,0.2591021358966827,0.6359540820121765,103.83148193359376,-19.29847717285156,211.34120178222656
1700075346,1.01031494140625,-0.1249237060546875,-0.1678619384765625,0.0993907675147056,0.2384844720363617,0.6643548011779785,104.09890747070312,-19.51548767089844,211.5822906494141
1700075346,1.026885986328125,-0.0833892822265625,-0.1532440185546875,0.0880848541855812,0.2281511425971985,0.7098423838615417,104.56040954589844,-19.854537963867188,211.62413024902344
1700075346,0.99749755859375,0.039825439453125,-0.1397247314453125,0.0661087110638618,0.2163735777139663,0.7105071544647217,105.0625457763672,-19.89300537109375,212.0252990722656
1700075346,0.9824371337890624,0.1137847900390625,-0.1236724853515625,0.1086207553744316,0.2274693697690963,0.7187730669975281,105.5220947265625,-20.3099365234375,212.12515258789065
1700075346,0.9466552734375,0.114532470703125,-0.115234375,0.1352566182613372,0.2361771166324615,0.7481709122657776,105.7500457763672,-20.847930908203125,211.95314025878903
1700075346,0.9158477783203124,0.0572509765625,-0.08599853515625,0.1054521203041076,0.2717875838279724,0.7948191165924072,105.9018096923828,-21.057205200195312,212.95376586914065
1700075346,0.919952392578125,-0.0437469482421875,-0.099761962890625,0.0073396717198193,0.2941152453422546,0.8481044173240662,106.44833374023438,-21.563552856445312,212.8196258544922
1700075346,0.9410552978515624,-0.104248046875,-0.1701812744140625,-0.112193651497364,0.273613691329956,0.8851622939109802,106.49217224121094,-21.87568664550781,213.37388610839844
1700075346,0.9882965087890624,-0.0867462158203125,-0.2241058349609375,-0.1726633906364441,0.2176897078752517,0.9566053152084352,107.15357971191406,-22.1812744140625,213.3686981201172
1700075346,1.018310546875,-0.0331268310546875,-0.230743408203125,-0.1684332191944122,0.1679613143205642,0.9666444063186646,107.43104553222656,-22.074615478515625,214.2707061767578
1700075346,1.0272674560546875,0.0620269775390625,-0.2218475341796875,-0.1587789952754974,0.1376116573810577,0.9303612112998962,107.94227600097656,-22.88563537597656,213.7670440673828
1700075346,1.005859375,0.150787353515625,-0.1878814697265625,-0.1118916496634483,0.138340562582016,0.8962695598602295,108.40690612792967,-23.121566772460938,214.56578063964844
1700075346,0.9654083251953124,0.1950225830078125,-0.15533447265625,-0.0442915633320808,0.1369480043649673,0.8815332055091858,108.86833190917967,-23.60003662109375,214.43875122070312
1700075346,0.9561920166015624,0.20281982421875,-0.129364013671875,-0.0624780245125293,0.1415701806545257,0.888322651386261,109.12069702148438,-23.73394775390625,215.6165008544922
1700075346,0.9748992919921876,0.179962158203125,-0.093170166015625,-0.111574463546276,0.1587576866149902,0.9224899411201476,109.7740478515625,-24.315109252929688,215.712631225586
1700075346,0.9652252197265624,0.1403045654296875,-0.103363037109375,-0.1929177939891815,0.1636011749505996,0.958244264125824,109.91998291015624,-24.51771545410156,215.9961853027344
1700075346,0.95294189453125,0.0901947021484375,-0.1575164794921875,-0.2857611775398254,0.1595230847597122,0.9915499687194824,110.67999267578124,-25.29331970214844,216.01675415039065
1700075346,0.9664306640625,0.05401611328125,-0.185302734375,-0.2977283596992492,0.1588021665811538,0.9631420373916626,110.9280242919922,-25.645828247070312,216.5505828857422
1700075346,0.994873046875,0.030303955078125,-0.20025634765625,-0.2502050399780273,0.1322320699691772,0.9404932260513306,111.6496124267578,-26.08782958984375,217.05496215820312
1700075346,1.0178070068359375,0.0380401611328125,-0.187774658203125,-0.218037262558937,0.0771176889538765,1.0251744985580444,111.63531494140624,-26.893218994140625,217.18267822265625
1700075346,0.9861907958984376,0.166015625,-0.1681365966796875,-0.0536355301737785,0.0324825756251812,1.0794007778167725,111.98455810546876,-26.915069580078125,217.67274475097656
1700075346,0.98272705078125,0.2889556884765625,-0.105712890625,0.1153918430209159,0.0347984619438648,1.0542160272598269,112.45475769042967,-27.47065734863281,217.92642211914065
1700075346,1.0217132568359375,0.3719940185546875,-0.0197296142578125,0.2325030118227005,0.0765128806233406,1.0367515087127686,113.01521301269533,-27.864654541015625,217.8664093017578
1700075346,1.053436279296875,0.3674163818359375,-0.0102691650390625,0.2685773968696594,0.0699953287839889,1.0529893636703491,112.75942993164062,-27.857589721679688,218.5375518798828
1700075346,1.0908355712890625,0.25115966796875,-0.106964111328125,0.2754747271537781,0.0152404718101024,1.1256763935089111,113.4283447265625,-28.26625061035156,218.69235229492188
1700075346,1.140106201171875,0.1334686279296875,-0.165863037109375,0.2185171544551849,-0.0412734039127826,1.253070831298828,113.28871154785156,-28.488449096679688,219.248275756836
1700075346,1.1540679931640625,0.10662841796875,-0.175750732421875,0.1925063282251358,-0.0714789777994155,1.3697060346603394,113.73503112792967,-28.645431518554688,219.2772521972656
1700075346,1.1622467041015625,0.109893798828125,-0.1206817626953125,0.1727944165468216,-0.075842298567295,1.4944759607315063,113.8407745361328,-28.89071655273437,219.4329528808593
1700075346,1.1719207763671875,0.1320037841796875,-0.0611724853515625,0.1117006987333297,-0.0786346271634101,1.6304649114608765,114.0394287109375,-28.99609375,219.6966857910156
1700075346,1.207916259765625,0.1508941650390625,-0.0242919921875,0.0347177684307098,-0.096036784350872,1.768928289413452,114.36312866210938,-29.03680419921875,220.09803771972656
1700075346,1.263214111328125,0.1291656494140625,-0.0419769287109375,-0.0353297628462314,-0.1385900974273681,1.8901783227920528,114.02407836914062,-28.838699340820312,219.84735107421875
1700075346,1.335540771484375,0.1084136962890625,-0.0720062255859375,-0.0797379687428474,-0.1844920814037323,2.01478910446167,114.31927490234376,-29.091964721679688,219.98883056640625
1700075346,1.409515380859375,0.0766754150390625,-0.087493896484375,-0.0336282663047313,-0.2310691773891449,2.1477177143096924,114.16421508789062,-28.70429992675781,220.5093231201172
1700075346,1.4700469970703125,0.0060272216796875,-0.082855224609375,0.0958727300167083,-0.2992125451564789,2.2888553142547607,114.37518310546876,-28.999237060546875,220.4075469970703
1700075346,1.555419921875,-0.070220947265625,-0.0618743896484375,0.2099899798631668,-0.3612359464168548,2.4254117012023926,114.34938049316406,-28.743881225585938,220.51905822753903
1700075346,1.6486663818359375,-0.13458251953125,-0.0636444091796875,0.2575740218162536,-0.3988182246685028,2.5724658966064453,114.43414306640624,-28.51704406738281,220.61599731445312
1700075346,1.7040252685546875,-0.2232208251953125,-0.019989013671875,0.2060245424509048,-0.4729353189468384,2.6964964866638184,113.76011657714844,-27.913101196289062,220.3772735595703
1700075346,1.7808380126953125,-0.3414764404296875,0.0858306884765625,-0.0112633071839809,-0.5926904678344727,2.761464357376098,113.71218872070312,-27.681808471679688,219.76333618164065
1700075346,1.933197021484375,-0.4612579345703125,0.138824462890625,-0.5043001770973206,-0.5724430084228516,2.769775629043579,113.79490661621094,-27.66810607910156,220.11671447753903
1700075346,2.0587615966796875,-0.627960205078125,-0.022979736328125,-0.9614487886428832,-0.3252334892749786,2.811686515808105,113.00032043457033,-27.05462646484375,219.9061279296875
1700075346,1.9993438720703125,-0.8010711669921875,-0.2470703125,-1.2378151416778564,-0.1042691469192504,2.9976282119750977,113.12034606933594,-26.489486694335938,220.0649261474609
1700075346,1.71728515625,-0.8390045166015625,-0.5165252685546875,-1.5433229207992554,0.1009473875164985,3.2198734283447266,113.12600708007812,-25.963043212890625,220.26744079589844
1700075346,1.47088623046875,-0.7976226806640625,-0.986175537109375,-1.7532683610916138,0.1982872486114502,3.531201839447021,112.90071105957033,-25.769500732421875,220.3598480224609
1700075346,1.3116607666015625,-0.6191558837890625,-1.2393951416015625,-1.8698564767837524,0.0693487152457237,3.578779458999634,112.65093994140624,-24.980743408203125,219.66726684570312
1700075346,1.280792236328125,-0.4758758544921875,-1.268585205078125,-1.91351854801178,-0.0368248596787452,3.360051155090332,112.34837341308594,-24.604644775390625,219.68765258789065
1700075346,1.407012939453125,-0.3480987548828125,-1.3248748779296875,-1.8674548864364624,-0.1027825698256492,3.305103540420532,111.8542938232422,-23.615280151367188,219.9977264404297
1700075346,1.391021728515625,-0.052337646484375,-1.3617706298828125,-1.5072839260101318,-0.2700756788253784,3.397535562515259,111.62794494628906,-23.3526611328125,219.46864318847656
1700075346,1.1938629150390625,0.274169921875,-1.24639892578125,-1.3332463502883911,-0.6512816548347473,3.278808832168579,111.5229949951172,-22.58441162109375,219.25498962402344
1700075346,1.0872650146484375,0.5619354248046875,-0.99481201171875,-2.082166910171509,-0.7247372269630432,2.845530271530152,111.39224243164062,-21.676803588867188,219.6973876953125
1700075346,1.03765869140625,0.9933624267578124,-0.698699951171875,-3.137188196182251,-0.310002863407135,2.575880289077759,111.2082977294922,-21.35653686523437,219.50567626953125
1700075346,0.9285736083984376,1.4873199462890625,-0.470428466796875,-2.7548201084136963,-0.2477773129940033,2.13872504234314,110.80850219726562,-20.62104797363281,219.47482299804688
1700075346,1.0189208984375,0.902435302734375,-0.19573974609375,-2.2275209426879883,-0.4024800658226013,1.6579927206039429,110.58998107910156,-20.314849853515625,219.39942932128903
1700075346,1.120086669921875,0.143157958984375,-0.294189453125,-2.17062783241272,-0.5447498559951782,1.4734559059143066,110.4717254638672,-19.5238037109375,219.78790283203125
1700075346,1.0087890625,-0.0214385986328125,-0.517974853515625,-2.2850000858306885,-0.6271629929542542,1.50345778465271,110.33303833007812,-18.926193237304688,220.3289031982422
1700075346,0.848846435546875,-0.070159912109375,-0.6246795654296875,-2.476569890975952,-0.7403542399406433,1.475965976715088,110.09324645996094,-18.28814697265625,220.3839569091797
1700075346,0.75238037109375,-0.1164093017578125,-0.734832763671875,-2.7024624347686768,-0.8869794011116028,1.2460116147994995,109.97828674316406,-17.879241943359375,220.7119598388672
1700075346,0.696197509765625,-0.1625823974609375,-0.82354736328125,-2.9190680980682373,-1.031836748123169,0.9077888131141664,110.38369750976562,-17.621139526367188,220.45925903320312
1700075346,0.62457275390625,-0.1001434326171875,-0.8383026123046875,-3.125399351119995,-1.152829647064209,0.6477609276771545,110.60214233398438,-17.515304565429688,220.7883453369141
1700075346,0.5549468994140625,0.110748291015625,-0.7712860107421875,-3.301446914672852,-1.2797253131866455,0.3912021219730377,111.08425903320312,-16.534530639648438,220.99937438964844
1700075346,0.52789306640625,0.2785797119140625,-0.694915771484375,-3.417123794555664,-1.4387426376342771,0.083763875067234,110.7254638671875,-16.1929931640625,220.91696166992188
1700075346,0.5331268310546875,0.3748321533203125,-0.690399169921875,-3.3709957599639893,-1.6328125,-0.1859967708587646,111.47756958007812,-15.989425659179688,221.0687255859375
1700075346,0.5258636474609375,0.43865966796875,-0.71722412109375,-3.2385001182556152,-1.8365137577056885,-0.392525166273117,111.82275390625,-15.478912353515623,221.70172119140625
1700075346,0.523529052734375,0.4666900634765625,-0.7761688232421875,-3.1291720867156982,-2.007153987884521,-0.5983473062515259,112.74964904785156,-14.484771728515623,222.02442932128903
1700075346,0.517486572265625,0.46624755859375,-0.8003387451171875,-3.0597033500671387,-2.133330583572388,-0.8271530866622925,113.34149169921876,-14.075637817382812,223.0788116455078
1700075346,0.4938201904296875,0.4314422607421875,-0.7846832275390625,-2.9511313438415527,-2.2125823497772217,-1.039299726486206,114.8474578857422,-13.55029296875,224.25979614257807
1700075346,0.43438720703125,0.380157470703125,-0.7811279296875,-2.7795326709747314,-2.2791733741760254,-1.195618987083435,115.92173767089844,-12.926498413085938,225.12716674804688
1700075346,0.3411712646484375,0.351409912109375,-0.790679931640625,-2.579164981842041,-2.3454391956329346,-1.3658000230789185,116.67593383789062,-12.727371215820312,225.1394958496093
1700075346,0.2831268310546875,0.3361968994140625,-0.8004302978515625,-2.3902034759521484,-2.392718553543091,-1.5769846439361572,117.47567749023438,-12.18292236328125,225.4129638671875
1700075346,0.2880401611328125,0.310211181640625,-0.76812744140625,-2.2026891708374023,-2.40105938911438,-1.7965644598007202,117.3829345703125,-11.38623046875,225.0442352294922
1700075346,0.3253631591796875,0.28125,-0.7501220703125,-2.080704689025879,-2.3822543621063232,-1.9592820405960083,117.2882080078125,-11.079055786132812,223.0418243408203
1700075346,0.3390960693359375,0.2809295654296875,-0.768951416015625,-2.014113664627075,-2.369955778121948,-2.11050033569336,116.69699096679688,-10.141265869140623,221.82862854003903
1700075346,0.358306884765625,0.2725372314453125,-0.7820281982421875,-1.995399832725525,-2.342179536819458,-2.2725133895874023,116.08856201171876,-10.196563720703123,219.50900268554688
1700075346,0.372222900390625,0.261688232421875,-0.785736083984375,-2.016279458999634,-2.305975437164306,-2.4208474159240723,114.66029357910156,-8.711395263671875,217.7119598388672
1700075346,0.353363037109375,0.256866455078125,-0.7446441650390625,-2.099204540252685,-2.2315659523010254,-2.5693492889404297,113.14590454101562,-7.93927001953125,216.53005981445312
1700075346,0.3507843017578125,0.221466064453125,-0.728546142578125,-2.2331175804138184,-2.1549081802368164,-2.679579496383667,111.16705322265624,-7.202972412109375,215.3281097412109
1700075346,0.3511199951171875,0.2018890380859375,-0.7317047119140625,-2.3806614875793457,-2.0837242603302,-2.7558302879333496,109.0105438232422,-6.227310180664063,214.7388916015625
1700075347,0.377777099609375,0.2112884521484375,-0.737457275390625,-2.5276122093200684,-2.041486978530884,-2.7914154529571533,107.29685974121094,-5.7665863037109375,214.05029296875
1700075347,0.411773681640625,0.28570556640625,-0.7611846923828125,-2.625528812408448,-1.982815504074097,-2.8051764965057373,105.73309326171876,-5.745773315429688,213.2477569580078
1700075347,0.4193878173828125,0.3881378173828125,-0.7644195556640625,-2.649703025817871,-1.9144247770309448,-2.843754291534424,103.840087890625,-4.869049072265625,213.11013793945312
1700075347,0.4021759033203125,0.4527130126953125,-0.754425048828125,-2.5297152996063232,-1.8473494052886963,-2.851287603378296,102.06961059570312,-4.027847290039063,213.8193817138672
1700075347,0.395263671875,0.5203094482421875,-0.731597900390625,-2.232715845108032,-1.762369155883789,-2.804232120513916,100.61851501464844,-3.0585479736328125,213.95440673828125
1700075347,0.407684326171875,0.6051788330078125,-0.7007598876953125,-1.859474778175354,-1.663957118988037,-2.723665237426758,99.04208374023438,-2.6600341796875,214.7822723388672
1700075347,0.4452667236328125,0.7169952392578125,-0.6898040771484375,-1.545459270477295,-1.526775360107422,-2.640110492706299,97.36358642578124,-2.327011108398437,215.6694183349609
1700075347,0.4840087890625,0.8355865478515625,-0.7283172607421875,-1.2630329132080078,-1.384377121925354,-2.507939577102661,96.3804168701172,-2.19482421875,215.0785980224609
1700075347,0.5018463134765625,0.9608917236328124,-0.7943572998046875,-0.9156030416488647,-1.3063862323760986,-2.370778560638428,95.72076416015624,-2.269134521484375,215.33966064453125
1700075347,0.5376129150390625,1.0680999755859375,-0.838531494140625,-0.6793843507766724,-1.2110799551010132,-2.2552578449249268,94.9984893798828,-2.461761474609375,215.11740112304688
1700075347,0.5845184326171875,1.1113739013671875,-0.83624267578125,-0.4066082239151001,-1.0833041667938232,-2.067131757736206,94.51072692871094,-3.114776611328125,214.5332946777344
1700075347,0.5816497802734375,1.1304168701171875,-0.769775390625,-0.0119655830785632,-0.9500116109848022,-1.7967690229415894,94.13832092285156,-3.60748291015625,214.269287109375
1700075347,0.5563812255859375,1.1494598388671875,-0.740325927734375,0.2435141205787658,-0.7910888195037842,-1.4819990396499634,94.54702758789062,-4.179977416992188,213.48443603515625
1700075347,0.5406951904296875,1.2042236328125,-0.72662353515625,0.3904156982898712,-0.6670446395874023,-1.1809688806533811,95.55923461914062,-5.572723388671875,212.83990478515625
1700075347,0.5698394775390625,1.2525177001953125,-0.66680908203125,0.452711820602417,-0.5256725549697876,-0.9018096923828124,96.65652465820312,-6.88360595703125,212.564453125
1700075347,0.6143798828125,1.2618255615234375,-0.6172027587890625,0.3529191613197326,-0.4055536389350891,-0.5375849008560181,98.06507873535156,-8.538284301757812,211.59182739257807
1700075347,0.6357269287109375,1.283294677734375,-0.60870361328125,0.1563938707113266,-0.3086840808391571,-0.1457694470882415,99.9732666015625,-10.047409057617188,210.83395385742188
1700075347,0.6744842529296875,1.2660064697265625,-0.6349945068359375,0.0297802668064832,-0.1772725135087967,0.2103282064199447,101.75860595703124,-11.355865478515623,210.06613159179688
1700075347,0.669769287109375,1.2307281494140625,-0.789703369140625,-0.1281608939170837,-0.0816786140203476,0.5801858901977539,104.41960144042967,-13.808700561523438,209.892318725586
1700075347,0.6004791259765625,1.2931365966796875,-0.86199951171875,-0.4123798310756683,0.3731634616851806,0.82712721824646,106.67971801757812,-16.274627685546875,209.6632232666016
1700075347,0.54541015625,1.355621337890625,-1.059600830078125,-0.3254981935024261,0.8485332131385803,1.0366849899291992,109.9594268798828,-18.632553100585938,208.3592071533203
1700075347,0.52117919921875,1.2620849609375,-1.427459716796875,0.0339316017925739,1.0956801176071167,1.2060569524765017,113.4701690673828,-21.610397338867188,208.7572326660156
1700075347,0.936737060546875,1.0231170654296875,-1.406005859375,0.5647802948951721,0.420397013425827,1.220195174217224,116.91560363769533,-24.34370422363281,209.4150390625
1700075347,2.12701416015625,0.594268798828125,-0.374847412109375,0.9891877770423888,-0.6272873282432556,1.338122010231018,120.41395568847656,-27.90252685546875,209.895248413086
1700075347,3.0313720703125,0.3098907470703125,1.091033935546875,0.2536061704158783,0.2023994475603103,1.2711355686187744,123.90512084960938,-31.16816711425781,210.6973114013672
1700075347,2.2946014404296875,-0.026763916015625,0.8565216064453125,0.1952118426561355,0.4442272484302521,1.3834171295166016,127.7031707763672,-34.912567138671875,212.31997680664065
1700075347,0.856597900390625,-0.038787841796875,0.0128326416015625,0.2892051637172699,0.4687150120735168,1.528114676475525,131.53041076660156,-39.1624755859375,213.76834106445312
1700075347,0.19366455078125,0.146728515625,-0.73480224609375,0.5828850269317627,0.4161711037158966,1.182620644569397,135.46446228027344,-43.25273132324219,215.9471740722656
1700075347,0.3729095458984375,0.0003814697265625,-0.6543121337890625,0.2208333164453506,0.3635004460811615,1.0982083082199097,138.52651977539062,-47.67793273925781,218.08963012695312
1700075347,0.5662078857421875,0.3682708740234375,-0.423583984375,-0.0035867453552782,0.4006520807743072,1.0022910833358765,141.69448852539062,-52.778167724609375,221.4539794921875
1700075347,0.761749267578125,0.767913818359375,-0.1819915771484375,-0.088122934103012,0.3482642471790313,0.815913200378418,144.55014038085938,-57.917877197265625,224.70855712890625
1700075347,1.1209716796875,0.9494171142578124,0.044952392578125,-0.0192554537206888,0.4006267786026001,0.4585100412368774,147.0713653564453,-62.22238159179688,227.82049560546875
1700075347,1.3273162841796875,0.7247467041015625,-0.1473388671875,-0.0295080915093421,0.4688202142715454,0.1246987879276275,149.21156311035156,-67.84030151367188,232.19590759277344
1700075347,1.2393951416015625,0.294677734375,-0.454437255859375,-0.1224931553006172,0.4399597942829132,-0.0674517452716827,150.4951934814453,-73.17800903320312,235.88189697265625
1700075347,1.1669769287109375,-0.04766845703125,-0.5195159912109375,-0.0329092144966125,0.3635630309581756,0.0967670232057571,150.68821716308594,-78.59953308105469,239.7613983154297
1700075347,1.11749267578125,-0.19940185546875,-0.455963134765625,0.0054544201120734,0.3237631618976593,0.4015873670578003,151.0597686767578,-84.64033508300781,242.85943603515625
1700075347,1.0712738037109375,-0.2667388916015625,-0.3935546875,-0.0596795752644538,0.337502121925354,0.6216891407966614,150.54100036621094,-90.5215301513672,246.47122192382807
1700075347,0.958465576171875,-0.054534912109375,-0.3306427001953125,-0.1154570877552032,0.3108079433441162,0.5350037813186646,148.93467712402344,-96.27761840820312,250.7489624023437
1700075347,0.9741058349609376,0.3144989013671875,-0.3220672607421875,-0.1718420684337616,0.2681497037410736,0.2369118779897689,146.5260772705078,-102.46534729003906,254.12754821777344
1700075347,0.9832611083984376,0.4498748779296875,-0.3320159912109375,-0.0608777329325675,0.228634774684906,-0.0452641509473323,143.9698944091797,-108.14974975585938,257.79888916015625
1700075347,0.9581146240234376,0.45947265625,-0.2795257568359375,0.0499166920781135,0.1895454227924347,-0.2317783683538437,140.9278564453125,-113.000244140625,261.25738525390625
1700075347,0.9915771484375,0.3799896240234375,-0.2663726806640625,0.1157574951648712,0.1526681035757064,-0.3250337541103363,137.58578491210938,-117.6636962890625,264.5372314453125
1700075347,0.991668701171875,0.2514495849609375,-0.3351593017578125,0.1419869661331176,0.1042694151401519,-0.3448122441768646,134.00161743164062,-120.85501098632812,267.5936584472656
1700075347,0.994293212890625,0.1665191650390625,-0.3538665771484375,0.1021114513278007,0.0597269795835018,-0.3326674401760101,130.33660888671875,-123.96148681640624,270.42462158203125
1700075347,1.009521484375,0.1356964111328125,-0.34771728515625,0.0456436499953269,0.0340016409754753,-0.3288577795028686,126.80934143066406,-126.4001007080078,273.17120361328125
1700075347,1.0123748779296875,0.1450653076171875,-0.324554443359375,0.0301618967205286,0.024230770766735,-0.3371221125125885,123.8412628173828,-128.06875610351562,275.4122314453125
1700075347,1.0159454345703125,0.1768798828125,-0.3092041015625,0.0659715607762336,0.017774736508727,-0.391365647315979,120.69367980957033,-129.28579711914062,278.02227783203125
1700075347,1.0319976806640625,0.1868743896484375,-0.3105316162109375,0.1669650226831436,0.0052711945027112,-0.436382919549942,117.89561462402344,-130.33642578125,279.2115478515625
1700075347,1.035430908203125,0.179656982421875,-0.3097381591796875,0.2863955497741699,-0.0244515463709831,-0.4648933708667755,115.65177917480467,-131.44927978515625,280.92828369140625
1700075347,1.036041259765625,0.163970947265625,-0.2902984619140625,0.4221818745136261,-0.0201050024479627,-0.4776805341243744,113.4970245361328,-131.90213012695312,281.4617919921875
1700075347,1.044189453125,0.1400604248046875,-0.265655517578125,0.4958766102790832,-0.0244110673666,-0.4510326981544494,112.07730102539062,-132.4547119140625,282.010498046875
1700075347,1.0297088623046875,0.122528076171875,-0.2660980224609375,0.5181928277015686,-0.0327670015394687,-0.4110735654830932,111.51341247558594,-132.51698303222656,282.35272216796875
1700075347,1.0038604736328125,0.1041717529296875,-0.3099822998046875,0.5297839641571045,-0.040260337293148,-0.4114735722541809,111.30044555664062,-131.88259887695312,282.5462646484375
1700075347,0.9759674072265624,0.083251953125,-0.357635498046875,0.636221706867218,-0.0663039237260818,-0.4627237021923065,111.625732421875,-130.93792724609375,282.3265991210937
1700075347,0.94720458984375,0.0713348388671875,-0.359710693359375,0.7203176617622375,-0.0962330624461174,-0.4819429516792297,112.22061157226562,-130.41943359375,282.31103515625
1700075347,0.935882568359375,0.0869903564453125,-0.338653564453125,0.6826959848403931,-0.1320038437843322,-0.4748216569423675,112.78245544433594,-129.24179077148438,281.91265869140625
1700075347,0.906585693359375,0.121368408203125,-0.303070068359375,0.5599671602249146,-0.1263147890567779,-0.4350031316280365,114.19866943359376,-128.36256408691406,282.105224609375
1700075347,0.88232421875,0.1469268798828125,-0.2863922119140625,0.4091331660747528,-0.1224265769124031,-0.3708252012729645,114.73249816894533,-127.66285705566406,281.9923095703125
1700075347,0.8727874755859375,0.173431396484375,-0.3240509033203125,0.3408862054347992,-0.1484046578407287,-0.4090378284454345,114.43865966796876,-128.2139892578125,281.8984375
1700075347,0.898834228515625,0.1318511962890625,-0.337615966796875,0.3310431838035583,-0.173172041773796,-0.4474741816520691,113.51449584960938,-128.5214080810547,281.5133056640625
1700075347,0.9109344482421876,0.0972137451171875,-0.3553466796875,0.3359481692314148,-0.1932229846715927,-0.4498832821846008,114.33094787597656,-127.8156280517578,280.21710205078125
1700075347,0.88592529296875,0.0842437744140625,-0.3462982177734375,0.3735040724277496,-0.2018694728612899,-0.4308507144451141,115.54800415039062,-125.63420104980467,279.47265625
1700075347,0.845306396484375,0.09014892578125,-0.3081207275390625,0.353783905506134,-0.1985650211572647,-0.4451460540294647,117.23731994628906,-123.69586181640624,278.22100830078125
1700075347,0.84051513671875,0.0968780517578125,-0.2786407470703125,0.2743088006973266,-0.1752879321575164,-0.4557749927043915,118.32028198242188,-122.2578125,276.8821105957031
1700075347,0.8604583740234375,0.11566162109375,-0.283660888671875,0.22324800491333,-0.1565302163362503,-0.4111241698265075,119.199951171875,-121.30436706542967,276.4740295410156
1700075347,0.87359619140625,0.12176513671875,-0.29931640625,0.1869091689586639,-0.1616418957710266,-0.36899533867836,120.14767456054688,-120.7169952392578,275.7561950683594
1700075347,0.910858154296875,0.1082000732421875,-0.3059234619140625,0.3061948120594024,-0.1707645505666732,-0.4156789481639862,120.3384246826172,-119.35745239257812,275.0634460449219
1700075347,0.970458984375,0.0093231201171875,-0.272705078125,0.3315366506576538,-0.1448309570550918,-0.3736923635005951,120.9156494140625,-118.8292236328125,274.024658203125
1700075347,0.9759674072265624,0.006683349609375,-0.3094024658203125,0.3514206111431122,-0.1615023463964462,-0.3358091711997986,121.0138702392578,-118.68394470214844,272.926513671875
1700075347,0.9706878662109376,-0.0266571044921875,-0.2845916748046875,0.3515377938747406,-0.143881008028984,-0.2781099081039428,121.32229614257812,-117.64662170410156,271.85546875
1700075347,0.95806884765625,-0.05291748046875,-0.264007568359375,0.2599072158336639,-0.1088287457823753,-0.1372396200895309,121.61537170410156,-117.74919128417967,271.4117431640625
1700075347,0.9126434326171876,-0.001861572265625,-0.2761688232421875,0.2276811003684997,-0.1338789761066436,-0.1164938583970069,121.62246704101562,-117.77810668945312,271.08795166015625
1700075347,0.9122161865234376,-0.0271759033203125,-0.2207183837890625,0.1855309754610061,-0.0961398482322692,-0.0777744203805923,121.88424682617188,-117.37843322753906,270.8935546875
1700075347,0.94183349609375,-0.0378875732421875,-0.2134857177734375,0.1743523627519607,-0.0556531436741352,-0.0025648903101682,121.75009155273438,-116.7912139892578,270.52886962890625
1700075347,0.9346160888671876,-0.0377349853515625,-0.230224609375,0.2252237945795059,-0.0356538668274879,0.0939307585358619,122.27995300292967,-116.08456420898438,270.2889404296875
1700075347,0.958648681640625,-0.0602264404296875,-0.2035369873046875,0.1930192559957504,-0.0087418258190155,0.2133383750915527,122.39329528808594,-116.17979431152344,269.5660400390625
1700075347,1.0017242431640625,-0.09930419921875,-0.1879730224609375,0.1389624178409576,0.0521289817988872,0.36286661028862,122.32571411132812,-115.78048706054688,270.02801513671875
1700075347,1.00665283203125,-0.1161956787109375,-0.25665283203125,0.190356895327568,0.0082480758428573,0.4093662202358246,122.29153442382812,-115.52536010742188,269.9737854003906
1700075347,1.0407257080078125,-0.1211700439453125,-0.2884368896484375,0.2798657417297363,-0.0211108773946762,0.4511690437793731,122.4479522705078,-115.61917114257812,269.5843811035156
1700075347,1.0984954833984375,-0.0366973876953125,-0.2685394287109375,0.3367740213871002,-0.0183422546833753,0.4544471204280853,122.69554138183594,-115.44430541992188,269.2172241210937
1700075347,1.1116943359375,0.083404541015625,-0.1958465576171875,0.3670483231544494,0.0206634663045406,0.4343868792057037,122.73846435546876,-115.27919006347656,269.85650634765625
1700075347,1.1128082275390625,0.124908447265625,-0.121856689453125,0.3162852525711059,0.0306356735527515,0.4650579690933227,122.71078491210938,-114.9623565673828,268.2432556152344
1700075347,1.121978759765625,0.1073455810546875,-0.096527099609375,0.2462033778429031,0.0325954928994178,0.5409657955169678,123.18759155273438,-114.99777221679688,268.6090087890625
1700075347,1.1621856689453125,0.018341064453125,-0.0950164794921875,0.2168409675359726,0.0281490795314311,0.6234787702560425,122.86160278320312,-114.72207641601562,267.89013671875
1700075347,1.2094268798828125,-0.060455322265625,-0.1629486083984375,0.2445583492517471,-0.0070856064558029,0.6718817353248596,122.79241943359376,-114.27337646484376,267.9361572265625
1700075347,1.2728424072265625,-0.0958709716796875,-0.22918701171875,0.2803901135921478,-0.0580358728766441,0.683361828327179,123.62081909179688,-114.03799438476562,267.78094482421875
1700075347,1.3155364990234375,-0.0701751708984375,-0.2440032958984375,0.3176338970661163,-0.113651730120182,0.6689578294754028,123.3272705078125,-113.9434814453125,267.06158447265625
1700075347,1.3236541748046875,0.006011962890625,-0.2162933349609375,0.394025593996048,-0.1587459743022918,0.636664628982544,123.77717590332033,-113.54080200195312,267.1077575683594
1700075347,1.3350372314453125,0.06451416015625,-0.13873291015625,0.5099351406097412,-0.179748460650444,0.6088769435882568,124.0454559326172,-113.00936889648438,267.0825500488281
1700075347,1.35003662109375,0.0668487548828125,-0.036773681640625,0.5582542419433594,-0.1739060133695602,0.6382737159729004,124.20706176757812,-112.9252471923828,267.3628845214844
1700075347,1.364776611328125,0.0202789306640625,0.060089111328125,0.4253973662853241,-0.2117825597524643,0.7543137669563293,124.4233856201172,-112.56997680664062,266.8218994140625
1700075347,1.3562164306640625,-0.0460357666015625,0.08966064453125,0.2696669101715088,-0.211244598031044,0.8913962244987488,124.63526916503906,-112.22714233398438,266.1630859375
1700075347,1.3714752197265625,-0.198150634765625,0.0803375244140625,0.1712710857391357,-0.2025062292814254,1.0114898681640625,125.00685119628906,-111.6908721923828,265.8340148925781
1700075347,1.416229248046875,-0.349578857421875,0.0676727294921875,0.1201120242476463,-0.1989176273345947,1.1050174236297607,125.07302856445312,-111.10511779785156,265.23394775390625
1700075347,1.449249267578125,-0.4580841064453125,0.0923614501953125,0.0953675284981727,-0.1967346370220184,1.187853217124939,125.22921752929688,-110.58541870117188,265.3001708984375
1700075347,1.4673614501953125,-0.524078369140625,0.095611572265625,0.064056746661663,-0.1857629418373108,1.221185564994812,125.45588684082033,-110.54913330078124,265.0325622558594
1700075347,1.448394775390625,-0.5960235595703125,0.069732666015625,-0.0652642250061035,0.0486527569591999,1.2991101741790771,125.6741943359375,-109.79739379882812,264.84844970703125
1700075347,1.3614959716796875,-0.587127685546875,-0.159423828125,-0.3935110867023468,0.3285424709320068,1.649610161781311,126.20735168457033,-109.63435363769533,264.65203857421875
1700075347,1.1324615478515625,-0.3427276611328125,-0.4959716796875,-1.1685911417007446,0.633908212184906,2.158913373947144,126.15072631835938,-109.03045654296876,264.6476745605469
1700075347,0.95782470703125,-0.0793914794921875,-0.8612823486328125,-1.7505815029144287,0.8767842650413513,2.4851832389831543,126.32997131347656,-108.59500122070312,264.2455749511719
1700075348,1.1089324951171875,0.012176513671875,-1.0788116455078125,-1.9601304531097408,0.8466705679893494,2.6311168670654297,126.8960418701172,-108.02932739257812,264.0845947265625
1700075348,1.3926239013671875,0.067596435546875,-0.979339599609375,-1.8442574739456177,0.7348945140838623,2.88952898979187,127.3992919921875,-107.56770324707033,263.4969482421875
1700075348,1.4903411865234375,0.2877044677734375,-0.811309814453125,-1.452786564826965,0.5936838388442993,3.223726987838745,127.27186584472656,-106.67976379394533,263.4139404296875
1700075348,1.4719390869140625,0.5250091552734375,-0.5228424072265625,-1.0924170017242432,0.5653573870658875,3.3579297065734863,127.4521942138672,-106.32606506347656,263.32257080078125
1700075348,1.4781951904296875,0.6761627197265625,-0.330108642578125,-0.6978166699409485,0.8351092338562012,3.192460536956787,127.80081176757812,-105.4620361328125,262.595703125
1700075348,1.5194091796875,0.7731475830078125,-0.3121337890625,-0.2207643389701843,1.0169235467910769,3.033951759338379,127.9605712890625,-105.1425323486328,262.82958984375
1700075348,1.590301513671875,0.9012908935546876,-0.27325439453125,0.1824672818183899,1.0024263858795166,2.8621485233306885,127.9696044921875,-104.45962524414062,262.62371826171875
1700075348,1.69085693359375,0.927032470703125,-0.2888641357421875,0.5253572463989258,0.9738309383392334,2.60760498046875,128.49497985839844,-104.06355285644533,262.7089538574219
1700075348,1.7224884033203125,0.72833251953125,-0.403900146484375,0.9005436301231384,0.995981514453888,2.4032142162323,129.04214477539062,-103.47549438476562,262.360107421875
1700075348,1.56927490234375,0.4665985107421875,-0.52642822265625,1.0436270236968994,0.8576547503471375,2.495985507965088,128.7093048095703,-102.92063903808594,261.98046875
1700075348,1.41876220703125,0.4383697509765625,-0.55877685546875,0.8908012509346008,0.6531264185905457,2.665515661239624,128.9978790283203,-102.63044738769533,261.8722839355469
1700075348,1.3896331787109375,0.40655517578125,-0.572265625,0.6009172797203064,0.4795077443122864,2.610750436782837,129.2278289794922,-101.7762451171875,262.5502624511719
1700075348,1.414398193359375,0.2850494384765625,-0.599212646484375,0.2420547157526016,0.3257339000701904,2.396159648895264,129.64822387695312,-101.3659210205078,262.38543701171875
1700075348,1.3582305908203125,0.1819000244140625,-0.5845184326171875,-0.0783456712961196,0.2227033823728561,2.17910385131836,129.8542022705078,-100.53244018554688,261.5391845703125
1700075348,1.2021942138671875,0.13458251953125,-0.55328369140625,-0.3608375489711761,0.139494776725769,2.037618637084961,129.81515502929688,-99.7282257080078,261.6554870605469
1700075348,0.994354248046875,0.140960693359375,-0.54486083984375,-0.6179013252258301,0.0848461836576461,1.864582896232605,130.49130249023438,-98.96804809570312,261.3623962402344
1700075348,0.796875,0.1460113525390625,-0.5520782470703125,-0.9594181776046752,0.028243089094758,1.601032257080078,130.37030029296875,-98.4472198486328,260.62066650390625
1700075348,0.672393798828125,0.1175689697265625,-0.5154266357421875,-1.2489149570465088,-0.0713117271661758,1.25068998336792,130.63294982910156,-97.64959716796876,260.88970947265625
1700075348,0.6219482421875,0.0079803466796875,-0.4010009765625,-1.4319745302200315,-0.1393951773643493,0.9491202235221864,130.57286071777344,-96.87582397460938,260.4981689453125
1700075348,0.535980224609375,-0.0887298583984375,-0.32647705078125,-1.5665594339370728,-0.1987141668796539,0.7454968094825745,131.17916870117188,-96.57868957519533,260.31085205078125
1700075348,0.381439208984375,-0.13494873046875,-0.3375701904296875,-1.684285283088684,-0.2467828840017318,0.5967315435409546,131.5240936279297,-95.41775512695312,260.4273681640625
1700075348,0.2322998046875,-0.15118408203125,-0.39093017578125,-1.7944024801254272,-0.3021843731403351,0.3997790813446045,131.5113525390625,-94.767333984375,260.2298583984375
1700075348,0.1628265380859375,-0.1862945556640625,-0.4122772216796875,-1.8663808107376096,-0.3512168824672699,0.1534191220998764,131.8684539794922,-93.50163269042967,260.40106201171875
1700075348,0.16705322265625,-0.2249298095703125,-0.387054443359375,-1.890561580657959,-0.422524094581604,-0.0933704301714897,131.9256134033203,-92.50799560546876,260.0225830078125
1700075348,0.16326904296875,-0.19561767578125,-0.38018798828125,-1.8716286420822144,-0.503672182559967,-0.3201548457145691,132.32090759277344,-90.99334716796876,260.1429443359375
1700075348,0.139404296875,-0.1055145263671875,-0.3956298828125,-1.8532687425613403,-0.598858654499054,-0.5973731279373169,132.56944274902344,-89.45968627929688,259.5126953125
1700075348,0.1467132568359375,-0.0588836669921875,-0.396514892578125,-1.832215666770935,-0.6804046034812927,-0.9465401768684388,132.68409729003906,-88.46517944335938,259.6419372558594
1700075348,0.17755126953125,-0.0798492431640625,-0.413055419921875,-1.7738258838653564,-0.734328031539917,-1.2607295513153076,132.9801788330078,-86.8280029296875,259.78009033203125
1700075348,0.165985107421875,-0.117340087890625,-0.437347412109375,-1.6702326536178589,-0.7869710326194763,-1.481801152229309,133.17529296875,-85.13856506347656,259.233642578125
1700075348,0.10430908203125,-0.1562652587890625,-0.43682861328125,-1.5003725290298462,-0.8405676484107971,-1.6375303268432615,133.00747680664062,-83.45231628417969,259.027587890625
1700075348,0.050994873046875,-0.175140380859375,-0.4482574462890625,-1.3398959636688232,-0.8871644735336304,-1.8282119035720823,133.40940856933594,-81.80583190917969,259.2694091796875
1700075348,0.04620361328125,-0.1412811279296875,-0.4673614501953125,-1.2712000608444214,-0.9111936092376708,-2.0800788402557373,133.336669921875,-80.15129089355469,259.12841796875
1700075348,0.0699920654296875,-0.071014404296875,-0.498779296875,-1.1876055002212524,-0.9403440356254578,-2.323183059692383,133.32859802246094,-78.2059326171875,258.6126708984375
1700075348,0.086456298828125,-0.036407470703125,-0.4929962158203125,-1.0880701541900637,-0.9251320958137512,-2.5062856674194336,133.2759552001953,-76.55961608886719,258.5035095214844
1700075348,0.081207275390625,0.0200347900390625,-0.53582763671875,-1.0356285572052002,-0.9003953337669373,-2.650187492370605,133.50265502929688,-74.77592468261719,258.08526611328125
1700075348,0.0689849853515625,0.1002960205078125,-0.5211181640625,-1.0013275146484375,-0.8507734537124634,-2.738810539245605,132.88626098632812,-73.63800048828125,257.98712158203125
1700075348,0.086761474609375,0.1664886474609375,-0.54998779296875,-0.927474856376648,-0.8026426434516907,-2.735546112060547,132.5205078125,-71.32064819335938,256.77496337890625
1700075348,0.117950439453125,0.2684478759765625,-0.6100006103515625,-0.8671220541000366,-0.709811270236969,-2.6773228645324707,132.157958984375,-69.78359985351562,255.68142700195312
1700075348,0.1477203369140625,0.41436767578125,-0.6903076171875,-0.9229459166526794,-0.557623565196991,-2.613520622253418,131.54388427734375,-67.94105529785156,255.01661682128903
1700075348,0.165985107421875,0.55853271484375,-0.74664306640625,-0.978730082511902,-0.3992171585559845,-2.493483781814575,130.98606872558594,-66.78028869628906,254.3512420654297
1700075348,0.1963348388671875,0.692962646484375,-0.7882537841796875,-0.9406719207763672,-0.2873905003070831,-2.310821056365967,130.63778686523438,-65.6552734375,253.7566375732422
1700075348,0.238800048828125,0.8409423828125,-0.841033935546875,-0.7456755042076111,-0.2105974555015564,-2.0921363830566406,129.8964080810547,-64.16349792480469,253.37210083007807
1700075348,0.2929229736328125,1.0075225830078125,-0.864776611328125,-0.4363642632961273,-0.0997052863240242,-1.9200453758239744,129.4788055419922,-63.72285461425781,253.75173950195312
1700075348,0.321868896484375,1.152740478515625,-0.868804931640625,-0.1967458128929138,0.0316404849290847,-1.6683201789855957,128.70327758789062,-63.42320251464844,253.4841766357422
1700075348,0.2928924560546875,1.369842529296875,-0.8823699951171875,-0.0114036556333303,0.1074438989162445,-1.3572789430618286,128.0856170654297,-62.93548583984375,252.77682495117188
1700075348,0.3001251220703125,1.5767822265625,-0.7878570556640625,0.2591708600521087,0.1517402529716491,-1.0934548377990725,127.28846740722656,-63.48313903808594,252.7862091064453
1700075348,0.359375,1.655517578125,-0.680633544921875,0.5978080034255981,0.2456851303577423,-0.8843399286270142,126.35301208496094,-63.38465881347656,252.190658569336
1700075348,0.406951904296875,1.585540771484375,-0.6411285400390625,0.5561050772666931,0.6158530712127686,-0.8232816457748413,125.8837890625,-63.96952819824219,252.66650390625
1700075348,0.4436187744140625,1.38531494140625,-0.8796539306640625,0.8892489075660706,0.7296091914176941,-0.6788224577903748,125.29681396484376,-64.55490112304688,252.45379638671875
1700075348,0.4291839599609375,1.189544677734375,-1.06134033203125,1.5406546592712402,-0.0363646671175956,-0.0887359976768493,124.4166259765625,-65.03826904296875,252.95790100097656
1700075348,0.7286529541015625,1.338165283203125,-0.017486572265625,0.426679402589798,-0.3299696445465088,-0.0723285228013992,123.82359313964844,-65.83924865722656,253.25198364257807
1700075348,1.4283447265625,1.165130615234375,0.45208740234375,-0.0937672406435012,-0.4428344070911407,0.0727437138557434,123.03254699707033,-66.66285705566406,254.22994995117188
1700075348,1.6181488037109375,0.7321014404296875,0.345855712890625,0.0606231316924095,-0.7071608901023865,0.4646731317043304,122.81536865234376,-67.76580810546875,254.6743621826172
1700075348,1.70404052734375,0.5262451171875,0.1041412353515625,-0.534009575843811,-0.5695958137512207,0.7027139067649841,121.91014099121094,-69.14527893066406,255.97964477539065
1700075348,1.8232879638671875,0.3528900146484375,-0.581298828125,-0.7710391879081726,-0.7451977133750916,0.7435654997825623,121.08168029785156,-70.40296936035156,256.6923217773437
1700075348,1.5393524169921875,0.1317138671875,-0.6046600341796875,-0.5624045133590698,-0.6821348667144775,0.7190020680427551,120.17343139648438,-71.65800476074219,258.7754211425781
1700075348,1.0133056640625,-0.0347747802734375,-0.522735595703125,0.0176975037902593,-0.446736216545105,0.7174084782600403,119.68617248535156,-73.13587951660156,259.72198486328125
1700075348,0.7722320556640625,-0.08245849609375,-0.4142303466796875,0.3368589878082275,-0.3906540274620056,0.7143697738647461,119.18495178222656,-74.33668518066406,261.9066772460937
1700075348,0.76898193359375,0.2672119140625,-0.231903076171875,0.1425922960042953,-0.3278745412826538,0.5769365429878235,118.2714385986328,-75.79678344726562,263.4588623046875
1700075348,0.842742919921875,0.6677398681640625,-0.174163818359375,-0.08266531676054,-0.3064667284488678,0.2992168068885803,117.44332885742188,-77.45634460449219,265.1040954589844
1700075348,0.9486083984375,0.81658935546875,-0.235015869140625,-0.2634321749210357,-0.2913160026073456,0.004824848845601,116.649169921875,-78.67164611816406,267.01470947265625
1700075348,1.1470947265625,0.6568603515625,-0.3382720947265625,-0.2245641350746154,-0.2399492114782333,-0.1567382216453552,115.3424072265625,-79.84942626953125,269.3525390625
1700075348,1.0622711181640625,0.3265533447265625,-0.4506988525390625,-0.0028676919173449,-0.2621589004993438,-0.120485670864582,114.529541015625,-81.18132019042969,271.2991943359375
1700075348,0.8977203369140625,0.1171722412109375,-0.4827880859375,0.1215069890022277,-0.2833576798439026,-0.0188019163906574,113.273681640625,-82.513916015625,272.7188415527344
1700075348,0.9365234375,0.0233154296875,-0.446563720703125,0.0598015487194061,-0.2624598443508148,0.0247410330921411,112.17379760742188,-83.60636901855469,274.44482421875
1700075348,0.9675445556640624,0.07757568359375,-0.4355316162109375,-0.0293341856449842,-0.244548499584198,0.0076685724779963,110.44483947753906,-84.65092468261719,276.6859130859375
1700075348,0.9966888427734376,0.1901397705078125,-0.3898773193359375,-0.072307750582695,-0.2486931681632995,-0.0508432053029537,109.14369201660156,-85.86552429199219,278.7696533203125
1700075348,1.0179443359375,0.262176513671875,-0.3678741455078125,-0.0725026950240135,-0.2694261372089386,-0.1227658689022064,107.9150848388672,-86.7659912109375,280.6768493652344
1700075348,1.0027618408203125,0.28082275390625,-0.38427734375,-0.0497529096901416,-0.2945791780948639,-0.1890367716550827,106.4722137451172,-88.00433349609375,282.116455078125
1700075348,0.952911376953125,0.26080322265625,-0.4186553955078125,-0.0401988178491592,-0.338319182395935,-0.2455810010433197,105.12091064453124,-88.19136047363281,284.3207702636719
1700075348,0.916748046875,0.250732421875,-0.451690673828125,-0.0173401087522506,-0.4061182141304016,-0.2833848297595978,103.50442504882812,-89.37745666503906,285.7212829589844
1700075348,0.9323272705078124,0.2484893798828125,-0.4454193115234375,-0.0053095440380275,-0.4661724865436554,-0.3246963322162628,102.04986572265624,-89.65776062011719,287.8927001953125
1700075348,0.9528045654296876,0.247833251953125,-0.444122314453125,-0.007816644385457,-0.5186465978622437,-0.367122083902359,100.11996459960938,-89.73489379882812,289.28082275390625
1700075348,0.9580078125,0.2382049560546875,-0.4240570068359375,-0.0358789041638374,-0.5352998971939087,-0.4024046957492828,98.75953674316406,-89.81721496582031,290.13433837890625
1700075348,0.9572296142578124,0.236846923828125,-0.3864593505859375,-0.0964913889765739,-0.5272672772407532,-0.4371568262577057,97.14208984375,-90.28842163085938,291.4710693359375
1700075348,0.9520721435546876,0.2248077392578125,-0.3762054443359375,-0.1411850899457931,-0.5187989473342896,-0.4699134528636932,95.6298370361328,-90.44683837890624,292.9410400390625
1700075348,0.944976806640625,0.203948974609375,-0.37847900390625,-0.1567672491073608,-0.5297972559928894,-0.4881699383258819,94.02702331542967,-90.23587036132812,294.7609558105469
1700075348,0.95758056640625,0.1920318603515625,-0.355224609375,-0.1260964125394821,-0.5374277830123901,-0.500305712223053,92.64762878417967,-90.52947998046876,295.58709716796875
1700075348,0.9844207763671876,0.1962890625,-0.3438873291015625,-0.0981753021478653,-0.5400709509849548,-0.537825882434845,91.24298095703124,-90.4403839111328,296.3291015625
1700075348,0.9929046630859376,0.2075347900390625,-0.347747802734375,-0.0764375180006027,-0.532958447933197,-0.5816226601600647,90.3093719482422,-90.20333862304688,296.54266357421875
1700075348,0.9821014404296876,0.22259521484375,-0.3213348388671875,-0.0633440837264061,-0.5217830538749695,-0.6229599714279175,89.53175354003906,-89.93768310546875,297.21923828125
1700075348,0.97442626953125,0.2492523193359375,-0.313018798828125,-0.0515856966376304,-0.5096457004547119,-0.6754825711250305,88.52401733398438,-90.52522277832033,297.855712890625
1700075348,0.968353271484375,0.25982666015625,-0.3202667236328125,-0.0559386312961578,-0.5338218212127686,-0.7463181614875793,87.40226745605469,-90.74484252929688,298.72320556640625
1700075348,0.9639434814453124,0.2332305908203125,-0.319854736328125,-0.0631012022495269,-0.5316194295883179,-0.7772228121757507,86.64384460449219,-90.54548645019533,298.5874938964844
1700075348,0.953643798828125,0.182464599609375,-0.332122802734375,-0.082923911511898,-0.5385923385620117,-0.761145830154419,86.20257568359375,-90.87989807128906,299.4271240234375
1700075348,0.9333038330078124,0.12701416015625,-0.35321044921875,-0.1077831909060478,-0.5482473969459534,-0.7181594371795654,85.44061279296875,-90.6621551513672,299.0947265625
1700075348,0.922271728515625,0.0866546630859375,-0.35418701171875,-0.1597108393907547,-0.5413037538528442,-0.6705741286277771,84.8204345703125,-90.74528503417967,299.3187561035156
1700075348,0.923095703125,0.04986572265625,-0.3119964599609375,-0.171215683221817,-0.5039467811584473,-0.6227426528930664,84.50898742675781,-90.04949951171875,299.0671691894531
1700075348,0.9519195556640624,0.0124969482421875,-0.2806854248046875,-0.1219304352998733,-0.4934054613113403,-0.5663433074951172,84.44496154785156,-90.15512084960938,299.46246337890625
1700075348,0.9912261962890624,-0.01141357421875,-0.25762939453125,-0.0784950777888298,-0.478973239660263,-0.5011848211288452,84.32571411132812,-89.46571350097656,299.6290588378906
1700075348,1.0016632080078125,-0.0079345703125,-0.2674560546875,0.0238917507231235,-0.4568913877010345,-0.4508923292160034,84.65184020996094,-88.9759521484375,299.24560546875
1700075348,0.9644317626953124,0.0386962890625,-0.28192138671875,0.0809065699577331,-0.4439809024333954,-0.4033037722110748,85.00930786132812,-88.48576354980469,299.1396179199219
1700075348,0.9257965087890624,0.1242523193359375,-0.2610015869140625,0.1001825258135795,-0.4411374628543854,-0.4320443570613861,85.20198059082031,-87.93923950195312,298.8187866210937
1700075348,0.9151763916015624,0.1338653564453125,-0.230316162109375,0.2015624046325683,-0.3914037048816681,-0.4526220560073852,85.63594055175781,-87.92018127441406,299.3280029296875
1700075348,0.900390625,0.09576416015625,-0.23211669921875,0.3090678453445434,-0.3557213544845581,-0.4250535666942596,85.44070434570312,-88.347412109375,299.4248046875
1700075348,0.900115966796875,0.058929443359375,-0.2320404052734375,0.3373636603355407,-0.3389559686183929,-0.3668310046195984,85.90428161621094,-87.71272277832031,299.3109130859375
1700075348,0.9216461181640624,0.0360565185546875,-0.2293853759765625,0.2372756600379943,-0.3187676072120666,-0.2954529523849487,86.29255676269531,-86.82035827636719,298.8197631835937
1700075348,0.9192352294921876,0.0298919677734375,-0.218353271484375,0.0394137203693389,-0.2742211818695068,-0.2050753831863403,86.39250183105469,-87.08018493652344,298.8192749023437
1700075348,0.9080047607421876,0.00091552734375,-0.244140625,0.0180298667401075,-0.2537086904048919,-0.1647655069828033,86.93975830078125,-86.5341796875,298.697509765625
1700075349,0.9258880615234376,-0.1224365234375,-0.2033843994140625,0.0982948765158653,-0.2249694615602493,-0.0703420713543891,87.09510803222656,-86.39981079101562,298.70867919921875
1700075349,0.9302215576171876,-0.1807708740234375,-0.2000732421875,0.0931741520762443,-0.2121215760707855,0.0803936421871185,86.93539428710938,-86.10430908203125,298.5643310546875
1700075349,0.9212646484375,-0.1381072998046875,-0.2434234619140625,0.1295641213655471,-0.1785465776920318,0.1932554841041565,87.30731201171875,-85.64274597167969,298.4057922363281
1700075349,0.9550323486328124,-0.1175079345703125,-0.19622802734375,0.142498031258583,-0.124950461089611,0.2953831851482391,87.07080078125,-85.58848571777344,298.48590087890625
1700075349,0.987945556640625,-0.0943145751953125,-0.1533966064453125,0.1483529806137085,-0.0649209395051002,0.4081307649612427,87.627685546875,-85.43663024902344,298.41265869140625
1700075349,1.0057220458984375,-0.0889129638671875,-0.184356689453125,0.1797487288713455,-0.0644455701112747,0.5280553102493286,87.78465270996094,-85.58657836914062,298.51824951171875
1700075349,1.010894775390625,-0.0497894287109375,-0.24273681640625,0.1907949894666671,-0.1003343239426612,0.5934321880340576,87.90333557128906,-85.65650939941406,298.35528564453125
1700075349,1.0634918212890625,-0.0145263671875,-0.225433349609375,0.1436202824115753,-0.101652055978775,0.6227881908416748,88.03762817382812,-85.50726318359375,298.2679443359375
1700075349,1.0843963623046875,0.019195556640625,-0.2024688720703125,0.1798901408910751,-0.0884246677160263,0.6250439286231995,87.94288635253906,-85.17495727539062,298.1617736816406
1700075349,1.0874786376953125,0.023193359375,-0.22186279296875,0.3568726480007171,-0.1327569782733917,0.6525397300720215,88.08953857421875,-85.19134521484375,298.3969116210937
1700075349,1.10986328125,0.1038360595703125,-0.2587738037109375,0.4024100303649902,-0.2556916773319244,0.6372087001800537,88.06883239746094,-84.87274169921875,297.77520751953125
1700075349,1.192962646484375,0.207305908203125,-0.213623046875,0.385953813791275,-0.2898986637592315,0.5670344233512878,88.38632202148438,-84.78239440917969,297.88397216796875
1700075349,1.2602081298828125,0.25640869140625,-0.1384429931640625,0.4036779701709747,-0.2798968851566314,0.4692058265209198,88.37980651855469,-85.02182006835938,297.4480895996094
1700075349,1.2882537841796875,0.2182464599609375,-0.0845489501953125,0.426441341638565,-0.3041551113128662,0.4388162493705749,88.47454833984375,-84.89347839355469,297.3907470703125
1700075349,1.305389404296875,0.1717681884765625,-0.090240478515625,0.3905618786811828,-0.3409408032894134,0.4371179342269897,88.49075317382812,-85.30947875976562,297.363037109375
1700075349,1.347564697265625,0.1110382080078125,-0.119293212890625,0.320011556148529,-0.3958578407764435,0.4337993860244751,88.06802368164062,-85.29055786132812,297.4821472167969
1700075349,1.4206390380859375,0.0328826904296875,-0.1105804443359375,0.3180200457572937,-0.4083701968193054,0.430819571018219,88.60563659667969,-85.76292419433594,297.2831420898437
1700075349,1.4564056396484375,-0.0323486328125,-0.0958251953125,0.4361743927001953,-0.4233201146125793,0.4337471723556518,88.294189453125,-85.64595031738281,296.8669128417969
1700075349,1.4505462646484375,-0.06463623046875,-0.0685577392578125,0.5364000797271729,-0.4645391702651977,0.4375025033950805,88.34642028808594,-86.04826354980469,297.20166015625
1700075349,1.456329345703125,-0.089263916015625,-0.0013580322265625,0.5274912714958191,-0.4853730797767639,0.4777069091796875,88.1011962890625,-86.25253295898438,297.4662170410156
1700075349,1.449066162109375,-0.146087646484375,0.053436279296875,0.424730509519577,-0.5005203485488892,0.5795467495918274,88.09111022949219,-86.22157287597656,297.051513671875
1700075349,1.421661376953125,-0.2355804443359375,0.07904052734375,0.2508740425109863,-0.475799560546875,0.7046905159950256,88.11842346191406,-86.64010620117188,297.00555419921875
1700075349,1.3673553466796875,-0.3544921875,0.0690155029296875,0.1463193893432617,-0.4287590682506561,0.7890490889549255,88.17359924316406,-86.72439575195312,297.822021484375
1700075349,1.30621337890625,-0.484527587890625,0.0356903076171875,0.1022067964076995,-0.3900558948516845,0.8157832026481628,88.09246826171875,-87.22245788574219,296.5294189453125
1700075349,1.2835845947265625,-0.5730133056640625,-0.008941650390625,0.0325930975377559,-0.3162474334239959,0.8711228966712952,88.21180725097656,-87.66571044921875,296.36993408203125
1700075349,1.2733917236328125,-0.603363037109375,-0.1114654541015625,-0.3350357711315155,-0.0938074514269828,1.1376649141311646,88.40243530273438,-87.73225402832031,297.199462890625
1700075349,1.200714111328125,-0.4587554931640625,-0.4477386474609375,-1.036717414855957,0.1550090163946151,1.5703390836715698,87.88417053222656,-88.08297729492188,296.7160339355469
1700075349,1.062347412109375,-0.2308502197265625,-0.8575439453125,-1.8393199443817136,0.3474764823913574,1.945269465446472,87.75840759277344,-88.27052307128906,296.55682373046875
1700075349,1.0472869873046875,-0.135528564453125,-1.0750885009765625,-2.22437071800232,0.4721044301986694,2.2064812183380127,88.03700256347656,-89.00260925292969,296.00701904296875
1700075349,1.18853759765625,-0.0986328125,-1.057281494140625,-2.1412320137023926,0.5662663578987122,2.560168981552124,88.1693115234375,-89.30397033691406,295.5252990722656
1700075349,1.250640869140625,0.1058349609375,-0.936309814453125,-1.7586458921432495,0.6633678674697876,2.964877128601074,88.17485046386719,-89.28022766113281,295.72125244140625
1700075349,1.2516632080078125,0.3451690673828125,-0.73931884765625,-1.2860559225082395,0.6100351214408875,3.3337769508361816,87.79048156738281,-89.68714904785156,295.8536376953125
1700075349,1.2986297607421875,0.557159423828125,-0.463714599609375,-0.8539287447929382,0.6508065462112427,3.548205137252808,87.6917724609375,-90.06318664550781,296.27984619140625
1700075349,1.4010009765625,0.749481201171875,-0.3478240966796875,-0.3243264257907867,0.9919840693473816,3.617996454238892,87.75059509277344,-90.3084716796875,295.84625244140625
1700075349,1.53125,0.9416046142578124,-0.44598388671875,0.022913571447134,1.071128487586975,3.468734741210937,87.20903015136719,-90.30140686035156,296.0208740234375
1700075349,1.678192138671875,1.106292724609375,-0.43817138671875,0.035934031009674,1.101415991783142,2.999130249023437,87.25920104980469,-90.63127136230467,295.990478515625
1700075349,1.802734375,1.0721588134765625,-0.4511566162109375,0.5183448791503906,1.2532795667648315,2.496009826660156,86.95498657226562,-90.65972900390624,296.61248779296875
1700075349,1.737548828125,0.7039337158203125,-0.405731201171875,1.1120237112045288,1.4198824167251587,2.1952250003814697,86.97259521484375,-90.81535339355467,296.28143310546875
1700075349,1.5066680908203125,0.389373779296875,-0.406585693359375,1.2514673471450806,1.4425126314163208,2.0910723209381104,87.22651672363281,-91.2343292236328,296.04949951171875
1700075349,1.3457183837890625,0.2993621826171875,-0.5229644775390625,1.053508996963501,1.3519645929336548,2.130244255065918,86.79988098144531,-91.37193298339844,295.6976623535156
1700075349,1.2407989501953125,0.2447052001953125,-0.582916259765625,0.687775194644928,1.219841480255127,2.1515140533447266,86.63058471679688,-91.20977783203124,296.0865478515625
1700075349,1.20404052734375,0.166717529296875,-0.566070556640625,0.311342716217041,1.103262186050415,2.056270360946656,86.51742553710938,-91.53277587890624,296.03570556640625
1700075349,1.20379638671875,0.0577850341796875,-0.4866943359375,-0.0157768316566944,1.051127552986145,1.867050290107727,86.52706909179688,-91.48797607421876,296.35595703125
1700075349,1.1602935791015625,-0.0066070556640625,-0.3849945068359375,-0.2938153743743896,1.0608885288238523,1.649180889129639,86.46331787109375,-91.8465576171875,295.8895263671875
1700075349,1.048065185546875,-0.0015106201171875,-0.328765869140625,-0.530279815196991,1.0593260526657104,1.3999409675598145,86.34127807617188,-91.88172912597656,295.7724304199219
1700075349,0.9190521240234376,0.00970458984375,-0.288543701171875,-0.7163503766059875,0.9825514554977416,1.1156607866287231,86.57867431640625,-92.32112121582033,296.28045654296875
1700075349,0.8128662109375,0.027130126953125,-0.2319183349609375,-0.8341071009635925,0.869033694267273,0.8341760635375977,86.65884399414062,-92.28146362304688,296.1240234375
1700075349,0.705596923828125,0.049041748046875,-0.1912994384765625,-0.8591176271438599,0.7736903429031372,0.5493425130844116,86.33232116699219,-91.97346496582033,295.5244140625
1700075349,0.5793304443359375,0.0623016357421875,-0.164703369140625,-0.8564488887786865,0.7299253344535828,0.2175711989402771,86.78521728515625,-91.6663055419922,295.6905517578125
1700075349,0.447723388671875,0.02203369140625,-0.1441802978515625,-0.8980171084403992,0.70830899477005,-0.1266780495643615,86.95085144042969,-91.59727478027344,296.1646728515625
1700075349,0.3434906005859375,-0.0597381591796875,-0.1287078857421875,-0.9590479731559752,0.6506038308143616,-0.3951542377471924,86.93130493164062,-91.5834503173828,295.91864013671875
1700075349,0.2699432373046875,-0.1036376953125,-0.1591339111328125,-0.9848172664642334,0.5548834800720215,-0.5709527134895325,87.02676391601562,-91.74362182617188,296.3236999511719
1700075349,0.230560302734375,-0.1043701171875,-0.1695098876953125,-0.9807556867599488,0.4447755813598633,-0.7200159430503845,87.01033020019531,-91.74659729003906,296.0179138183594
1700075349,0.2359466552734375,-0.09979248046875,-0.153717041015625,-1.0157266855239868,0.3402997851371765,-0.954300343990326,87.05747985839844,-91.56765747070312,295.9748229980469
1700075349,0.251708984375,-0.0701141357421875,-0.161163330078125,-1.0776902437210083,0.2713367044925689,-1.2002662420272827,87.41120910644531,-91.35264587402344,296.111572265625
1700075349,0.22943115234375,-0.0358123779296875,-0.1868743896484375,-1.134278416633606,0.2066314667463302,-1.4401928186416626,87.42698669433594,-91.1377410888672,295.4150085449219
1700075349,0.18829345703125,-0.0366363525390625,-0.190032958984375,-1.1849533319473269,0.1108945608139038,-1.674191951751709,87.54655456542969,-90.89801025390624,295.3140869140625
1700075349,0.160247802734375,-0.0369873046875,-0.1995086669921875,-1.2056034803390503,0.033453032374382,-1.8655173778533936,87.89910888671875,-90.71629333496094,295.831787109375
1700075349,0.131134033203125,-0.0241241455078125,-0.1992950439453125,-1.1912274360656738,-0.027967719361186,-2.0570836067199707,88.36534118652344,-90.6321258544922,295.50750732421875
1700075349,0.1281890869140625,-0.04071044921875,-0.181243896484375,-1.1587152481079102,-0.101880557835102,-2.228440761566162,87.9935302734375,-90.64060974121094,295.5321044921875
1700075349,0.131256103515625,-0.011260986328125,-0.1640472412109375,-1.0979909896850586,-0.1816017478704452,-2.383754253387451,88.08926391601562,-90.07838439941406,295.9818725585937
1700075349,0.1119842529296875,0.0769805908203125,-0.189208984375,-0.9691032767295836,-0.2625716924667358,-2.559823989868164,88.53666687011719,-90.0817413330078,295.6048583984375
1700075349,0.124053955078125,0.17889404296875,-0.2028045654296875,-0.7700719237327576,-0.3194272518157959,-2.728050947189331,88.3963623046875,-90.15202331542967,295.025390625
1700075349,0.1515655517578125,0.272735595703125,-0.1987457275390625,-0.5686341524124146,-0.3384776413440704,-2.8123412132263184,88.67034912109375,-89.61351013183594,295.24853515625
1700075349,0.18060302734375,0.3599090576171875,-0.1766357421875,-0.4119193851947784,-0.3383879065513611,-2.7887837886810303,88.95445251464844,-89.2330322265625,295.3033447265625
1700075349,0.1959381103515625,0.4722137451171875,-0.2123260498046875,-0.3022823631763458,-0.3634000420570373,-2.715096950531006,89.18435668945312,-88.87847900390625,295.7505798339844
1700075349,0.2162628173828125,0.62158203125,-0.3089599609375,-0.1197602227330207,-0.4155985414981842,-2.576439142227173,89.60345458984375,-87.95207214355469,295.6229248046875
1700075349,0.272186279296875,0.7920379638671875,-0.358795166015625,0.0587983354926109,-0.4217728078365326,-2.346895933151245,89.49215698242188,-87.79129028320312,295.2846984863281
1700075349,0.312225341796875,0.9801025390625,-0.39434814453125,0.2465384006500244,-0.3865282535552978,-2.1202621459960938,90.2647705078125,-87.02806091308594,295.4437255859375
1700075349,0.33349609375,1.10931396484375,-0.4871063232421875,0.3776738047599792,-0.3191971778869629,-1.857046723365784,90.57356262207033,-86.16459655761719,295.53326416015625
1700075349,0.343902587890625,1.2011871337890625,-0.5997314453125,0.4959271848201751,-0.3538494110107422,-1.486494541168213,91.13339233398438,-84.84013366699219,295.3239440917969
1700075349,0.35198974609375,1.4119720458984375,-0.588623046875,0.7025371193885803,-0.3287701606750488,-1.1952255964279177,91.75009155273438,-82.54817199707031,295.74322509765625
1700075349,0.3932342529296875,1.5182342529296875,-0.58233642578125,0.8763294219970703,-0.2770843207836151,-0.895112156867981,92.3150634765625,-80.70820617675781,295.46551513671875
1700075349,0.3393707275390625,1.640350341796875,-0.5856170654296875,1.1209404468536377,-0.2032404690980911,-0.7199727892875671,92.71585083007812,-79.17778015136719,295.3706359863281
1700075349,0.3522491455078125,1.5612030029296875,-0.5179595947265625,1.3579423427581787,-0.1534433513879776,-0.5114110708236694,93.45166015625,-77.30574035644531,295.6488647460937
1700075349,0.3349761962890625,1.3556671142578125,-0.4738922119140625,1.437180757522583,-0.1224910244345665,-0.2748006582260132,93.61676025390624,-75.67144775390625,295.0155639648437
1700075349,0.270965576171875,1.1822052001953125,-0.460723876953125,1.0416549444198608,0.2309900671243667,-0.3501300513744354,94.32278442382812,-73.97428894042969,294.8212890625
1700075349,0.267059326171875,0.887481689453125,-0.7886199951171875,0.520489513874054,0.3492099344730377,-0.3315480947494507,94.7366180419922,-72.38023376464844,294.5640869140625
1700075349,0.2774200439453125,0.6837310791015625,-1.04498291015625,0.0518544092774391,0.0098449075594544,-0.1352875232696533,95.26573181152344,-70.974365234375,294.0696716308594
1700075349,0.86065673828125,0.592437744140625,-0.622772216796875,-0.1529858261346817,-0.331635981798172,-0.1928626596927642,95.5426025390625,-69.36711120605469,293.7548217773437
1700075349,1.6601715087890625,0.318756103515625,-0.1458587646484375,-0.3094944655895233,-0.3135121166706085,-0.1411616504192352,95.654296875,-68.58119201660156,293.720458984375
1700075349,1.680755615234375,0.1304931640625,-0.03558349609375,-0.2555153965950012,-0.2475474774837494,0.3462170660495758,96.41189575195312,-67.34323120117188,293.62713623046875
1700075349,1.146942138671875,0.2351837158203125,-0.1942138671875,0.1578479558229446,-0.3123714923858642,0.7338446974754333,96.55160522460938,-65.93821716308594,292.9179077148437
1700075349,1.429351806640625,0.4305419921875,-0.250335693359375,-0.2589399516582489,-0.5210295915603638,0.7142670154571533,96.79466247558594,-64.87771606445312,293.51300048828125
1700075349,2.353729248046875,0.6201629638671875,-0.082305908203125,-0.7009884715080261,-0.4738352000713348,0.6048094630241394,96.69412231445312,-63.23406982421875,292.58331298828125
1700075349,2.31646728515625,0.49639892578125,-0.0106048583984375,-0.676489531993866,-0.3309741914272308,0.563155472278595,96.79884338378906,-61.83555603027344,293.3790283203125
1700075349,1.16357421875,0.30499267578125,-0.378814697265625,-0.5135560035705566,-0.2813296914100647,0.4690212905406952,96.79103088378906,-60.630462646484375,293.4369201660156
1700075349,0.4756317138671875,0.204986572265625,-0.6712646484375,-0.3072430193424225,-0.3171816766262054,0.3513263463973999,96.72877502441406,-59.2703857421875,293.9750366210937
1700075349,0.3342132568359375,0.329681396484375,-0.6075286865234375,-0.2044532746076584,-0.2409103512763977,0.0808370560407638,96.11515808105467,-57.70750427246094,293.0284729003906
1700075349,0.4592132568359375,0.491302490234375,-0.44012451171875,-0.178403303027153,-0.1578391641378402,-0.2614888548851013,95.74504089355467,-56.24501037597656,293.3463134765625
1700075349,0.7747039794921875,0.5670928955078125,-0.2735137939453125,-0.1736655384302139,-0.1349791288375854,-0.4443558752536773,95.80601501464844,-55.01837158203125,293.6649780273437
1700075349,1.0665740966796875,0.5291595458984375,-0.2227630615234375,-0.1787353903055191,-0.1272897720336914,-0.5147056579589844,95.4155731201172,-53.78120422363281,293.73895263671875
1700075349,1.1512908935546875,0.3505706787109375,-0.346832275390625,-0.1763987392187118,-0.1262777745723724,-0.4994329810142517,95.28160095214844,-52.44635009765625,293.5800476074219
1700075349,1.013275146484375,0.1488800048828125,-0.4734039306640625,-0.1833815425634384,-0.1679863482713699,-0.4217179417610168,95.0182647705078,-51.70973205566406,293.216796875
1700075349,0.879486083984375,0.0660858154296875,-0.533843994140625,-0.1332848221063614,-0.2270880043506622,-0.35976642370224,94.75257873535156,-50.45814514160156,293.1900634765625
1700075349,0.9219207763671876,0.103118896484375,-0.4955291748046875,-0.0922348573803901,-0.2704701125621795,-0.3513463139533996,94.52442932128906,-49.83445739746094,293.0
1700075349,0.9952850341796876,0.2216339111328125,-0.4354705810546875,-0.0656599700450897,-0.3024991452693939,-0.4089193344116211,94.291259765625,-48.82029724121094,292.69580078125
1700075349,1.0327301025390625,0.30108642578125,-0.4037322998046875,-0.0543902702629566,-0.3424707949161529,-0.4899473488330841,94.02587890625,-47.60011291503906,292.41363525390625
1700075349,1.025146484375,0.3148193359375,-0.422637939453125,-0.0554629936814308,-0.4003700613975525,-0.5570664405822754,93.76206970214844,-47.3377685546875,292.3348388671875
1700075349,0.9874267578125,0.287689208984375,-0.4410400390625,-0.0449448376893997,-0.4457793533802032,-0.5899215936660767,93.611572265625,-47.1697998046875,291.4799194335937
1700075350,0.9409027099609376,0.2327880859375,-0.4454345703125,0.011860653758049,-0.469155490398407,-0.5861228704452515,93.6090850830078,-46.89082336425781,291.5267944335937
1700075350,0.89556884765625,0.180572509765625,-0.4292144775390625,0.0589863546192646,-0.4922112822532654,-0.5638899803161621,93.40858459472656,-46.95497131347656,291.1336669921875
1700075350,0.8875885009765625,0.1572418212890625,-0.404022216796875,0.0905658528208732,-0.5052104592323303,-0.5305546522140503,93.14547729492188,-46.59107971191406,291.66259765625
1700075350,0.9046783447265624,0.158477783203125,-0.394775390625,0.0867106616497039,-0.5206812620162964,-0.5156878232955933,93.52268981933594,-46.79515075683594,291.2763061523437
1700075350,0.9298553466796876,0.16400146484375,-0.384521484375,0.0430281609296798,-0.5312314033508301,-0.5090307593345642,93.48985290527344,-46.81950378417969,291.2620849609375
1700075350,0.966278076171875,0.1829681396484375,-0.385589599609375,0.0025648903101682,-0.541624903678894,-0.5136933922767639,93.84030151367188,-47.41665649414063,291.0008544921875
1700075350,0.9994049072265624,0.1929473876953125,-0.3636322021484375,-0.0116635803133249,-0.5299807786941528,-0.5476322174072266,94.56846618652344,-47.85052490234375,291.45269775390625
1700075350,1.008514404296875,0.1827545166015625,-0.3427886962890625,0.0369207337498664,-0.5118188261985779,-0.5713809132575989,94.52320861816406,-47.85592651367188,290.8048095703125
1700075350,0.9853515625,0.18701171875,-0.3296661376953125,0.0657156333327293,-0.5127434730529785,-0.5727964043617249,94.95863342285156,-48.418365478515625,290.1999206542969
1700075350,0.9517059326171876,0.2109832763671875,-0.312164306640625,0.029473204165697,-0.510322093963623,-0.5993968844413757,94.72784423828124,-49.102874755859375,290.0571594238281
1700075350,0.9281768798828124,0.2244110107421875,-0.3404693603515625,-0.0044802357442677,-0.5097103714942932,-0.6595286726951599,95.01222229003906,-49.597198486328125,289.8689270019531
1700075350,0.914306640625,0.212188720703125,-0.368804931640625,-0.0384485907852649,-0.5268656611442566,-0.7041839957237244,95.82850646972656,-49.9010009765625,289.8346252441406
1700075350,0.91400146484375,0.1902008056640625,-0.3567657470703125,-0.0467398092150688,-0.5352165699005127,-0.7037642598152161,95.77833557128906,-50.26988220214844,288.67724609375
1700075350,0.9371185302734376,0.1513214111328125,-0.332427978515625,-0.0209558811038732,-0.5178064107894897,-0.680527925491333,95.88999938964844,-50.861358642578125,288.0860595703125
1700075350,0.9456024169921876,0.1078338623046875,-0.327850341796875,0.0141712129116058,-0.5185734033584595,-0.6493857502937317,96.2975616455078,-50.97802734375,288.2059020996094
1700075350,0.9432373046875,0.0810546875,-0.3209381103515625,0.0664546564221382,-0.4994348585605621,-0.6057719588279724,96.654052734375,-51.60627746582031,288.1231384277344
1700075350,0.967376708984375,0.0800323486328125,-0.288970947265625,0.1416285037994384,-0.4728972315788269,-0.5904736518859863,96.6566925048828,-52.048858642578125,288.0931701660156
1700075350,0.997650146484375,0.052459716796875,-0.2383575439453125,0.192898616194725,-0.4344856739044189,-0.5481661558151245,96.8947296142578,-52.42008972167969,287.1263732910156
1700075350,1.0184783935546875,0.0277862548828125,-0.263885498046875,0.2738893330097198,-0.4182723462581634,-0.4843115508556366,97.03909301757812,-53.22311401367188,287.5390625
1700075350,1.0219573974609375,0.036376953125,-0.311676025390625,0.3390904366970062,-0.4374569654464721,-0.4489309191703796,97.23504638671876,-53.395782470703125,286.9149475097656
1700075350,1.0206756591796875,0.052520751953125,-0.2896270751953125,0.3271624147891998,-0.4269276261329651,-0.4270714223384857,97.4246826171875,-54.02926635742188,287.7743530273437
1700075350,0.9978485107421876,0.0938873291015625,-0.267547607421875,0.4008970856666565,-0.4041229784488678,-0.444786787033081,97.43635559082033,-54.493194580078125,287.6405639648437
1700075350,0.9338226318359376,0.1031951904296875,-0.229644775390625,0.4727856516838074,-0.3750260770320892,-0.4380311369895935,97.25942993164062,-54.795989990234375,287.55108642578125
1700075350,0.8905029296875,0.08868408203125,-0.22088623046875,0.4214556217193603,-0.3442689478397369,-0.3385969698429107,97.06996154785156,-54.99090576171875,287.87872314453125
1700075350,0.8716888427734375,0.075225830078125,-0.2515869140625,0.4018065631389618,-0.3493476212024688,-0.2688365280628204,96.89158630371094,-54.36286926269531,287.7142639160156
1700075350,0.8779449462890625,-0.0033721923828125,-0.2525177001953125,0.345305472612381,-0.3472532927989959,-0.215648666024208,96.57778930664062,-53.75260925292969,288.18896484375
1700075350,0.8888397216796875,-0.0696868896484375,-0.2859954833984375,0.2755117416381836,-0.3458900153636932,-0.1607649177312851,96.31544494628906,-53.75225830078125,288.67828369140625
1700075350,0.8801116943359375,-0.09173583984375,-0.2777557373046875,0.2704187035560608,-0.3095573186874389,-0.0897274911403656,96.15022277832033,-53.60139465332031,288.4809875488281
1700075350,0.8874053955078125,-0.07476806640625,-0.23388671875,0.2334526926279068,-0.2708131074905395,-0.0029332055710256,95.30918884277344,-52.85806274414063,288.20782470703125
1700075350,0.9133758544921876,-0.026092529296875,-0.2208099365234375,0.2343102395534515,-0.2432701736688614,0.0698517858982086,95.68453979492188,-53.12040710449219,288.4916381835937
1700075350,0.962860107421875,-0.0209197998046875,-0.2214202880859375,0.2954595983028412,-0.2294371873140335,0.1423827111721038,95.47232055664062,-52.87504577636719,288.460205078125
1700075350,1.0078887939453125,-0.036376953125,-0.1954345703125,0.2434848248958587,-0.2071670293807983,0.2320018112659454,95.26751708984376,-52.61952209472656,289.46923828125
1700075350,1.051605224609375,-0.0558929443359375,-0.179046630859375,0.173753410577774,-0.1919728964567184,0.3386422395706177,95.19549560546876,-52.57844543457031,289.51275634765625
1700075350,1.0572967529296875,-0.04876708984375,-0.23236083984375,0.216154932975769,-0.2286265194416046,0.3971345722675323,95.3542938232422,-52.827423095703125,289.5775756835937
1700075350,1.0900115966796875,-0.02667236328125,-0.2077484130859375,0.1875818818807602,-0.2655528485774994,0.475386768579483,95.17355346679688,-52.88331604003906,289.4767150878906
1700075350,1.153778076171875,0.0604400634765625,-0.140106201171875,0.1431451737880706,-0.2428360879421234,0.5013283491134644,95.28573608398438,-52.77195739746094,289.1656799316406
1700075350,1.1998291015625,0.0725555419921875,-0.0861053466796875,0.2231859415769577,-0.180415853857994,0.5234366059303284,95.021728515625,-52.77757263183594,289.5107421875
1700075350,1.213623046875,0.0007781982421875,-0.126251220703125,0.2847616970539093,-0.2331006228923797,0.5760529041290283,95.07536315917967,-52.87823486328125,288.9647827148437
1700075350,1.2663726806640625,-0.0212860107421875,-0.1697235107421875,0.2935027182102203,-0.2623815536499023,0.6325292587280273,95.03680419921876,-52.76744079589844,289.7215270996094
1700075350,1.350494384765625,-0.06011962890625,-0.1135101318359375,0.267299085855484,-0.2735785543918609,0.7045307159423828,95.0957489013672,-52.750274658203125,289.59002685546875
1700075350,1.38031005859375,-0.0730133056640625,-0.1079559326171875,0.2715572118759155,-0.3043175637722015,0.744111180305481,95.12287902832033,-52.94737243652344,289.6527709960937
1700075350,1.4274749755859375,-0.070587158203125,-0.105712890625,0.4016302525997162,-0.3203290104866028,0.758451521396637,95.09906005859376,-53.31341552734375,289.19287109375
1700075350,1.4556732177734375,-0.08746337890625,-0.04376220703125,0.5717604160308838,-0.3184549510478973,0.7705486416816711,94.9814910888672,-53.39080810546875,290.0013427734375
1700075350,1.456451416015625,-0.1171112060546875,0.02618408203125,0.694500744342804,-0.3176155090332031,0.8258129358291626,95.00482177734376,-53.57731628417969,289.29998779296875
1700075350,1.46142578125,-0.155517578125,0.075347900390625,0.6586034893989563,-0.3565975427627563,0.9114964604377748,94.89561462402344,-53.634521484375,289.860107421875
1700075350,1.457489013671875,-0.1960906982421875,0.106781005859375,0.5628631114959717,-0.3277179598808288,0.9988057613372804,94.57168579101562,-53.35459899902344,289.95733642578125
1700075350,1.4246673583984375,-0.3063812255859375,0.1162872314453125,0.4471085369586944,-0.2582459151744842,1.0750033855438232,94.80027770996094,-53.70620727539063,290.134521484375
1700075350,1.3634185791015625,-0.4172821044921875,0.0878753662109375,0.3352800011634826,-0.2045973539352417,1.1119563579559326,94.71261596679688,-53.852569580078125,290.74774169921875
1700075350,1.307952880859375,-0.49273681640625,0.0233612060546875,0.2663216888904571,-0.146534577012062,1.0984634160995483,94.42855834960938,-54.08071899414063,291.0489501953125
1700075350,1.29327392578125,-0.53936767578125,-0.083251953125,0.1371336132287979,-0.0722472965717315,1.1774554252624512,94.63775634765624,-54.44346618652344,291.0741577148437
1700075350,1.2433013916015625,-0.46185302734375,-0.2899627685546875,-0.235097199678421,0.0687007680535316,1.4007925987243652,94.8078155517578,-54.49609375,290.6298217773437
1700075350,1.1284027099609375,-0.2561187744140625,-0.6497802734375,-0.8291999697685242,0.2335882484912872,1.7016481161117554,94.6805419921875,-54.43922424316406,291.859375
1700075350,1.078094482421875,-0.0670928955078125,-0.979705810546875,-1.3177443742752075,0.3462623357772827,1.8599591255187988,94.435546875,-54.84243774414063,291.78790283203125
1700075350,1.148834228515625,-0.004638671875,-1.06365966796875,-1.443098545074463,0.3538858890533447,1.9167888164520264,94.53070068359376,-55.17887878417969,291.9574584960937
1700075350,1.223052978515625,0.052978515625,-0.90814208984375,-1.3995018005371094,0.3491050004959106,2.0640676021575928,94.609375,-55.33116149902344,291.6630859375
1700075350,1.1681060791015625,0.211700439453125,-0.6769561767578125,-1.1528337001800537,0.6038874983787537,2.2700746059417725,94.63978576660156,-55.55026245117188,291.9866943359375
1700075350,1.1034088134765625,0.350006103515625,-0.600860595703125,-0.6018837094306946,0.8909189701080322,2.511218786239624,94.3612823486328,-55.92668151855469,292.4643249511719
1700075350,1.147186279296875,0.4814300537109375,-0.5395050048828125,0.0703418105840683,1.0277260541915894,2.7059924602508545,94.21006774902344,-56.13752746582031,293.0494384765625
1700075350,1.278045654296875,0.6284332275390625,-0.4593505859375,0.5611408352851868,1.156674027442932,2.9067153930664062,94.12319946289062,-56.30354309082031,292.71600341796875
1700075350,1.3808441162109375,0.823577880859375,-0.532440185546875,0.6223354935646057,1.148910641670227,2.994614839553833,94.03669738769533,-56.761810302734375,292.5795288085937
1700075350,1.478607177734375,0.99578857421875,-0.599517822265625,0.4783734977245331,1.0873297452926636,2.8910458087921143,93.85333251953124,-56.9471435546875,292.8539428710937
1700075350,1.613311767578125,1.0975494384765625,-0.4832305908203125,0.7351882457733154,1.2565786838531494,2.552313327789306,93.91561889648438,-57.26115417480469,293.1600036621094
1700075350,1.71600341796875,0.991424560546875,-0.4043426513671875,1.3281946182250977,1.3953787088394165,2.147196054458618,94.03860473632812,-57.158294677734375,293.1679382324219
1700075350,1.6671600341796875,0.667724609375,-0.3619537353515625,1.52279794216156,1.3973497152328491,1.8789764642715447,94.02317810058594,-57.13920593261719,293.96099853515625
1700075350,1.5308837890625,0.44818115234375,-0.43328857421875,1.3049699068069458,1.276557207107544,1.823390007019043,93.8242645263672,-57.38240051269531,294.1634826660156
1700075350,1.3656768798828125,0.35137939453125,-0.4865264892578125,0.9906290769577026,1.1914900541305542,1.9511237144470213,94.06819152832033,-57.40475463867188,293.6810913085937
1700075350,1.219696044921875,0.2980194091796875,-0.5122833251953125,0.6408670544624329,1.1871378421783447,2.1249210834503174,94.16355895996094,-58.23612976074219,294.47613525390625
1700075350,1.0815887451171875,0.2720184326171875,-0.5667724609375,0.2452185451984405,1.192593336105347,2.133274793624878,93.61300659179688,-58.04054260253906,294.7322998046875
1700075350,1.01263427734375,0.23175048828125,-0.5879364013671875,-0.1640270203351974,1.1290407180786133,1.8687121868133545,93.83563232421876,-58.13882446289063,294.0460510253906
1700075350,1.022857666015625,0.185394287109375,-0.50103759765625,-0.4945990741252899,1.0049216747283936,1.5708671808242798,93.66514587402344,-58.23033142089844,294.6214904785156
1700075350,1.0037841796875,0.1783599853515625,-0.333343505859375,-0.7150723338127136,0.9667389392852784,1.2993168830871582,93.5406494140625,-58.5240478515625,294.54766845703125
1700075350,0.903656005859375,0.153289794921875,-0.2044219970703125,-0.8590920567512512,0.9540058374404908,1.0216163396835327,93.65713500976562,-58.40089416503906,294.4031066894531
1700075350,0.75201416015625,0.0958099365234375,-0.1389007568359375,-1.024889588356018,0.8873058557510376,0.750461757183075,93.61190795898438,-58.47160339355469,294.9798278808594
1700075350,0.5667266845703125,0.035797119140625,-0.140899658203125,-1.1556435823440552,0.7917956113815308,0.4394801557064056,93.3188934326172,-58.553802490234375,294.3737487792969
1700075350,0.407745361328125,-0.071563720703125,-0.139495849609375,-1.213794231414795,0.7119388580322266,0.1796523183584213,93.57150268554688,-58.50105285644531,294.8123779296875
1700075350,0.291595458984375,-0.1472625732421875,-0.1104736328125,-1.2311649322509766,0.6190560460090637,0.0107565075159072,93.11300659179688,-58.35456848144531,295.2318725585937
1700075350,0.222198486328125,-0.1642608642578125,-0.0935821533203125,-1.1840829849243164,0.4915127456188202,-0.1581989526748657,93.30842590332033,-58.255218505859375,294.997314453125
1700075350,0.2210540771484375,-0.161895751953125,-0.0791168212890625,-1.145583987236023,0.3813247084617615,-0.431528240442276,93.30313110351562,-58.34407043457031,295.046142578125
1700075350,0.2606201171875,-0.1679534912109375,-0.07354736328125,-1.1159111261367798,0.277310699224472,-0.7494910359382629,92.80007934570312,-58.263458251953125,294.7882080078125
1700075350,0.2603759765625,-0.1417694091796875,-0.074798583984375,-1.070616602897644,0.1812619268894195,-1.0758914947509766,92.81907653808594,-57.618438720703125,295.2050170898437
1700075350,0.20758056640625,-0.131927490234375,-0.0673675537109375,-0.9625564217567444,0.0989212542772293,-1.363220453262329,92.42343139648438,-57.62693786621094,294.85516357421875
1700075350,0.1406097412109375,-0.1326751708984375,-0.072967529296875,-0.7650425434112549,-0.010054231621325,-1.5970841646194458,92.8575439453125,-57.79779052734375,294.978271484375
1700075350,0.0771942138671875,-0.1121063232421875,-0.053680419921875,-0.6508051753044128,-0.083995833992958,-1.9183002710342407,92.46955871582033,-57.53033447265625,295.3541259765625
1700075350,0.08721923828125,-0.0948333740234375,-0.0869140625,-0.537823498249054,-0.1445795595645904,-2.248002767562866,92.5088348388672,-57.54826354980469,295.3014221191406
1700075350,0.0927276611328125,-0.1027069091796875,-0.099029541015625,-0.4419289529323578,-0.192902609705925,-2.508744955062866,92.25227355957033,-57.58741760253906,295.27764892578125
1700075350,0.0806121826171875,-0.09503173828125,-0.0851593017578125,-0.4720335900783539,-0.244135707616806,-2.746669054031372,92.52058410644533,-57.51560974121094,295.8200378417969
1700075350,0.083099365234375,-0.0692596435546875,-0.117645263671875,-0.6659026741981506,-0.3148847222328186,-3.000294685363769,91.77191162109376,-57.3759765625,295.870361328125
1700075350,0.1218109130859375,-0.0447845458984375,-0.1712188720703125,-0.8130872845649719,-0.3785931169986725,-3.1405179500579834,92.07600402832033,-57.17076110839844,296.3634033203125
1700075350,0.1522674560546875,0.0475921630859375,-0.18157958984375,-0.8449618816375732,-0.3515007793903351,-3.108637571334839,91.81764221191406,-57.3255615234375,296.237060546875
1700075350,0.1972503662109375,0.1960296630859375,-0.148681640625,-0.97789865732193,-0.3416619896888733,-3.050943851470948,91.52235412597656,-57.27099609375,296.46197509765625
1700075350,0.222259521484375,0.3662872314453125,-0.2431640625,-0.9775002002716064,-0.415389209985733,-2.9933879375457764,91.5305633544922,-57.04855346679688,296.51708984375
1700075350,0.249786376953125,0.5703277587890625,-0.3478851318359375,-0.8506887555122375,-0.4661213755607605,-2.872921228408813,90.97268676757812,-56.93052673339844,296.84832763671875
1700075350,0.3039093017578125,0.74847412109375,-0.3612213134765625,-0.5578704476356506,-0.4684548377990722,-2.696800947189331,90.95648193359376,-56.79063415527344,297.3875732421875
1700075350,0.339630126953125,0.94976806640625,-0.4315643310546875,-0.1908498406410217,-0.4210186004638672,-2.453686475753784,91.0365753173828,-56.56291198730469,296.8914489746094
1700075350,0.3670806884765625,1.173828125,-0.59326171875,0.0975451990962028,-0.3389064073562622,-2.176114082336426,90.631103515625,-56.43464660644531,296.9435119628906
1700075350,0.4201202392578125,1.376129150390625,-0.7385101318359375,0.4344995319843292,-0.2440661936998367,-1.9165889024734497,90.59315490722656,-56.08970642089844,297.30889892578125
1700075350,0.4761810302734375,1.5136260986328125,-0.7823638916015625,0.7123782634735107,-0.2012196630239486,-1.5119132995605469,90.32078552246094,-55.507171630859375,297.4381103515625
1700075350,0.4658660888671875,1.7156982421875,-0.73095703125,1.089005470275879,-0.0769355297088623,-1.2331721782684326,90.1369171142578,-54.4398193359375,296.7135009765625
1700075350,0.4886322021484375,1.7201080322265625,-0.6814727783203125,0.9852689504623412,0.4626787006855011,-1.17522931098938,90.34197998046876,-53.165863037109375,295.80572509765625
1700075351,0.5166778564453125,1.606719970703125,-1.0691070556640625,1.469530463218689,0.6512430310249329,-0.6891406178474426,89.77925109863281,-51.62251281738281,295.4407653808594
1700075351,0.3339691162109375,1.7311553955078125,-1.2557830810546875,1.7738871574401855,0.2237774282693863,-0.3169313371181488,89.58702087402344,-50.49234008789063,294.75079345703125
1700075351,0.7413482666015625,1.8108673095703125,-0.7927093505859375,0.7849528789520264,-0.3243727385997772,-0.4127329885959625,89.07090759277344,-48.784271240234375,293.241943359375
1700075351,1.6250457763671875,1.32855224609375,0.072265625,0.3193668127059936,-0.6064742207527161,-0.339069664478302,88.5048828125,-47.74879455566406,292.5833740234375
1700075351,1.6587371826171875,0.7943115234375,0.8422393798828125,0.0167904309928417,-0.4801516830921173,0.0126518793404102,87.859375,-46.13751220703125,291.96978759765625
1700075351,1.21533203125,0.30859375,0.51776123046875,-0.7026963829994202,-0.4351506531238556,0.3624849915504455,87.51506042480469,-45.264556884765625,291.63604736328125
1700075351,1.0597686767578125,0.2051544189453125,-0.415679931640625,-0.8999870419502258,-0.2953813076019287,0.4733502566814422,86.76504516601562,-44.07377624511719,290.9917907714844
1700075351,1.3685302734375,0.0490875244140625,-1.0068359375,-0.561809778213501,-0.5297775864601135,0.2433705776929855,86.28448486328125,-43.42584228515625,291.14581298828125
1700075351,1.6802978515625,-0.21636962890625,-0.9182586669921876,-0.2010460197925567,-0.5732272863388062,0.4386372864246368,86.3294677734375,-42.94297790527344,290.7607727050781
1700075351,1.1721954345703125,-0.325103759765625,-0.63671875,0.3230315744876861,-0.2519241273403168,0.8120896816253662,86.14445495605469,-42.38468933105469,289.9674072265625
1700075351,0.556549072265625,-0.076202392578125,-0.28564453125,0.3218126595020294,-0.1928552091121673,0.818453848361969,85.95341491699219,-42.32087707519531,290.29327392578125
1700075351,0.6272125244140625,0.619415283203125,-0.033355712890625,-0.1966526061296463,-0.1110455617308616,0.3520938754081726,85.74642944335938,-41.892181396484375,289.775146484375
1700075351,0.846099853515625,0.9936065673828124,-0.117156982421875,-0.2398810386657714,-0.0257596913725137,-0.2227595746517181,85.73915100097656,-41.48512268066406,289.59765625
1700075351,1.001312255859375,0.848388671875,-0.3144073486328125,-0.117164708673954,-0.0062690810300409,-0.4557930827140808,85.43984985351562,-41.29876708984375,288.6879272460937
1700075351,1.03253173828125,0.4568634033203125,-0.4044189453125,0.0189529191702604,-0.0078930770978331,-0.3786133527755737,85.19569396972656,-40.611328125,289.0517578125
1700075351,0.9420166015625,0.1197357177734375,-0.417144775390625,0.1868311315774917,0.0261173546314239,-0.1587265282869339,85.10041809082031,-40.21380615234375,288.3099060058594
1700075351,0.891143798828125,-0.0541839599609375,-0.414337158203125,0.1338118612766266,0.0196615848690271,-0.0452662818133831,84.818359375,-39.67912292480469,288.0433959960937
1700075351,0.905029296875,0.0042266845703125,-0.4766387939453125,0.0430798269808292,-0.0214208699762821,-0.0778234228491783,85.07881164550781,-39.541900634765625,287.0614013671875
1700075351,0.944793701171875,0.1997222900390625,-0.4935302734375,0.0360512100160121,-0.069034993648529,-0.1826414465904235,85.58589172363281,-38.85771179199219,286.8592224121094
1700075351,0.99658203125,0.323699951171875,-0.447906494140625,0.0590199120342731,-0.1209860742092132,-0.2725580334663391,85.31422424316406,-38.59214782714844,285.9348449707031
1700075351,1.0107879638671875,0.34942626953125,-0.4117431640625,0.0679537504911422,-0.1709413826465606,-0.3412303030490875,85.81903076171875,-37.97566223144531,285.0876159667969
1700075351,1.0001983642578125,0.300750732421875,-0.415618896484375,0.0645741969347,-0.2233057916164398,-0.3739818632602691,86.20135498046875,-37.74092102050781,284.5270690917969
1700075351,0.9631195068359376,0.2330169677734375,-0.452301025390625,0.067535899579525,-0.2821704447269439,-0.3711594343185425,86.75823974609375,-37.556243896484375,283.86279296875
1700075351,0.9297332763671876,0.1838226318359375,-0.464141845703125,0.0887240096926689,-0.3283850848674774,-0.3595171570777893,86.74028015136719,-37.56295776367188,283.4831237792969
1700075351,0.9170379638671876,0.1601104736328125,-0.4658660888671875,0.1216079220175743,-0.3768828213214874,-0.3434226214885711,87.62501525878906,-37.71722412109375,282.8292236328125
1700075351,0.897735595703125,0.1696929931640625,-0.4705352783203125,0.1196542307734489,-0.4219357967376709,-0.3428297936916351,88.3035888671875,-37.26226806640625,282.197021484375
1700075351,0.90557861328125,0.1929779052734375,-0.4468841552734375,0.0697545781731605,-0.4367792010307312,-0.3625693917274475,88.53547668457031,-37.56730651855469,281.267333984375
1700075351,0.923309326171875,0.2171783447265625,-0.4215850830078125,0.009425725787878,-0.435557872056961,-0.3937464952468872,89.29319763183594,-38.23271179199219,280.3949890136719
1700075351,0.942840576171875,0.22283935546875,-0.3831024169921875,-0.0145874647423625,-0.4166752398014068,-0.4282498955726623,89.88827514648438,-38.19755554199219,280.0985107421875
1700075351,0.963348388671875,0.216705322265625,-0.3626708984375,0.0161400884389877,-0.4123425483703613,-0.4522633254528045,90.89004516601562,-38.27247619628906,279.7257080078125
1700075351,0.972259521484375,0.208526611328125,-0.356109619140625,0.090676374733448,-0.4088809788227081,-0.4710812270641327,91.4210968017578,-38.321197509765625,279.5274658203125
1700075351,0.973419189453125,0.1936187744140625,-0.350372314453125,0.1645234376192093,-0.4047901034355163,-0.4834862351417541,92.2069854736328,-38.95428466796875,278.9203186035156
1700075351,0.95074462890625,0.1858367919921875,-0.372802734375,0.2027291357517242,-0.4197895526885986,-0.4827602505683899,93.56454467773438,-39.10491943359375,278.7625732421875
1700075351,0.9241943359375,0.195770263671875,-0.39007568359375,0.1953029185533523,-0.4553872346878052,-0.5042687654495239,94.33570861816406,-40.11297607421875,278.2220764160156
1700075351,0.9400482177734376,0.193206787109375,-0.3822021484375,0.1770882308483123,-0.4690732061862945,-0.5343073606491089,95.08934020996094,-40.53083801269531,277.9072570800781
1700075351,0.950164794921875,0.1893310546875,-0.3750152587890625,0.1502174586057663,-0.4772208929061889,-0.5600217580795288,95.9149169921875,-41.06802368164063,277.3671264648437
1700075351,0.9336700439453124,0.18804931640625,-0.3782196044921875,0.1022051945328712,-0.4899713099002838,-0.5791757702827454,96.6140594482422,-41.966156005859375,277.7135009765625
1700075351,0.9235076904296876,0.1804656982421875,-0.3787384033203125,0.0461128987371921,-0.4906504154205322,-0.5861330032348633,97.84513854980467,-42.8553466796875,277.39215087890625
1700075351,0.9105377197265624,0.17108154296875,-0.357391357421875,0.0140108903869986,-0.4696314036846161,-0.5845295190811157,98.51150512695312,-43.68089294433594,277.6961975097656
1700075351,0.9111175537109376,0.1533355712890625,-0.3251800537109375,-0.0071077104657888,-0.4345855414867401,-0.563601553440094,99.02980041503906,-44.39237976074219,277.729736328125
1700075351,0.9150543212890624,0.1371307373046875,-0.3054656982421875,-0.004996090196073,-0.4084479510784149,-0.5191968083381653,99.7811279296875,-44.64192199707031,278.0041809082031
1700075351,0.9429473876953124,0.121734619140625,-0.2945709228515625,0.0837106108665466,-0.3890068829059601,-0.4922693371772766,100.1760711669922,-45.30889892578125,277.82147216796875
1700075351,0.9549407958984376,0.0977325439453125,-0.3152008056640625,0.1681860834360122,-0.3886755704879761,-0.5122438669204712,100.56907653808594,-45.879913330078125,277.98956298828125
1700075351,0.956451416015625,0.072021484375,-0.319122314453125,0.1899627447128296,-0.3689745664596557,-0.4630166590213775,100.6562042236328,-46.36177062988281,278.03076171875
1700075351,0.94384765625,0.109130859375,-0.3140411376953125,0.1801439374685287,-0.35441455245018,-0.434775173664093,101.06398010253906,-46.91856384277344,277.9317321777344
1700075351,0.9389190673828124,0.1192626953125,-0.3074493408203125,0.1868961155414581,-0.3472674190998077,-0.4156022667884826,100.93458557128906,-47.31745910644531,278.68585205078125
1700075351,0.9456634521484376,0.0908050537109375,-0.290191650390625,0.2645621597766876,-0.330361396074295,-0.3698174655437469,101.0318603515625,-47.41183471679688,279.46319580078125
1700075351,0.9267425537109376,0.0694732666015625,-0.2828521728515625,0.411986231803894,-0.3243890106678009,-0.3310282528400421,101.29696655273438,-47.29960632324219,279.4640197753906
1700075351,0.90997314453125,0.03131103515625,-0.2709808349609375,0.4652848541736603,-0.2883817255496979,-0.2543340027332306,101.175048828125,-47.704925537109375,279.5193176269531
1700075351,0.917938232421875,0.014190673828125,-0.2790069580078125,0.4463061094284057,-0.2650127410888672,-0.2158084511756897,101.12185668945312,-48.078704833984375,279.6586303710937
1700075351,0.9518585205078124,-0.0404510498046875,-0.2687225341796875,0.365660548210144,-0.2351081222295761,-0.1412553936243057,100.89254760742188,-48.055419921875,279.2351379394531
1700075351,0.9567413330078124,-0.0514678955078125,-0.270111083984375,0.3362163603305816,-0.2028543055057525,-0.0550549961626529,100.97230529785156,-47.88246154785156,279.34588623046875
1700075351,0.9362335205078124,-0.0439300537109375,-0.25653076171875,0.3329651653766632,-0.1682412028312683,0.0277469418942928,100.64942932128906,-48.28031921386719,279.69793701171875
1700075351,0.9085693359375,-0.0164337158203125,-0.24957275390625,0.3048675060272217,-0.1442490518093109,0.0910851657390594,100.60801696777344,-48.02772521972656,279.22662353515625
1700075351,0.9089202880859376,0.00579833984375,-0.248870849609375,0.2159802317619323,-0.12007687240839,0.1663841903209686,100.63064575195312,-47.5489501953125,279.3318176269531
1700075351,0.9320068359375,0.0032958984375,-0.2402496337890625,0.2230839431285858,-0.0911914259195327,0.2514452934265136,100.43991088867188,-47.212005615234375,279.29608154296875
1700075351,0.9478912353515624,-0.0402984619140625,-0.2375946044921875,0.2723188698291778,-0.0611887872219085,0.3451211750507355,100.19772338867188,-46.72242736816406,279.83642578125
1700075351,0.9662017822265624,-0.0707550048828125,-0.2755126953125,0.2577428519725799,-0.0610202103853225,0.427527368068695,100.07991027832033,-46.31660461425781,279.38848876953125
1700075351,0.9872589111328124,-0.0492706298828125,-0.290130615234375,0.1787529736757278,-0.077675350010395,0.4917795956134796,99.70498657226562,-46.3026123046875,279.469482421875
1700075351,1.0225372314453125,-0.00140380859375,-0.274810791015625,0.1714934557676315,-0.0648964419960975,0.5378791689872742,99.54241943359376,-46.09295654296875,279.4193420410156
1700075351,1.0416107177734375,0.0571746826171875,-0.2675933837890625,0.2685132026672363,-0.0618726871907711,0.544689416885376,99.42520141601562,-45.70649719238281,279.5302734375
1700075351,1.0646514892578125,0.1109619140625,-0.27288818359375,0.3724744915962219,-0.0777448639273643,0.5207297205924988,99.66278076171876,-45.80805969238281,279.4172058105469
1700075351,1.0998992919921875,0.184539794921875,-0.240447998046875,0.413931667804718,-0.1196161434054374,0.4956571459770202,99.63473510742188,-46.27238464355469,279.8373413085937
1700075351,1.1559906005859375,0.2210235595703125,-0.1204681396484375,0.3770309090614319,-0.102506935596466,0.5053606629371643,99.9215087890625,-46.27581787109375,279.821044921875
1700075351,1.1884307861328125,0.22119140625,-0.1301422119140625,0.3371042609214782,-0.1132197678089141,0.482480376958847,99.7130126953125,-46.65016174316406,280.0486145019531
1700075351,1.2190093994140625,0.1753387451171875,-0.190032958984375,0.3523947894573211,-0.1321202218532562,0.4948430359363556,99.93449401855467,-46.64463806152344,279.41021728515625
1700075351,1.28326416015625,0.0965118408203125,-0.166473388671875,0.3233993649482727,-0.1511948406696319,0.5448608994483948,99.88543701171876,-46.91584777832031,278.9993896484375
1700075351,1.3284149169921875,0.023193359375,-0.1527557373046875,0.2346745580434799,-0.1690057963132858,0.6254140734672546,99.94085693359376,-46.93063354492188,279.461669921875
1700075351,1.36578369140625,-0.034698486328125,-0.1663055419921875,0.2759263813495636,-0.1849224418401718,0.6890527009963989,99.68003845214844,-47.02345275878906,280.00543212890625
1700075351,1.3931427001953125,-0.0507049560546875,-0.1838836669921875,0.4162416756153106,-0.2212993651628494,0.7028303146362305,100.07086181640624,-47.389495849609375,279.8001708984375
1700075351,1.4503021240234375,-0.0352935791015625,-0.1366424560546875,0.5735266208648682,-0.2926747500896454,0.7102789282798767,99.97793579101562,-47.43218994140625,280.3121337890625
1700075351,1.5197601318359375,-0.016845703125,-0.002685546875,0.6445736885070801,-0.3205306231975555,0.7082602381706238,100.04348754882812,-48.07838439941406,280.52313232421875
1700075351,1.5872650146484375,-0.0535736083984375,0.054595947265625,0.6693951487541199,-0.3102529346942901,0.7256421446800232,100.13609313964844,-48.38250732421875,280.67755126953125
1700075351,1.6458282470703125,-0.150848388671875,0.0626373291015625,0.6469665169715881,-0.33955118060112,0.7788299918174744,99.933837890625,-48.69317626953125,280.77032470703125
1700075351,1.65972900390625,-0.2230682373046875,0.1073150634765625,0.6494491100311279,-0.3417091369628906,0.8186900615692139,100.08512878417967,-49.01622009277344,280.7929077148437
1700075351,1.6243743896484375,-0.3456878662109375,0.1695709228515625,0.5896832346916199,-0.3513654768466949,0.8553593754768372,100.35047912597656,-48.945404052734375,281.1689147949219
1700075351,1.4957427978515625,-0.4472808837890625,0.1591949462890625,0.4356699883937835,-0.290722906589508,0.9065264463424684,100.16148376464844,-49.34332275390625,281.52056884765625
1700075351,1.3106689453125,-0.5214080810546875,0.0429229736328125,0.182199627161026,-0.0193670392036438,1.0298619270324707,100.19401550292967,-49.5599365234375,281.3021240234375
1700075351,1.1271209716796875,-0.469329833984375,-0.3128204345703125,-0.3271254003047943,0.3347684144973755,1.3794313669204712,100.21662902832033,-49.79147338867188,282.2114562988281
1700075351,0.9568328857421876,-0.23193359375,-0.8138427734375,-0.9975786209106444,0.6591853499412537,1.8442598581314087,100.52841186523438,-50.20285034179688,282.2557373046875
1700075351,0.9150390625,-0.0203857421875,-1.2024078369140625,-1.461747646331787,0.8792372941970825,2.177020788192749,100.33328247070312,-50.60491943359375,282.18389892578125
1700075351,1.1044769287109375,0.042724609375,-1.3270111083984375,-1.4880473613739014,0.8434001803398132,2.404213190078736,100.20960998535156,-50.59967041015625,282.9335632324219
1700075351,1.3412017822265625,0.128692626953125,-1.1493682861328125,-1.0682506561279297,0.7059882879257202,2.7226362228393555,100.30451965332033,-50.49835205078125,282.7232666015625
1700075351,1.3969879150390625,0.3745574951171875,-0.7847137451171875,-0.4658555686473846,0.619116485118866,3.032434463500977,100.4359893798828,-51.42941284179688,283.1646728515625
1700075351,1.3746490478515625,0.6133270263671875,-0.488494873046875,0.227584958076477,0.8137831687927246,3.196653127670288,100.60662841796876,-51.59893798828125,283.40460205078125
1700075351,1.3966217041015625,0.8443603515625,-0.401153564453125,0.7743721604347229,1.1845377683639526,3.3072409629821777,100.5658721923828,-51.66156005859375,283.4443359375
1700075351,1.4796905517578125,1.170318603515625,-0.45172119140625,0.7295188903808594,1.4053791761398315,3.268204927444458,100.54435729980467,-52.22282409667969,283.658203125
1700075351,1.605010986328125,1.4363861083984375,-0.5147705078125,0.6873930096626282,1.5076993703842163,2.935699939727783,100.69197082519533,-52.57676696777344,284.11993408203125
1700075351,1.78765869140625,1.3328857421875,-0.5372467041015625,1.219591736793518,1.5850985050201416,2.530865430831909,100.64088439941406,-52.44242858886719,283.95068359375
1700075351,1.823699951171875,0.8335723876953125,-0.5129241943359375,1.6323713064193726,1.5852195024490356,2.3962960243225098,100.65446472167967,-52.85104370117188,284.1731262207031
1700075351,1.6732025146484375,0.5999908447265625,-0.5634765625,1.636384129524231,1.4811362028121948,2.5026841163635254,100.38304138183594,-53.00624084472656,284.75006103515625
1700075351,1.550537109375,0.559661865234375,-0.597747802734375,1.372849702835083,1.374113917350769,2.5796141624450684,100.44264221191406,-53.66557312011719,285.2200927734375
1700075351,1.46136474609375,0.4584808349609375,-0.6015167236328125,0.9887078404426576,1.3201593160629272,2.467297315597534,100.46832275390624,-53.6484375,285.42169189453125
1700075351,1.3932647705078125,0.3054656982421875,-0.5590667724609375,0.6655692458152771,1.2996138334274292,2.237130880355835,100.48182678222656,-53.88090515136719,285.67291259765625
1700075351,1.325592041015625,0.1914825439453125,-0.4708404541015625,0.4743278920650482,1.2569457292556765,2.039407730102539,100.15333557128906,-54.29597473144531,285.501953125
1700075351,1.19390869140625,0.152130126953125,-0.368499755859375,0.3375106453895569,1.2101507186889648,1.8191450834274288,100.48553466796876,-54.603424072265625,285.7099914550781
1700075351,1.04962158203125,0.112152099609375,-0.274810791015625,0.2039225101470947,1.150709867477417,1.5139514207839966,100.27272033691406,-54.79234313964844,286.1205444335937
1700075351,0.9547119140625,0.0349578857421875,-0.1851806640625,0.033786192536354,1.0586339235305786,1.1816959381103516,100.58363342285156,-55.116058349609375,286.15985107421875
1700075351,0.8475494384765625,-0.0230560302734375,-0.1282196044921875,-0.0941800251603126,0.9471026062965392,0.8429197669029236,100.39080810546876,-55.44300842285156,286.71807861328125
1700075351,0.7293548583984375,-0.0918121337890625,-0.0762481689453125,-0.182548239827156,0.8246086835861206,0.5572659373283386,100.44392395019533,-55.25994873046875,287.0885009765625
1700075352,0.572601318359375,-0.1285858154296875,-0.02789306640625,-0.2452987134456634,0.6995458602905273,0.2833091914653778,100.12509155273438,-55.733245849609375,286.9406433105469
1700075352,0.44390869140625,-0.1674957275390625,-0.00323486328125,-0.2666327655315399,0.5605892539024353,-0.0333742015063762,100.46017456054688,-55.579437255859375,287.07281494140625
1700075352,0.3999481201171875,-0.2354278564453125,0.0348968505859375,-0.3143331706523895,0.4499285519123077,-0.3411360085010528,100.17198181152344,-55.40458679199219,287.15191650390625
1700075352,0.383209228515625,-0.2777557373046875,0.0386199951171875,-0.3984491229057312,0.3318924605846405,-0.6327971816062927,100.32633972167967,-55.16120910644531,287.65972900390625
1700075352,0.3503265380859375,-0.2997589111328125,0.018951416015625,-0.5029677748680115,0.1870100945234298,-0.9279659390449524,100.01980590820312,-55.06402587890625,287.2410888671875
