timestamp,acc-x,acc-y,acc-z,gyr-x,gyr-y,gyr-z,mag-x,mag-y,mag-z
1700075747,0.214996337890625,-0.1910247802734375,-0.29296875,0.8271826505661011,-0.3969020843505859,-1.6367268562316897,79.72734069824219,-40.09346008300781,235.81153869628903
1700075747,0.13433837890625,-0.05792236328125,-0.3453369140625,0.7906592488288879,-0.3536174595355987,-2.152968406677246,81.09190368652344,-41.35331726074219,235.6312561035156
1700075747,0.063385009765625,0.0858917236328125,-0.4149169921875,0.8961228132247925,-0.2376644909381866,-2.53182053565979,82.80616760253906,-42.39263916015625,235.45242309570312
1700075747,0.029876708984375,0.231781005859375,-0.2698211669921875,0.9747717976570128,-0.18826924264431,-2.819148302078247,83.54219055175781,-43.69772338867188,234.9632873535156
1700075747,0.2353973388671875,0.2219696044921875,-0.0030364990234375,0.9686214923858644,-0.2634353637695312,-3.255244016647339,84.73350524902344,-44.65837097167969,235.22418212890625
1700075747,0.582550048828125,-0.0548248291015625,0.1612396240234375,0.7239811420440674,-0.2984484732151031,-3.730868577957153,85.595703125,-46.07418823242188,235.1679229736328
1700075747,0.786773681640625,-0.30078125,0.1044769287109375,0.0531838573515415,-0.2115761637687683,-3.862061262130737,87.14179992675781,-46.820648193359375,235.3329467773437
1700075747,0.791107177734375,-0.2934722900390625,-0.11029052734375,-0.6928471922874451,-0.2095519006252288,-3.7287676334381104,88.37916564941406,-47.93275451660156,235.19140625
1700075747,0.7924346923828125,-0.20635986328125,-0.1729736328125,-1.1474844217300415,-0.2975254356861114,-3.631426095962525,89.1368408203125,-49.55876159667969,235.8152008056641
1700075747,0.8419952392578125,-0.132171630859375,-0.1649169921875,-1.30510151386261,-0.4207064807415008,-3.6664884090423584,90.39474487304688,-51.03584289550781,235.0712432861328
1700075747,0.8600311279296875,-0.00054931640625,-0.166229248046875,-1.2664811611175537,-0.5930002331733704,-3.735253095626831,91.39688110351562,-52.62113952636719,235.7427673339844
1700075747,0.90643310546875,0.178192138671875,-0.1419525146484375,-1.0362192392349243,-0.8004156947135925,-3.813631534576416,92.56971740722656,-53.80157470703125,235.43641662597656
1700075747,1.0138702392578125,0.3696441650390625,-0.1059722900390625,-0.768328070640564,-0.9363959431648254,-3.9759950637817374,93.27703857421876,-55.07574462890625,235.82334899902344
1700075747,1.1526641845703125,0.57110595703125,-0.1053009033203125,-0.4106296002864837,-1.093174934387207,-4.081934928894043,93.31379699707033,-56.17253112792969,235.45187377929688
1700075747,1.25714111328125,0.801361083984375,-0.0343170166015625,0.0963449105620384,-1.2653917074203491,-4.112840175628662,94.64273071289062,-57.613555908203125,236.4196014404297
1700075747,1.374298095703125,0.963775634765625,0.0618896484375,0.6947755813598633,-1.4097861051559448,-4.171223163604736,95.27877807617188,-59.673431396484375,236.52566528320312
1700075747,1.467864990234375,0.9776763916015624,0.0932464599609375,1.093192219734192,-1.400362491607666,-4.217067718505859,95.72447204589844,-60.5101318359375,236.6342010498047
1700075747,1.43701171875,0.94873046875,-0.072967529296875,1.1126377582550049,-1.31974995136261,-4.197744846343994,96.41064453125,-61.557525634765625,237.0182037353516
1700075747,1.3236846923828125,0.9302215576171876,-0.3053741455078125,0.8145267367362976,-1.2504111528396606,-4.095813751220703,96.45452880859376,-62.72418212890625,237.43972778320312
1700075747,1.2294158935546875,0.8958282470703125,-0.47882080078125,0.3938591480255127,-1.152593731880188,-3.925153970718384,96.78390502929688,-63.31581115722656,237.7501220703125
1700075747,1.1717681884765625,0.8237152099609375,-0.6002044677734375,0.0367396399378776,-1.1314306259155271,-3.7157371044158936,97.33251953125,-64.11033630371094,237.5427703857422
1700075747,1.165771484375,0.7463531494140625,-0.589874267578125,-0.1795604377985,-1.1726425886154177,-3.4555838108062744,97.17341613769533,-64.84259033203125,238.389389038086
1700075747,1.2147979736328125,0.736083984375,-0.5051422119140625,-0.2203195840120315,-1.2028504610061646,-3.145095109939575,97.48095703125,-65.32969665527344,238.480697631836
1700075747,1.24017333984375,0.7824554443359375,-0.4367828369140625,-0.1313100904226303,-1.227891206741333,-2.8617963790893555,97.47244262695312,-65.41755676269531,239.08526611328125
1700075747,1.2207489013671875,0.8231048583984375,-0.3701019287109375,0.0622508563101291,-1.2113782167434692,-2.6214449405670166,98.05470275878906,-65.54148864746094,239.05984497070312
1700075747,1.185089111328125,0.842864990234375,-0.3111572265625,0.364848792552948,-1.128690481185913,-2.462811231613159,97.83975219726562,-65.36808776855469,238.9687957763672
1700075747,1.1514892578125,0.819061279296875,-0.2617340087890625,0.7514862418174744,-0.9650350213050842,-2.362476110458374,97.91310119628906,-65.80738830566406,239.71414184570312
1700075747,1.089202880859375,0.779632568359375,-0.24566650390625,1.0913830995559692,-0.8057846426963806,-2.225209474563598,97.76585388183594,-66.39939880371094,239.5640869140625
1700075747,0.9848480224609376,0.7386932373046875,-0.2514190673828125,1.3838828802108765,-0.6733682751655579,-2.0165457725524902,97.7109832763672,-66.03221130371094,240.2840881347656
1700075747,0.85308837890625,0.6854095458984375,-0.269287109375,1.6164343357086182,-0.5545167326927185,-1.7610222101211548,97.66384887695312,-65.5306396484375,240.1604156494141
1700075747,0.725982666015625,0.613525390625,-0.263214111328125,1.7936959266662598,-0.4142179489135742,-1.5189272165298462,97.7202606201172,-65.14414978027344,240.61764526367188
1700075747,0.6341400146484375,0.5220184326171875,-0.244537353515625,1.9224475622177124,-0.2746320962905884,-1.289475917816162,97.8443603515625,-64.66595458984375,240.8036193847656
1700075747,0.6043243408203125,0.41650390625,-0.1929779052734375,2.0236480236053467,-0.1867674887180328,-1.064416766166687,97.27497863769533,-63.75608825683594,240.16848754882807
1700075747,0.6373443603515625,0.316925048828125,-0.1078033447265625,2.048018455505371,-0.1295260339975357,-0.8546480536460876,96.95059204101562,-63.10237121582031,240.4740600585937
1700075747,0.733123779296875,0.2094573974609375,-0.0604400634765625,1.894318461418152,-0.0954088121652603,-0.6321049928665161,96.3563232421875,-62.2718505859375,240.13479614257807
1700075747,0.835723876953125,0.125457763671875,-0.08258056640625,1.5679214000701904,-0.0817073807120323,-0.3780202567577362,95.90113830566406,-61.12776184082031,240.752182006836
1700075747,0.8627166748046875,0.0801544189453125,-0.14373779296875,1.127274751663208,-0.0549942776560783,-0.0527716018259525,95.54725646972656,-60.29197692871094,240.7419891357422
1700075747,0.829681396484375,0.06304931640625,-0.2313690185546875,0.6227027177810669,0.0074275564402341,0.3005960583686828,94.384033203125,-59.346771240234375,240.1771545410156
1700075747,0.7633056640625,0.04345703125,-0.3315887451171875,0.1847013980150222,0.0467025227844715,0.6192712187767029,92.7126007080078,-58.68374633789063,239.57948303222656
1700075747,0.706024169921875,0.0020904541015625,-0.3596038818359375,-0.2360516786575317,0.1149494871497154,0.8493803143501282,90.6710205078125,-57.731689453125,238.1341857910156
1700075747,0.68634033203125,-0.048980712890625,-0.3561859130859375,-0.712879478931427,0.2259207516908645,0.9773345589637756,90.00477600097656,-56.985260009765625,237.74034118652344
1700075747,0.6835174560546875,-0.0844268798828125,-0.357757568359375,-1.1701639890670776,0.3246190845966339,1.0637458562850952,90.24020385742188,-56.77751159667969,239.5520172119141
1700075747,0.724456787109375,-0.075347900390625,-0.340179443359375,-1.5332995653152466,0.3604713678359985,1.2039296627044678,89.94500732421875,-57.09352111816406,239.57652282714844
1700075747,0.825286865234375,0.035125732421875,-0.3532867431640625,-1.8572105169296265,0.6330972909927368,1.2319759130477903,88.395263671875,-56.23016357421875,239.29139709472656
1700075747,0.83856201171875,0.1764678955078125,-0.641082763671875,-1.6407618522644043,0.5623450875282288,1.368077278137207,87.57804870605469,-55.07150268554688,238.4647827148437
1700075747,0.739105224609375,0.3794403076171875,-0.5311126708984375,-1.0568605661392212,0.6182970404624939,1.4322538375854492,86.79179382324219,-55.15249633789063,237.72366333007807
1700075747,0.94610595703125,0.4967498779296875,-0.5469512939453125,-0.2539526522159576,2.391409158706665,1.2223947048187256,85.53079223632812,-55.21940612792969,237.1314849853516
1700075747,0.5354156494140625,0.4994049072265625,-1.9195098876953125,1.28535258769989,3.6245906352996826,1.5930204391479492,84.70451354980469,-55.373138427734375,235.8865661621093
1700075747,0.1143646240234375,1.1699676513671875,-2.5419464111328125,-0.0096702044829726,-0.9428753852844238,2.206549406051636,83.69941711425781,-55.048614501953125,235.51144409179688
1700075747,2.85577392578125,0.9215545654296876,0.828125,-0.5161690711975098,-0.5147408246994019,0.1766754388809204,83.05912780761719,-55.621002197265625,235.26535034179688
1700075747,3.5274200439453125,-1.1997222900390625,0.0869140625,0.6324493288993835,1.2753950357437134,-0.7116669416427612,82.7166748046875,-55.62550354003906,235.5081481933593
1700075747,1.7146759033203125,-1.3511505126953125,0.47979736328125,1.055833101272583,1.6208347082138062,0.023639015853405,82.90849304199219,-55.5257568359375,235.3474578857422
1700075747,0.72369384765625,-0.7984619140625,0.710845947265625,0.5999556183815002,1.266317367553711,1.2356274127960205,82.74571228027344,-55.37113952636719,235.67686462402344
1700075747,0.420654296875,-0.4402313232421875,0.0077056884765625,0.3167316019535064,0.8824264407157898,1.5170692205429075,82.77554321289062,-54.830413818359375,236.3312530517578
1700075747,0.7024993896484375,-0.517608642578125,-0.1703948974609375,0.1329340785741806,0.8654261231422424,1.355231761932373,82.31565856933594,-54.85585021972656,235.8280792236328
1700075747,1.002166748046875,-0.3738861083984375,-0.2460784912109375,-0.1974150687456131,0.8186442852020264,1.3646581172943115,81.66984558105469,-54.86451721191406,234.8963928222656
1700075747,1.189361572265625,0.0425872802734375,-0.243743896484375,-0.3531175851821899,0.5417314171791077,1.2838598489761353,81.48677062988281,-54.5594482421875,234.91221618652344
1700075747,1.4655609130859375,0.3251190185546875,-0.1779632568359375,-0.6554068922996521,0.2204213142395019,0.9795607328414916,81.46385192871094,-54.33656311035156,234.90545654296875
1700075747,1.667266845703125,0.5374603271484375,-0.1620941162109375,-1.096840739250183,0.28459233045578,0.4730303883552551,80.9649658203125,-53.77830505371094,235.095458984375
1700075747,1.583526611328125,0.499053955078125,-0.1305389404296875,-0.8195114135742188,0.3531836271286011,-0.0596606656908988,81.17491149902344,-53.90827941894531,234.96014404296875
1700075747,1.3444976806640625,0.1207275390625,-0.0433807373046875,-0.4245454370975494,0.2566661536693573,-0.3659052848815918,80.69294738769531,-53.65618896484375,234.73663330078125
1700075747,1.4853057861328125,-0.114593505859375,-0.10888671875,-0.4928089082241058,0.0543418005108833,-0.2670151889324188,80.83056640625,-53.397491455078125,234.9198760986328
1700075747,1.9192962646484373,-0.1323699951171875,-0.1206207275390625,-0.5727900266647339,0.0829840973019599,0.227115973830223,80.621337890625,-53.07954406738281,235.14410400390625
1700075747,2.032440185546875,-0.0722808837890625,-0.147674560546875,-0.4007618129253387,0.154624730348587,0.8325536847114563,80.49737548828125,-53.32377624511719,234.75607299804688
1700075747,1.56378173828125,0.042633056640625,-0.103546142578125,-0.3061410188674927,0.2448584884405136,1.0211784839630127,80.28115844726562,-52.69401550292969,234.96177673339844
1700075747,1.0035247802734375,0.213775634765625,-0.0995635986328125,-0.2096565514802932,0.2868453562259674,0.8424675464630127,80.51901245117188,-52.7987060546875,235.4781036376953
1700075747,0.6373443603515625,0.3154144287109375,-0.1594696044921875,0.0270521230995655,0.3228438198566437,0.4646244049072265,80.45965576171875,-52.40827941894531,235.00051879882807
1700075747,0.5351715087890625,0.2966461181640625,-0.3333892822265625,0.5177329182624817,0.3196155428886413,0.2748323678970337,80.43327331542969,-52.35978698730469,234.87322998046875
1700075747,0.7402191162109375,0.1202239990234375,-0.3939208984375,0.7289764285087585,0.2451903223991394,0.2536511719226837,80.18559265136719,-52.404083251953125,235.50698852539065
1700075747,0.980072021484375,-0.13177490234375,-0.3345489501953125,0.7415984869003296,0.2525877654552459,0.3733291029930115,80.20475769042969,-52.11689758300781,235.162353515625
1700075747,1.0318603515625,-0.2545623779296875,-0.3544921875,0.5656508803367615,0.2167453616857528,0.602301299571991,80.15380859375,-52.26080322265625,235.6137542724609
1700075747,1.00274658203125,-0.1607208251953125,-0.4058380126953125,0.2912850975990295,0.1172704324126243,0.7385638356208801,80.271484375,-52.10295104980469,235.4837951660156
1700075747,0.9908447265625,0.0181427001953125,-0.40386962890625,0.0846344605088234,0.0697580426931381,0.690456748008728,79.88786315917969,-51.80780029296875,235.3549194335937
1700075747,0.982513427734375,0.173126220703125,-0.3366241455078125,0.029796777293086,0.0950410291552543,0.5585229396820068,80.05091857910156,-51.60041809082031,235.1262969970703
1700075747,0.9474334716796876,0.275665283203125,-0.271240234375,0.0887988433241844,0.1297018080949783,0.4434064626693725,79.79220581054688,-51.44651794433594,235.2867431640625
1700075748,0.896148681640625,0.32843017578125,-0.2604522705078125,0.1462520211935043,0.1303907632827758,0.3784543573856354,79.60317993164062,-51.08244323730469,235.7879638671875
1700075748,0.8766632080078125,0.2961883544921875,-0.237823486328125,0.1570748388767242,0.1561741530895233,0.3601131737232208,79.19015502929688,-50.7825927734375,235.74598693847656
1700075748,0.85198974609375,0.215118408203125,-0.2125091552734375,0.1700015515089035,0.197382852435112,0.421776533126831,79.27668762207031,-50.67845153808594,235.85769653320312
1700075748,0.8025054931640625,0.14044189453125,-0.2395172119140625,0.1634949147701263,0.2599476873874664,0.497126430273056,79.07646179199219,-50.02804565429688,236.14366149902344
1700075748,0.808074951171875,0.04412841796875,-0.2660064697265625,0.1847666501998901,0.3382366299629211,0.596763551235199,79.09169006347656,-49.53831481933594,235.7432861328125
1700075748,0.8755950927734375,-0.08282470703125,-0.2403717041015625,0.2095143496990203,0.411767303943634,0.7107279300689697,78.7689208984375,-49.67007446289063,235.9900665283203
1700075748,0.962921142578125,-0.223175048828125,-0.2393035888671875,0.1799801588058471,0.4862146377563476,0.8746300339698792,78.55308532714844,-49.569580078125,236.28651428222656
1700075748,0.996337890625,-0.2552947998046875,-0.335601806640625,0.218041256070137,0.4889907240867615,1.109400510787964,78.2227783203125,-49.04539489746094,235.8324737548828
1700075748,0.9683074951171876,-0.17987060546875,-0.39044189453125,0.325735479593277,0.4570612907409668,1.3031156063079834,78.0743408203125,-48.38739013671875,236.1103363037109
1700075748,0.934783935546875,-0.032562255859375,-0.33282470703125,0.2775120437145233,0.500091552734375,1.3776390552520752,77.38470458984375,-47.98992919921875,236.20458984375
1700075748,0.9061126708984376,0.19903564453125,-0.29583740234375,0.2739447355270386,0.5787762999534607,1.3377622365951538,77.31234741210938,-47.951171875,236.9233856201172
1700075748,0.88592529296875,0.3462677001953125,-0.213531494140625,0.4749958217144012,0.6658949255943298,1.274829387664795,77.05937194824219,-47.16305541992188,236.5316162109375
1700075748,0.845458984375,0.4033355712890625,-0.151580810546875,0.6766042709350586,0.7419068813323975,1.245450496673584,76.65249633789062,-46.63790893554688,237.13169860839844
1700075748,0.8241729736328125,0.3424835205078125,-0.1897735595703125,0.7818194031715393,0.8020064234733582,1.2531394958496094,76.30377197265625,-46.11381530761719,236.7356872558593
1700075748,0.81787109375,0.117645263671875,-0.253326416015625,0.7711630463600159,0.8705098628997803,1.320097804069519,75.84962463378906,-45.16752624511719,237.70399475097656
1700075748,0.7991485595703125,-0.050201416015625,-0.41204833984375,0.6441278457641602,0.8784332871437073,1.4768152236938477,75.63461303710938,-44.32453918457031,238.02252197265625
1700075748,0.8437652587890625,-0.01422119140625,-0.4981231689453125,0.4808499813079834,0.8286920785903931,1.66752290725708,74.86604309082031,-43.61341857910156,237.87527465820312
1700075748,0.9766845703125,0.1104583740234375,-0.42987060546875,0.3912535011768341,0.8663710355758667,1.7993035316467283,74.44041442871094,-43.30973815917969,238.16954040527344
1700075748,1.0975494384765625,0.2247467041015625,-0.40191650390625,0.5338175892829895,0.878827691078186,1.9086796045303345,73.82057189941406,-42.47064208984375,238.5276031494141
1700075748,1.1438140869140625,0.2836761474609375,-0.365631103515625,0.7836266160011292,0.8881871104240417,2.0270040035247803,73.19703674316406,-41.34007263183594,238.9636993408203
1700075748,1.130950927734375,0.2713470458984375,-0.3880767822265625,1.0415340662002563,0.9418404698371888,2.1122121810913086,72.74043273925781,-40.72747802734375,239.2855224609375
1700075748,1.072174072265625,0.2035980224609375,-0.3885955810546875,1.162438154220581,0.9356361031532288,2.2105486392974854,72.14463806152344,-40.18492126464844,239.71435546875
1700075748,0.933135986328125,0.2332916259765625,-0.3485565185546875,1.011210799217224,0.937987983226776,2.2499899864196777,71.26275634765625,-38.9775390625,240.080078125
1700075748,0.86260986328125,0.379730224609375,-0.34417724609375,0.8815630674362183,0.980138897895813,2.175997734069824,70.323974609375,-38.00801086425781,240.2608642578125
1700075748,0.8063201904296875,0.5065460205078125,-0.318267822265625,0.852981448173523,1.012939453125,2.0966246128082275,69.46263122558594,-37.08541870117188,240.33653259277344
1700075748,0.7758026123046875,0.57928466796875,-0.3271636962890625,0.8488583564758301,0.9988662004470824,2.0684964656829834,68.8836669921875,-35.79791259765625,241.1455993652344
1700075748,0.908416748046875,0.5907135009765625,-0.3655548095703125,0.8219292759895325,0.9483047723770142,2.106390953063965,68.165771484375,-34.136993408203125,242.1758575439453
1700075748,0.9887847900390624,0.510040283203125,-0.3930511474609375,0.7620843052864075,0.9373988509178162,2.1756224632263184,67.70472717285156,-32.764556884765625,242.7055053710937
1700075748,1.014312744140625,0.480865478515625,-0.448577880859375,0.731401264667511,0.8812234997749329,2.2828469276428223,67.23324584960938,-31.471969604492188,244.6906890869141
1700075748,1.1259613037109375,0.472808837890625,-0.428375244140625,0.7903332710266113,0.8701425790786743,2.407102346420288,66.7059326171875,-29.59077453613281,246.5113983154297
1700075748,1.222198486328125,0.4170989990234375,-0.4520721435546875,0.7954755425453186,0.8253501057624817,2.496680498123169,66.28057861328125,-27.72993469238281,248.4766387939453
1700075748,1.3023223876953125,0.4167938232421875,-0.5528564453125,0.875322699546814,0.7106062173843384,2.595843315124512,65.80763244628906,-26.00410461425781,250.3006286621093
1700075748,1.3393707275390625,0.4920196533203125,-0.5693511962890625,0.9156437516212464,0.6191697716712952,2.672833204269409,65.16490173339844,-25.025619506835938,252.7844696044922
1700075748,1.4490509033203125,0.51922607421875,-0.43743896484375,0.8208876848220825,0.5467022061347961,2.7550055980682373,64.84730529785156,-23.638458251953125,254.5958251953125
1700075748,1.525421142578125,0.473724365234375,-0.3931884765625,0.7282280921936035,0.4189168214797973,2.83365797996521,65.14529418945312,-22.57598876953125,256.4330444335937
1700075748,1.6165618896484375,0.4232940673828125,-0.4424285888671875,0.6125968098640442,0.2282440960407257,2.879489183425904,65.02384948730469,-21.20025634765625,258.1297912597656
1700075748,1.716094970703125,0.361846923828125,-0.4585418701171875,0.465938925743103,0.0124050043523311,2.729692220687866,65.44624328613281,-20.384979248046875,260.3765869140625
1700075748,1.82196044921875,0.2457733154296875,-0.4777984619140625,0.2668436765670776,-0.2445993572473526,2.42507266998291,66.16769409179688,-20.007369995117188,262.3753356933594
1700075748,1.8264617919921875,0.14959716796875,-0.5305938720703125,-0.0265301447361707,-0.437128871679306,2.2541749477386475,67.04701232910156,-19.169998168945312,264.1576538085937
1700075748,1.4058380126953125,0.232208251953125,-0.7386474609375,-0.3274167478084564,-0.4424266815185547,2.0905978679656982,68.16293334960938,-18.499832153320312,265.98455810546875
1700075748,0.791839599609375,0.238494873046875,-0.889556884765625,-0.4940155744552612,-0.2916739284992218,1.563169240951538,69.44691467285156,-18.409683227539062,266.9479675292969
1700075748,0.448333740234375,-0.006988525390625,-0.7561798095703125,-0.8848261833190918,-0.1999810189008712,1.2172417640686035,71.05470275878906,-17.89556884765625,268.6967468261719
1700075748,-0.0278167724609375,-0.0434417724609375,-0.7574310302734375,-1.1783167123794556,-0.2389457374811172,0.8163678050041199,72.90411376953125,-17.807037353515625,269.353271484375
1700075748,-0.4804229736328125,-0.15179443359375,-0.59051513671875,-0.6096665263175964,-0.3808996677398681,0.1802398115396499,74.35842895507812,-17.905792236328125,268.89703369140625
1700075748,-0.7916412353515625,-0.3839569091796875,0.020904541015625,0.1880039870738983,-0.6673151850700378,-0.6414034366607666,76.0555419921875,-17.722946166992188,268.8767395019531
1700075748,-0.7282257080078125,-0.476470947265625,0.52154541015625,0.301335871219635,-0.9485186338424684,-1.3993217945098877,77.89077758789062,-17.54559326171875,268.20684814453125
1700075748,-0.124786376953125,-0.3044586181640625,0.506195068359375,-0.0423985905945301,-1.3099993467330933,-2.1632471084594727,79.89820861816406,-17.159988403320312,268.031982421875
1700075748,0.3077239990234375,-0.3339080810546875,0.13665771484375,0.0059215384535491,-1.4462149143218994,-2.853114604949951,82.13383483886719,-17.435699462890625,266.8987121582031
1700075748,0.353546142578125,-0.5564727783203125,-0.0103912353515625,0.3870505094528198,-1.367398977279663,-3.247201442718506,84.12702941894531,-18.05488586425781,265.876220703125
1700075748,0.3104095458984375,-0.569488525390625,0.054443359375,0.4336156249046325,-1.334455132484436,-3.416093349456787,86.69100952148438,-18.44671630859375,265.9678955078125
1700075748,0.359466552734375,-0.3502197265625,-0.0352630615234375,0.1701890379190445,-1.3713074922561646,-3.621890544891357,89.15882873535156,-19.064224243164062,266.2508544921875
1700075748,0.5001678466796875,-0.1790618896484375,-0.143585205078125,-0.132958322763443,-1.4072108268737793,-3.914596080780029,91.85612487792967,-19.80078125,266.28875732421875
1700075748,0.5843963623046875,-0.1090087890625,-0.1683502197265625,-0.3244872689247131,-1.3442773818969729,-4.270803451538086,94.65786743164062,-20.782623291015625,266.69580078125
1700075748,0.6417694091796875,-0.1075286865234375,-0.1434478759765625,-0.4725725948810577,-1.2264163494110107,-4.559994697570801,97.51046752929688,-22.650421142578125,266.8208312988281
1700075748,0.7124176025390625,-0.08587646484375,-0.1435546875,-0.7324124574661255,-1.1233290433883667,-4.639339923858643,100.04826354980467,-23.668365478515625,266.7928771972656
1700075748,0.7969512939453125,0.0385894775390625,-0.1861724853515625,-1.0376874208450315,-1.1587896347045898,-4.493768692016602,102.70941162109376,-25.288650512695312,267.64129638671875
1700075748,0.9121246337890624,0.2005615234375,-0.1438140869140625,-1.2248767614364624,-1.4023420810699463,-4.235461235046387,105.290771484375,-27.49961853027344,267.72857666015625
1700075748,1.030548095703125,0.35479736328125,-0.0562591552734375,-1.1609904766082764,-1.62167489528656,-4.165471076965332,108.5647430419922,-29.254852294921875,268.11090087890625
1700075748,1.13018798828125,0.4060821533203125,-0.10675048828125,-0.7753074169158936,-1.60760760307312,-4.415013313293457,111.10104370117188,-31.952392578125,269.5482177734375
1700075748,1.21368408203125,0.4385528564453125,-0.2158966064453125,-0.2604587376117706,-1.6184083223342896,-4.577597141265869,113.48590087890624,-34.30171203613281,269.93853759765625
1700075748,1.23370361328125,0.6668548583984375,-0.287872314453125,0.177487164735794,-1.7787755727767944,-4.502199172973633,115.86038208007812,-37.080322265625,271.2164611816406
1700075748,1.289520263671875,0.97393798828125,-0.2785491943359375,0.3176836967468261,-1.9972474575042725,-4.290972232818604,117.83016967773438,-40.43519592285156,272.5800476074219
1700075748,1.43267822265625,1.263946533203125,-0.2523040771484375,0.1288021802902221,-1.9039270877838133,-4.216161727905273,119.9633331298828,-43.677642822265625,273.5694580078125
1700075748,1.574920654296875,1.39276123046875,-0.3820648193359375,-0.0102979112416505,-1.5658143758773804,-4.290971279144287,121.58389282226562,-47.2659912109375,274.33447265625
1700075748,1.6424560546875,1.32025146484375,-0.44390869140625,-0.0050602722913026,-1.3191288709640503,-4.246600151062012,123.2104949951172,-50.91493225097656,275.3167419433594
1700075748,1.550994873046875,1.15484619140625,-0.40728759765625,-0.1284282803535461,-1.2414618730545044,-3.966170310974121,124.00640869140624,-55.06446838378906,276.395263671875
1700075748,1.4144134521484375,1.0273895263671875,-0.47784423828125,-0.4391613900661468,-1.2974408864974976,-3.563292980194092,125.12185668945312,-58.898529052734375,277.56988525390625
1700075748,1.3185882568359375,0.9203338623046876,-0.5552215576171875,-0.7786595821380615,-1.35902202129364,-3.1083474159240723,125.4460906982422,-62.99110412597656,278.7337951660156
1700075748,1.2100372314453125,0.82061767578125,-0.5700531005859375,-0.9512393474578856,-1.3545081615447998,-2.6698007583618164,126.03121948242188,-66.474853515625,279.2961120605469
1700075748,1.1075897216796875,0.729095458984375,-0.5235595703125,-0.86335688829422,-1.2966123819351196,-2.29809308052063,126.03070068359376,-70.39889526367188,279.7403869628906
1700075748,1.0536651611328125,0.671417236328125,-0.4516754150390625,-0.7122408747673035,-1.2100183963775637,-1.9910681247711184,125.70127868652344,-73.92231750488281,280.4521179199219
1700075748,1.01580810546875,0.6425933837890625,-0.4161834716796875,-0.4881851077079773,-1.133621096611023,-1.7688665390014648,125.46693420410156,-76.73124694824219,281.4191589355469
1700075748,0.969146728515625,0.6353912353515625,-0.330047607421875,-0.1288274824619293,-1.0253132581710815,-1.568988800048828,125.06387329101562,-79.30267333984375,282.14752197265625
1700075748,0.88787841796875,0.68316650390625,-0.234405517578125,0.2393662482500076,-0.8734313249588013,-1.365846037864685,124.72201538085938,-81.68685913085938,283.1950378417969
1700075748,0.77630615234375,0.75244140625,-0.1662445068359375,0.5944324731826782,-0.6621031165122986,-1.1337013244628906,124.17750549316406,-83.31779479980469,282.94903564453125
1700075748,0.6943359375,0.75299072265625,-0.1319580078125,0.8856909275054932,-0.4200777113437652,-0.8800135850906372,123.89022827148438,-84.52328491210938,284.768310546875
1700075748,0.6602630615234375,0.6438751220703125,-0.14593505859375,0.9832246899604796,-0.2271178364753723,-0.6175881028175354,123.52688598632812,-85.16926574707031,284.9106140136719
1700075748,0.704437255859375,0.4869842529296875,-0.1932525634765625,0.8840181827545166,-0.0980810299515724,-0.343100905418396,123.1675262451172,-85.63490295410156,284.477783203125
1700075748,0.8013916015625,0.3452301025390625,-0.2189178466796875,0.6105605959892273,-0.0439176559448242,-0.0538864023983478,123.50096130371094,-85.29885864257812,284.9163818359375
1700075748,0.90411376953125,0.2335205078125,-0.202301025390625,0.1850358992815017,-0.0204743817448616,0.2505091726779938,123.56524658203124,-84.95594787597656,284.6717529296875
1700075748,0.947723388671875,0.178192138671875,-0.22540283203125,-0.2901018559932709,0.063956081867218,0.516140878200531,123.7201690673828,-83.9832763671875,284.68756103515625
1700075748,0.85345458984375,0.135986328125,-0.334716796875,-0.7954763770103455,0.1672118902206421,0.753383219242096,123.88987731933594,-84.14627075195312,284.77880859375
1700075748,0.704833984375,0.1124267578125,-0.4418487548828125,-1.2665812969207764,0.2495594918727874,0.9869664311408995,124.39395141601562,-84.06929016113281,284.7410888671875
1700075748,0.58221435546875,0.1036376953125,-0.4866180419921875,-1.5684354305267334,0.413634181022644,1.2463726997375488,124.42587280273438,-85.04598999023438,284.76776123046875
1700075748,0.5098724365234375,0.1316375732421875,-0.5440216064453125,-1.9950737953186035,0.7508186101913452,1.431370735168457,124.14955139160156,-86.33460998535156,284.5376281738281
1700075748,0.4433135986328125,0.23370361328125,-0.7659149169921875,-2.1649158000946045,1.1026296615600586,1.7797223329544067,124.18881225585938,-86.77769470214844,284.85504150390625
1700075748,0.477569580078125,0.4838714599609375,-0.92950439453125,-1.3149043321609497,2.949798583984375,2.1030426025390625,124.41085815429688,-86.02142333984375,284.2980041503906
1700075748,0.3013458251953125,0.8636322021484375,-2.3636016845703125,0.0533447153866291,3.213240146636963,2.611640453338623,124.41758728027344,-84.69525146484375,284.21783447265625
1700075748,0.4864654541015625,1.72491455078125,-2.826156616210937,-0.8275901079177856,-1.604993224143982,1.8827800750732424,124.76374816894533,-83.07098388671875,284.43768310546875
1700075748,4.228775024414063,0.3991546630859375,0.9854583740234376,0.3376190364360809,0.2748962938785553,-0.6909712553024292,124.94415283203124,-80.96029663085938,283.578369140625
1700075748,3.5557861328125,-1.645660400390625,0.044891357421875,2.188645601272583,1.7360066175460815,-1.1417032480239868,125.08293151855467,-79.06956481933594,283.3847961425781
1700075748,1.4085845947265625,-1.2311248779296875,0.8278656005859375,1.983006238937378,1.4655561447143557,-0.162057876586914,125.215087890625,-78.2652587890625,283.1832275390625
1700075748,0.552581787109375,-0.61602783203125,0.4366912841796875,1.1440702676773071,0.7842391729354858,1.02518630027771,125.2078094482422,-78.01502990722656,283.0438842773437
1700075748,0.3977813720703125,-0.5090789794921875,0.13885498046875,0.5470007658004761,0.6316147446632385,1.4531447887420654,125.4081573486328,-77.45822143554688,282.6659851074219
1700075748,0.9160614013671876,-0.6385345458984375,0.5014190673828125,-0.673125684261322,1.0710874795913696,1.578861117362976,125.36720275878906,-77.38925170898438,282.3060302734375
1700075748,1.323455810546875,-0.3282470703125,0.36712646484375,-1.741581916809082,1.3931922912597656,1.9122450351715088,125.54940795898438,-77.20730590820312,282.3150939941406
1700075748,1.5197906494140625,0.02325439453125,0.1823577880859375,-1.4753658771514893,1.5238080024719238,2.078371047973633,125.5632781982422,-76.9298095703125,281.83056640625
1700075748,1.639190673828125,0.1943511962890625,-0.1900177001953125,-0.6834251880645752,0.9698151350021362,1.7093416452407837,125.33619689941406,-76.82252502441406,281.5926208496094
1700075748,1.4876708984375,0.3612060546875,-0.5525970458984375,-0.4128456115722656,0.0511281639337539,1.0881071090698242,125.7537078857422,-76.42791748046875,281.7128295898437
1700075748,1.289825439453125,0.55889892578125,-0.5851593017578125,-0.7105239033699036,-0.0611224770545959,0.5462478995323181,125.5446319580078,-76.18278503417969,281.66473388671875
1700075749,1.51531982421875,0.3416595458984375,-0.10711669921875,-0.1218630522489547,0.4506334960460663,0.180161252617836,125.30322265625,-75.86482238769531,281.519287109375
1700075749,1.9400482177734373,-0.1659698486328125,0.3570556640625,0.2431953400373459,1.010025978088379,0.2749290466308594,124.85317993164062,-75.50886535644531,281.2343139648437
1700075749,2.0103759765625,-0.151611328125,0.0644378662109375,-0.170015662908554,0.8852975964546204,0.9002672433853149,125.31591796875,-75.18740844726562,281.7384033203125
1700075749,1.4172821044921875,0.260833740234375,-0.3751068115234375,-0.2875595986843109,0.3792727589607239,1.0819493532180786,125.3312530517578,-74.90898132324219,281.7313232421875
1700075749,0.9251251220703124,0.26983642578125,-0.58221435546875,-0.3345958292484283,-0.1077312603592872,0.7796885967254639,125.51272583007812,-74.65069580078125,281.8953552246094
1700075749,0.7845458984375,0.22064208984375,-0.673553466796875,-0.3001838028430938,-0.3334490656852722,0.4513908922672272,125.3896942138672,-74.56338500976562,281.09814453125
1700075749,0.795928955078125,0.291473388671875,-0.446563720703125,-0.0011827098205685,-0.2099604159593582,0.2940257787704468,125.74891662597656,-74.28321838378906,281.3353881835937
1700075749,0.788909912109375,0.332763671875,-0.1763153076171875,0.2412658780813217,-0.0195545256137847,0.1976590156555175,125.36294555664062,-73.9822998046875,281.6861572265625
1700075749,0.860687255859375,0.285736083984375,-0.1382598876953125,0.3524885475635528,-0.002510295715183,0.0793542116880416,125.33596801757812,-73.39462280273438,281.9300231933594
1700075749,1.0005645751953125,0.278045654296875,-0.274444580078125,0.382779598236084,-0.0571644864976406,-0.0243434235453605,125.46278381347656,-73.35319519042969,282.2073974609375
1700075749,1.0928497314453125,0.1820526123046875,-0.3068084716796875,0.3223013579845428,-0.0246347729116678,-0.0925222113728523,125.27859497070312,-72.46224975585938,281.9783630371094
1700075749,1.1177825927734375,-0.0204315185546875,-0.217193603515625,0.2582850754261017,0.0638042762875557,0.012230833992362,125.08407592773438,-72.72198486328125,282.1600952148437
1700075749,0.9817962646484376,-0.077667236328125,-0.25762939453125,0.2130347788333892,0.0369878448545932,0.1701006293296814,125.17745971679688,-72.51690673828125,281.96612548828125
1700075749,0.8999176025390625,-0.055206298828125,-0.3509674072265625,0.1614107340574264,-0.0470045283436775,0.2556669116020202,125.14517211914062,-72.34767150878906,281.76629638671875
1700075749,0.917236328125,0.01983642578125,-0.347503662109375,0.0992994233965873,-0.0680277869105339,0.2716541588306427,125.173095703125,-72.44544982910156,281.8569030761719
1700075749,0.9175262451171876,0.141021728515625,-0.270233154296875,0.0645947083830833,-0.0182783398777246,0.23367241024971,125.25650024414062,-72.24516296386719,282.3121643066406
1700075749,0.904022216796875,0.2164459228515625,-0.1910552978515625,0.0902745053172111,0.0833353698253631,0.2095534950494766,125.20132446289062,-72.53767395019531,282.3905029296875
1700075749,0.8860626220703125,0.2125244140625,-0.15118408203125,0.1457833051681518,0.168378084897995,0.2494308650493621,125.35330200195312,-72.44218444824219,282.06719970703125
1700075749,0.877777099609375,0.1208343505859375,-0.184295654296875,0.2200069278478622,0.231453999876976,0.3942996263504028,125.147705078125,-72.04100036621094,282.28729248046875
1700075749,0.8729248046875,-0.0050506591796875,-0.2348175048828125,0.276084840297699,0.2827741801738739,0.6070766448974609,125.2510986328125,-72.00541687011719,282.5951232910156
1700075749,0.873016357421875,-0.11798095703125,-0.2399749755859375,0.2558493614196777,0.3238816559314728,0.830923318862915,125.02902221679688,-72.12568664550781,282.0408935546875
1700075749,0.8771820068359375,-0.20428466796875,-0.18670654296875,0.0979079231619834,0.4435302913188934,1.0154545307159424,124.92942810058594,-71.47579956054688,282.3037414550781
1700075749,0.9075164794921876,-0.305023193359375,-0.1654205322265625,-0.0198717098683118,0.5828855037689209,1.1997716426849363,125.20205688476562,-71.10304260253906,282.2666015625
1700075749,0.9077301025390624,-0.326171875,-0.207733154296875,0.0057002301327884,0.6652211546897888,1.4475151300430298,125.02642822265624,-71.35324096679688,282.4479675292969
1700075749,0.846466064453125,-0.1695709228515625,-0.343780517578125,0.1038582250475883,0.6068680882453918,1.5801810026168823,124.96603393554688,-70.54380798339844,282.35113525390625
1700075749,0.8431854248046875,0.088409423828125,-0.3638763427734375,0.1325085014104843,0.5719079971313477,1.569973707199097,124.64471435546876,-70.56234741210938,282.66192626953125
1700075749,0.861358642578125,0.3917236328125,-0.3227386474609375,0.1545235365629196,0.6327186226844788,1.4297689199447632,124.8611297607422,-70.57902526855469,282.467529296875
1700075749,0.9209136962890624,0.593048095703125,-0.200653076171875,0.383075475692749,0.7744030356407166,1.2596160173416138,125.18382263183594,-69.84220886230469,282.3631591796875
1700075749,1.0021820068359375,0.571990966796875,-0.0705413818359375,0.7627711296081543,0.9044079184532166,1.2298041582107544,124.87109375,-69.72016906738281,282.0656433105469
1700075749,1.02874755859375,0.3176727294921875,-0.11370849609375,1.0364586114883425,0.9721954464912416,1.3853271007537842,124.6636962890625,-69.1285400390625,282.4476013183594
1700075749,1.0704498291015625,-0.0346221923828125,-0.1841888427734375,1.017658233642578,1.033948540687561,1.6397143602371216,124.57720947265624,-68.5706787109375,282.07452392578125
1700075749,1.06024169921875,-0.25213623046875,-0.324981689453125,0.6722199320793152,1.0395945310592651,2.0430784225463867,124.90980529785156,-68.36479187011719,282.5194702148437
1700075749,0.90869140625,-0.2473297119140625,-0.594635009765625,0.6621630191802979,1.0531123876571655,2.407047986984253,124.73629760742188,-67.71122741699219,282.1777038574219
1700075749,0.829254150390625,-0.135772705078125,-0.5758514404296875,0.7052702903747559,1.0453062057495115,2.5004775524139404,124.94125366210938,-67.15727233886719,281.83123779296875
1700075749,0.8301544189453125,0.2216949462890625,-0.386810302734375,0.6807287335395813,1.0527758598327637,2.372599124908448,124.53724670410156,-66.29672241210938,281.94390869140625
1700075749,0.7985687255859375,0.62091064453125,-0.208648681640625,0.7888581156730652,1.1280449628829956,2.1329026222229004,124.64649963378906,-65.53489685058594,281.20672607421875
1700075749,0.899627685546875,0.8318328857421875,-0.1216888427734375,1.0213630199432373,1.1651612520217896,2.043144464492798,124.40940856933594,-64.87139892578125,281.487548828125
1700075749,1.1968536376953125,0.7885284423828125,-0.149169921875,1.0987614393234253,1.1101219654083252,2.0630831718444824,124.54670715332033,-63.966796875,281.5413818359375
1700075749,1.3566436767578125,0.4554901123046875,-0.2607879638671875,0.9724713563919068,1.0799152851104736,2.2574682235717773,124.73777770996094,-63.10652160644531,280.7977905273437
1700075749,1.0684356689453125,0.205078125,-0.425537109375,0.788424015045166,1.0425410270690918,2.506077289581299,124.4623565673828,-62.25193786621094,280.26483154296875
1700075749,0.8355560302734375,0.2039337158203125,-0.5113372802734375,0.6739051938056946,1.0086666345596311,2.605810642242432,124.35984802246094,-61.09342956542969,279.52020263671875
1700075749,0.851470947265625,0.3256683349609375,-0.4693450927734375,0.6584727168083191,1.024295210838318,2.5980677604675293,123.9090576171875,-60.05711364746094,278.4979248046875
1700075749,0.795318603515625,0.461944580078125,-0.4433441162109375,0.7148957848548889,0.978114366531372,2.515022993087769,124.19796752929688,-59.33979797363281,278.3314819335937
1700075749,0.7977447509765625,0.5936126708984375,-0.46807861328125,0.8409335613250732,0.933890163898468,2.4146289825439453,124.37741088867188,-58.454010009765625,277.9371032714844
1700075749,0.928466796875,0.6424713134765625,-0.4871673583984375,0.8787693977355957,0.8573415875434875,2.346309185028076,123.86685180664062,-57.582611083984375,277.6750793457031
1700075749,1.0980987548828125,0.615447998046875,-0.5115814208984375,0.9434524774551392,0.6799646615982056,2.376831293106079,123.69577026367188,-56.73377990722656,277.1402893066406
1700075749,1.1628875732421875,0.6488037109375,-0.5272369384765625,0.9382612109184264,0.5451988577842712,2.4140896797180176,123.74322509765624,-55.24053955078125,277.04119873046875
1700075749,1.2663421630859375,0.634429931640625,-0.4154052734375,0.8862797617912292,0.4594272375106811,2.498983860015869,123.34524536132812,-54.75801086425781,276.3466186523437
1700075749,1.4356231689453125,0.5786895751953125,-0.4217071533203125,0.7772126793861389,0.2740776240825653,2.593222618103028,123.14698791503906,-53.745635986328125,275.318359375
1700075749,1.6636810302734375,0.5065765380859375,-0.4522552490234375,0.6910111904144287,0.099587045609951,2.68856143951416,122.9704132080078,-52.96803283691406,274.8793334960937
1700075749,1.7868194580078125,0.4096221923828125,-0.4451446533203125,0.5165048837661743,-0.1002064943313598,2.799550294876098,122.77272033691406,-51.79673767089844,274.3789367675781
1700075749,1.784637451171875,0.344207763671875,-0.49151611328125,0.3352437615394592,-0.2881566882133484,2.77193546295166,122.0827178955078,-50.63591003417969,274.2699584960937
1700075749,1.760284423828125,0.2754669189453125,-0.5350494384765625,0.1713046431541443,-0.4613985121250152,2.57238507270813,122.06298828125,-49.70860290527344,274.18511962890625
1700075749,1.57684326171875,0.2465362548828125,-0.614837646484375,-0.0348288193345069,-0.6481289863586426,2.217590808868408,121.68125915527344,-48.768951416015625,273.2136535644531
1700075749,1.2638702392578125,0.1972503662109375,-0.631195068359375,-0.2420294135808944,-0.6366627216339111,1.82631254196167,121.57647705078124,-47.83195495605469,272.6395263671875
1700075749,0.8576202392578125,0.133514404296875,-0.6107330322265625,-0.5095239877700806,-0.3886334896087646,1.436467528343201,120.641357421875,-46.89146423339844,272.76617431640625
1700075749,0.3776397705078125,0.040191650390625,-0.7377166748046875,-0.786633312702179,-0.3554316163063049,1.023026466369629,120.57608032226562,-45.625091552734375,272.195556640625
1700075749,-0.00567626953125,-0.0731658935546875,-0.711456298828125,-0.956165373325348,-0.4568450450897217,0.6115765571594238,120.11376953125,-44.70103454589844,272.23199462890625
1700075749,-0.29571533203125,-0.1531524658203125,-0.5870819091796875,-0.6234982013702393,-0.590031087398529,0.0785174444317817,119.6589813232422,-43.89703369140625,272.05859375
1700075749,-0.4782867431640625,-0.2750396728515625,-0.27740478515625,0.1989634335041046,-0.7617096304893494,-0.702491819858551,118.76530456542967,-42.54774475097656,271.513916015625
1700075749,-0.502227783203125,-0.3775634765625,0.1502838134765625,0.7172713279724121,-0.8637763261795044,-1.5015580654144287,118.3468780517578,-41.941436767578125,271.4962158203125
1700075749,-0.293701171875,-0.240081787109375,0.36187744140625,0.9547134041786194,-1.1000267267227173,-2.110147714614868,117.96424865722656,-40.93452453613281,270.691162109375
1700075749,-0.146026611328125,0.0441741943359375,0.1867523193359375,1.0265138149261477,-1.2024004459381104,-2.535661458969116,117.2474365234375,-39.38059997558594,270.94683837890625
1700075749,-0.094390869140625,0.1420745849609375,-0.25726318359375,1.1381282806396484,-1.16374409198761,-2.91624116897583,116.2948760986328,-38.56474304199219,271.5332946777344
1700075749,0.077392578125,-0.0458984375,-0.2393035888671875,1.1378108263015747,-1.018013834953308,-3.251504421234131,115.41342163085938,-37.50984191894531,271.5785522460937
1700075749,0.2467041015625,-0.276031494140625,0.009307861328125,0.8057860136032104,-0.9195791482925416,-3.5507712364196777,114.83172607421876,-36.50703430175781,271.75506591796875
1700075749,0.3805084228515625,-0.4078521728515625,0.0586090087890625,0.2398163229227066,-0.9209432005882264,-3.7841391563415527,113.64680480957033,-35.23115539550781,271.8946838378906
1700075749,0.49676513671875,-0.437774658203125,0.0289764404296875,-0.5701870322227478,-0.9174938797950744,-3.874431610107422,113.14933776855467,-34.21427917480469,272.2660827636719
1700075749,0.5760955810546875,-0.3316497802734375,-0.0755462646484375,-1.4138522148132324,-0.9755140542984008,-3.896841287612915,112.11654663085938,-33.455047607421875,272.8301696777344
1700075749,0.6676025390625,-0.17755126953125,-0.1173095703125,-2.0259366035461426,-0.9856287240982056,-4.069818496704102,110.76332092285156,-32.66796875,273.4043273925781
1700075749,0.8023834228515625,-0.12884521484375,-0.170440673828125,-2.352707624435425,-0.9496382474899292,-4.309005260467529,109.65602111816406,-32.2161865234375,274.4501953125
1700075749,0.8918609619140625,-0.0608978271484375,-0.27081298828125,-2.469179391860962,-0.9961543083190918,-4.370130062103272,108.8914794921875,-31.568603515625,273.5687866210937
1700075749,0.948516845703125,0.1040191650390625,-0.2985076904296875,-2.4533228874206543,-1.242298603057861,-4.274047374725342,108.35975646972656,-30.84075927734375,274.7275390625
1700075749,1.0501251220703125,0.325164794921875,-0.244415283203125,-2.4245238304138184,-1.6161619424819946,-4.045594215393066,107.67269897460938,-30.533981323242188,274.3241577148437
1700075749,1.1615753173828125,0.5885162353515625,-0.2420196533203125,-2.0394434928894043,-1.8289077281951904,-3.876288414001465,107.6318359375,-30.31170654296875,275.3990783691406
1700075749,1.2539825439453125,0.796661376953125,-0.2411651611328125,-1.0510942935943604,-1.8048127889633176,-3.906076192855835,107.2889404296875,-30.61962890625,275.4801025390625
1700075749,1.331207275390625,0.9535675048828124,-0.2744903564453125,0.2530439794063568,-1.8552088737487795,-3.987616539001465,107.73054504394533,-31.20820617675781,275.9776611328125
1700075749,1.39788818359375,1.152587890625,-0.2368316650390625,1.0080010890960691,-1.982084035873413,-4.097924709320068,107.81829833984376,-31.87925720214844,276.1611022949219
1700075749,1.5348358154296875,1.3515625,-0.2308349609375,0.905413806438446,-1.9494600296020508,-4.319448947906494,108.6308135986328,-32.91737365722656,276.7841186523437
1700075749,1.6582489013671875,1.424591064453125,-0.301239013671875,0.6112940311431885,-1.6931869983673096,-4.59373140335083,109.26173400878906,-34.206390380859375,277.43194580078125
1700075749,1.6495819091796875,1.2230377197265625,-0.351531982421875,0.3428561687469482,-1.4343841075897217,-4.507842063903809,109.89849853515624,-35.85108947753906,277.741455078125
1700075749,1.4429168701171875,1.0053253173828125,-0.4120941162109375,0.0095410412177443,-1.2487818002700806,-4.177135467529297,111.06700134277344,-37.29960632324219,277.97515869140625
1700075749,1.3068389892578125,0.8677978515625,-0.54608154296875,-0.181408405303955,-1.1835380792617798,-3.809362173080444,112.20982360839844,-39.207611083984375,278.50445556640625
1700075749,1.3126983642578125,0.741180419921875,-0.627593994140625,-0.4952883124351501,-1.1913185119628906,-3.466949701309204,113.08245849609376,-41.40565490722656,278.44189453125
1700075749,1.2808380126953125,0.6280975341796875,-0.689605712890625,-0.8524605631828308,-1.1977521181106567,-3.051832437515259,114.0872802734375,-43.505889892578125,277.90704345703125
1700075749,1.2235260009765625,0.5808868408203125,-0.674072265625,-1.018097996711731,-1.204906702041626,-2.5562212467193604,114.65585327148438,-45.04597473144531,278.0507507324219
1700075749,1.1817474365234375,0.5891571044921875,-0.5598297119140625,-1.0634779930114746,-1.1735528707504272,-2.08459734916687,115.53890991210938,-46.92333984375,277.9283447265625
1700075749,1.093963623046875,0.624359130859375,-0.4710693359375,-0.958249807357788,-1.0778721570968628,-1.709771990776062,116.27976989746094,-48.8291015625,277.6595764160156
1700075749,1.0075225830078125,0.71295166015625,-0.380645751953125,-0.5452697277069092,-0.9421619176864624,-1.424103021621704,116.44694519042967,-50.661865234375,277.284423828125
1700075749,0.9286956787109376,0.8386077880859375,-0.288055419921875,-0.006901049055159,-0.758308470249176,-1.2426797151565552,116.75080871582033,-52.51853942871094,277.70916748046875
1700075749,0.8306427001953125,0.91656494140625,-0.2391357421875,0.5429080128669739,-0.5200141668319702,-1.1164458990097046,117.48570251464844,-54.87568664550781,278.195556640625
1700075749,0.68896484375,0.903472900390625,-0.21063232421875,1.0236881971359253,-0.261432409286499,-0.9226644039154052,117.48109436035156,-56.83848571777344,278.405517578125
1700075749,0.5582733154296875,0.7879638671875,-0.211090087890625,1.3143751621246338,-0.0224200878292322,-0.6851509213447571,117.66322326660156,-59.56098937988281,279.0884704589844
1700075749,0.522125244140625,0.59906005859375,-0.251708984375,1.4115318059921265,0.1519037783145904,-0.4295652210712433,117.76641845703124,-61.64491271972656,279.633544921875
1700075749,0.583038330078125,0.41607666015625,-0.2892913818359375,1.34699547290802,0.2960348427295685,-0.1651442199945449,117.7699737548828,-63.96989440917969,281.0534973144531
1700075749,0.6894989013671875,0.2772674560546875,-0.3284149169921875,1.163113713264465,0.4254215955734253,0.0516866296529769,117.8132781982422,-66.50492858886719,280.8399658203125
1700075749,0.792724609375,0.1509246826171875,-0.3725738525390625,0.914611518383026,0.5140401721000671,0.243617445230484,117.40213012695312,-68.58244323730469,281.940673828125
1700075749,0.8354034423828125,0.06158447265625,-0.399261474609375,0.5892683267593384,0.5576568841934204,0.4323447644710541,117.20550537109376,-70.40159606933594,282.2464599609375
1700075749,0.8070526123046875,0.0067291259765625,-0.4495697021484375,0.2123343646526336,0.5469980835914612,0.6240614652633667,117.10354614257812,-72.69876098632812,283.44775390625
1700075750,0.743316650390625,-0.0456085205078125,-0.4590606689453125,-0.2488111555576324,0.5514621138572693,0.902741312980652,116.7100830078125,-74.16758728027344,283.4682006835937
1700075750,0.6647491455078125,-0.07550048828125,-0.4250640869140625,-0.6665703058242798,0.6267490983009338,1.216825246810913,116.0482940673828,-75.54133605957031,284.406005859375
1700075750,0.6214447021484375,-0.09600830078125,-0.3950347900390625,-1.1314024925231934,1.0388556718826294,1.269884705543518,115.96826171875,-76.89381408691406,284.57720947265625
1700075750,0.53216552734375,-0.1254730224609375,-0.6638946533203125,-1.410584807395935,1.0354106426239014,1.3104465007781982,115.32733154296876,-78.42076110839844,284.6493530273437
1700075750,0.543548583984375,-0.035186767578125,-0.496063232421875,-1.4127379655838013,1.3147282600402832,1.3904025554656982,115.1162109375,-79.80499267578125,284.87451171875
1700075750,0.8496551513671875,0.11785888671875,-0.6388092041015625,-0.7761495113372803,4.492221355438232,2.03101134300232,114.35578918457033,-81.38027954101562,285.5213928222656
1700075750,-0.065521240234375,0.8128204345703125,-3.1089019775390625,-0.2965664267539978,0.9397571086883544,2.989875555038452,113.84661865234376,-82.19949340820312,285.850341796875
1700075750,1.2840118408203125,1.4855194091796875,-0.506683349609375,-0.3709953725337982,-1.5602717399597168,2.001190662384033,113.77711486816406,-83.61944580078125,285.7846984863281
1700075750,4.270065307617188,-0.009552001953125,0.866363525390625,0.3453366160392761,-0.174293503165245,-0.0177347883582115,113.19418334960938,-84.52728271484375,285.35504150390625
1700075750,2.9208526611328125,-1.00439453125,0.047088623046875,0.8854414224624634,1.104254961013794,0.2726658880710602,112.69711303710938,-85.53697204589844,285.688232421875
1700075750,1.030029296875,-0.4868927001953125,1.434906005859375,1.383609414100647,1.8147977590560915,0.73543381690979,112.51358032226562,-86.62190246582031,285.1100769042969
1700075750,0.434356689453125,-0.3957061767578125,0.8722381591796875,0.4006552696228027,1.27648663520813,0.9541608095169068,112.28054809570312,-87.75700378417969,284.87872314453125
1700075750,0.451690673828125,-0.13134765625,-0.0298004150390625,-0.5651012063026428,0.971019685268402,1.1744098663330078,112.35052490234376,-88.32221984863281,284.629638671875
1700075750,0.85577392578125,-0.0850677490234375,-0.1411590576171875,-1.031706690788269,0.9686279296875,1.3271520137786863,112.11378479003906,-89.1510009765625,284.5912780761719
1700075750,1.320709228515625,-0.0550537109375,-0.1391754150390625,-1.4662480354309082,1.0294177532196045,1.0629948377609253,112.14524841308594,-89.39036560058594,283.76104736328125
1700075750,1.706268310546875,-0.0649871826171875,-0.3690643310546875,-1.1914290189743042,0.7284259796142578,0.4331175982952118,112.25132751464844,-89.63349914550781,283.7579345703125
1700075750,1.93792724609375,-0.2231292724609375,-0.3016204833984375,-0.8340746164321899,0.3498291075229645,0.3560342788696289,112.23809814453124,-89.154541015625,283.4742126464844
1700075750,2.2566070556640625,-0.16094970703125,-0.076141357421875,-0.4322563409805298,0.3577336370944977,0.6933859586715698,111.86613464355467,-88.82894897460938,283.28302001953125
1700075750,2.6832275390625,-0.15325927734375,0.0867767333984375,0.3096473217010498,0.6620551943778992,1.4493622779846191,112.1645965576172,-87.94575500488281,282.974365234375
1700075750,2.166259765625,-0.023406982421875,0.1774139404296875,0.2704368233680725,0.7352926731109619,2.040714263916016,112.70326232910156,-87.08279418945312,283.48590087890625
1700075750,1.1854248046875,0.2327117919921875,-0.028778076171875,-0.0765834599733352,0.6239754557609558,2.027097702026367,112.9151611328125,-86.52433776855469,283.1649780273437
1700075750,0.6417083740234375,0.2821807861328125,-0.385467529296875,-0.0491134822368621,0.2890557646751404,1.361794352531433,112.92381286621094,-86.13923645019531,283.091064453125
1700075750,0.3890533447265625,0.3513946533203125,-0.68182373046875,0.1491221040487289,0.0364706590771675,0.8012120127677917,113.17588806152344,-84.58309936523438,282.8672180175781
1700075750,0.474822998046875,0.6398468017578125,-0.6743316650390625,0.4379677474498749,-0.0304476544260978,0.5283905863761902,113.1902313232422,-83.80642700195312,282.8924560546875
1700075750,0.758392333984375,0.68524169921875,-0.3267059326171875,0.5471866726875305,0.005321794655174,0.2860376238822937,113.2633056640625,-82.8267822265625,282.0892639160156
1700075750,0.9417572021484376,0.4967498779296875,-0.11895751953125,0.4333948493003845,0.0667500048875808,0.1133627742528915,113.87034606933594,-82.13728332519531,279.58648681640625
1700075750,1.049468994140625,0.3078155517578125,-0.2276153564453125,0.2776947319507599,0.0731245428323745,-0.0165004134178161,114.07864379882812,-81.34393310546875,279.01348876953125
1700075750,1.1381378173828125,0.056549072265625,-0.3267364501953125,0.1529589295387268,0.1028989478945732,0.0108076399192214,114.2436981201172,-81.23039245605469,279.8251953125
1700075750,1.1284332275390625,-0.088104248046875,-0.3619232177734375,0.1256615221500396,0.0800980329513549,0.2674042880535126,114.08958435058594,-81.56161499023438,279.5916748046875
1700075750,1.0137481689453125,-0.0924530029296875,-0.3360595703125,0.0860778912901878,0.067258134484291,0.5749727487564087,113.85733032226562,-82.01350402832031,278.7037658691406
1700075750,0.95904541015625,-0.0582733154296875,-0.3070831298828125,-0.0346045829355716,0.0998027622699737,0.6832361221313477,114.3380126953125,-81.79765319824219,277.6610107421875
1700075750,0.959014892578125,0.0290679931640625,-0.2928924560546875,-0.1137071251869201,0.1322837322950363,0.6654800176620483,114.5406494140625,-81.06687927246094,276.6415405273437
1700075750,0.89056396484375,0.1215667724609375,-0.2514801025390625,-0.0754598677158355,0.1979783326387405,0.5817217230796814,114.48086547851562,-80.15937805175781,276.1478271484375
1700075750,0.872711181640625,0.1177978515625,-0.18768310546875,0.0744601190090179,0.2769642174243927,0.5746827125549316,114.44476318359376,-79.44308471679688,275.63330078125
1700075750,0.8739776611328125,0.0871124267578125,-0.1713104248046875,0.2870514690876007,0.3504070043563843,0.703996479511261,114.35964965820312,-78.63084411621094,275.593505859375
1700075750,0.8742218017578125,0.05029296875,-0.2281036376953125,0.4596331119537353,0.4007863104343414,0.8823001980781555,114.50309753417967,-78.08537292480469,274.78399658203125
1700075750,0.8716278076171875,0.0088348388671875,-0.2850189208984375,0.5351941585540771,0.4255872666835785,1.0598121881484983,114.29725646972656,-77.76773071289062,274.7464599609375
1700075750,0.8382110595703125,0.0222625732421875,-0.3186492919921875,0.5230549573898315,0.4656859338283539,1.2079360485076904,114.39710998535156,-77.43894958496094,274.5233764648437
1700075750,0.8252105712890625,0.0854949951171875,-0.331634521484375,0.5025616884231567,0.5192671418190002,1.2834771871566772,114.31802368164062,-77.44847106933594,274.13629150390625
1700075750,0.86883544921875,0.1695098876953125,-0.2722930908203125,0.4782898724079132,0.5862733125686646,1.3361566066741943,114.41690063476562,-77.84576416015625,274.5885009765625
1700075750,0.9184722900390624,0.257598876953125,-0.1872100830078125,0.4818872809410095,0.6988182663917542,1.3698986768722534,114.46688842773438,-77.57614135742188,274.633544921875
1700075750,0.95269775390625,0.2596435546875,-0.1992950439453125,0.5449346899986267,0.7548967003822327,1.4282002449035645,114.59324645996094,-77.37406921386719,274.94097900390625
1700075750,0.969085693359375,0.194580078125,-0.215728759765625,0.5846594572067261,0.8063516616821289,1.531624436378479,114.63441467285156,-76.6522216796875,274.3334350585937
1700075750,0.917266845703125,0.1305999755859375,-0.318511962890625,0.6135385036468506,0.8237178325653076,1.616206169128418,114.65293884277344,-75.94947814941406,274.36932373046875
1700075750,0.8157806396484375,0.13482666015625,-0.409423828125,0.6931675672531128,0.8040256500244141,1.7282320261001587,114.87580871582033,-75.27119445800781,274.2934265136719
1700075750,0.73126220703125,0.2055511474609375,-0.4005889892578125,0.7306129336357117,0.8216171264648438,1.7551096677780151,114.82527160644533,-75.173095703125,274.34014892578125
1700075750,0.742156982421875,0.3559722900390625,-0.384979248046875,0.732602059841156,0.8214640021324158,1.701793193817139,114.81988525390624,-75.03840637207031,274.37603759765625
1700075750,0.85894775390625,0.4552001953125,-0.3101806640625,0.7772246599197388,0.876205563545227,1.6534736156463623,114.84333801269533,-75.02583312988281,273.8397521972656
1700075750,0.9553375244140624,0.4194183349609375,-0.3177490234375,0.8692429661750793,0.9200007319450378,1.682619571685791,114.99664306640624,-74.87486267089844,273.099853515625
1700075750,1.02264404296875,0.3234405517578125,-0.358551025390625,0.8788964152336121,0.9179056286811828,1.7965964078903198,114.93701171875,-74.43763732910156,273.28521728515625
1700075750,0.98443603515625,0.2903289794921875,-0.4415130615234375,0.8323763012886047,0.8859111666679382,1.9554343223571773,114.42559814453124,-73.90568542480469,273.330322265625
1700075750,0.94952392578125,0.2743377685546875,-0.4765472412109375,0.8413367867469788,0.8657715320587158,2.0908849239349365,114.79342651367188,-73.57479858398438,272.9893798828125
1700075750,1.100311279296875,0.310699462890625,-0.42437744140625,0.8030685186386108,0.8514256477355957,2.221879005432129,115.224365234375,-73.07429504394531,272.9908142089844
1700075750,1.24273681640625,0.3900909423828125,-0.43658447265625,0.8089804649353027,0.8206685185432434,2.321862936019897,115.05070495605467,-73.08489990234375,273.5386962890625
1700075750,1.258636474609375,0.4116973876953125,-0.4580230712890625,0.8629571199417114,0.7936190962791443,2.4308788776397705,114.82981872558594,-72.26759338378906,273.43621826171875
1700075750,1.238189697265625,0.3820037841796875,-0.413909912109375,0.8361936807632446,0.7852708697319031,2.531806707382202,114.7369384765625,-72.47898864746094,273.17950439453125
1700075750,1.119903564453125,0.3307037353515625,-0.407684326171875,0.8399527668952942,0.7861129641532898,2.5885279178619385,114.73448181152344,-72.24577331542969,273.107666015625
1700075750,0.92388916015625,0.3970794677734375,-0.46795654296875,0.8952839374542236,0.7552745938301086,2.5177788734436035,114.99667358398438,-72.10287475585938,273.0209045410156
1700075750,0.876800537109375,0.5419158935546875,-0.5059814453125,1.005086064338684,0.7096828818321228,2.39636778831482,115.01695251464844,-71.38351440429688,272.32196044921875
1700075750,0.8586578369140625,0.64483642578125,-0.5015106201171875,1.1293810606002808,0.7055653929710388,2.307756423950196,114.6609344482422,-71.40162658691406,272.3136291503906
1700075750,0.9938812255859376,0.7085113525390625,-0.4383697509765625,1.1740542650222778,0.6957675814628601,2.264686822891236,114.93800354003906,-70.49247741699219,272.30474853515625
1700075750,1.31396484375,0.66156005859375,-0.375030517578125,1.144449234008789,0.6430567502975464,2.2833151817321777,114.9161376953125,-69.97996520996094,271.98297119140625
1700075750,1.5580902099609375,0.5404510498046875,-0.3751220703125,0.9898008108139038,0.5428526401519775,2.338553667068481,114.83390808105467,-68.83688354492188,271.6261291503906
1700075750,1.723785400390625,0.4234161376953125,-0.4066009521484375,0.7621492743492126,0.4114043116569519,2.3505847454071045,114.62704467773438,-68.08283996582031,270.8912353515625
1700075750,1.8226470947265625,0.29791259765625,-0.45074462890625,0.5306590795516968,0.2330223321914672,2.3141443729400635,114.41079711914062,-67.28375244140625,270.5707397460937
1700075750,1.816619873046875,0.2234954833984375,-0.5086517333984375,0.2898222208023071,-0.0231609791517257,2.174556016921997,114.37107849121094,-66.89741516113281,270.6534423828125
1700075750,1.681640625,0.2116546630859375,-0.5723419189453125,0.0307571142911911,-0.3153853714466095,1.892135500907898,114.52944946289062,-66.17242431640625,270.1669921875
1700075750,1.37255859375,0.228485107421875,-0.5288848876953125,-0.2903018593788147,-0.35610032081604,1.7033780813217163,114.55085754394533,-65.18876647949219,269.86065673828125
1700075750,0.80462646484375,0.3233795166015625,-0.5063934326171875,-0.5379515886306763,-0.1393134146928787,1.4366049766540527,114.4523468017578,-64.27862548828125,269.64312744140625
1700075750,0.3228302001953125,0.2840728759765625,-0.468780517578125,-0.4839474856853485,-0.0130518861114978,0.926715850830078,113.983154296875,-63.68634033203125,268.6646728515625
1700075750,0.087158203125,0.07940673828125,-0.3101043701171875,-0.4771521687507629,-0.1261368989944458,0.4607513546943664,113.80616760253906,-62.55438232421875,268.4481811523437
1700075750,-0.163299560546875,0.0037689208984375,-0.2391510009765625,-0.3731695711612701,-0.3225364983081817,0.0176599528640508,113.65504455566406,-61.3428955078125,267.83270263671875
1700075750,-0.3573760986328125,-0.0567779541015625,-0.1279754638671875,-0.1283108294010162,-0.5360413193702698,-0.5558789372444153,113.1902313232422,-60.41258239746094,267.3386535644531
1700075750,-0.3501129150390625,-0.174713134765625,0.073211669921875,0.0660096406936645,-0.7251697182655334,-1.2864148616790771,112.8330535888672,-58.59735107421875,267.0848999023437
1700075750,-0.2251434326171875,-0.298980712890625,0.1508636474609375,0.0505832806229591,-0.8447637557983398,-1.9726076126098635,112.70597839355467,-57.64254760742188,266.9375
1700075750,-0.167572021484375,-0.3103179931640625,-0.085662841796875,0.1022328957915306,-0.8594185709953308,-2.5261948108673096,111.92471313476562,-56.349395751953125,266.2193298339844
1700075750,-0.08551025390625,-0.2294464111328125,-0.3099822998046875,0.3266622722148895,-0.805898129940033,-3.004367589950561,111.76788330078124,-55.15568542480469,266.1777038574219
1700075750,0.0808868408203125,-0.2266998291015625,-0.2334747314453125,0.5382714867591858,-0.7559608817100525,-3.4247026443481445,111.11431884765624,-53.64418029785156,265.6293334960937
1700075750,0.24322509765625,-0.2291259765625,-0.118743896484375,0.578315794467926,-0.6998182535171509,-3.799804449081421,110.372802734375,-52.6297607421875,264.6791381835937
1700075750,0.3660736083984375,-0.227691650390625,-0.14630126953125,0.4679450988769531,-0.6688308119773865,-4.069747924804688,110.14320373535156,-51.77970886230469,264.51129150390625
1700075750,0.463348388671875,-0.206024169921875,-0.2195587158203125,0.3665361702442169,-0.6473012566566467,-4.233441352844238,109.12074279785156,-50.35983276367188,264.92999267578125
1700075750,0.554168701171875,-0.172119140625,-0.1798095703125,0.2323967516422271,-0.578981339931488,-4.311883926391602,108.87303161621094,-48.65988159179688,263.93212890625
1700075750,0.6526336669921875,-0.1100616455078125,-0.1131134033203125,-0.1474858671426773,-0.4861579239368438,-4.3496809005737305,108.61972045898438,-47.645843505859375,263.84393310546875
1700075750,0.7581939697265625,-0.0104522705078125,-0.166046142578125,-0.6464328169822693,-0.4792478084564209,-4.3574934005737305,107.34423828125,-46.11839294433594,263.9393615722656
1700075750,0.87408447265625,0.12939453125,-0.224700927734375,-0.9889547228813172,-0.5704951882362366,-4.308923721313477,106.70930480957033,-45.03849792480469,262.865234375
1700075750,1.0164337158203125,0.3016510009765625,-0.226837158203125,-1.1939043998718262,-0.780875027179718,-4.300703525543213,105.5130615234375,-43.60191345214844,264.0460205078125
1700075750,1.1455535888671875,0.450531005859375,-0.163848876953125,-1.3109010457992554,-0.9216609001159668,-4.328885555267334,104.92019653320312,-42.253753662109375,264.0477905273437
1700075750,1.228485107421875,0.583831787109375,-0.136688232421875,-1.157121658325195,-1.0253697633743286,-4.381946086883545,103.78713989257812,-40.63175964355469,263.744140625
1700075750,1.22845458984375,0.754302978515625,-0.1269378662109375,-0.4084878861904144,-1.1642019748687744,-4.408129215240479,102.68968200683594,-39.46205139160156,264.0736694335937
1700075750,1.2204742431640625,0.9255828857421876,-0.07861328125,0.683525562286377,-1.3329297304153442,-4.415173530578613,101.3297882080078,-37.97087097167969,263.5847473144531
1700075750,1.3300628662109375,1.0348052978515625,-0.02899169921875,1.4274545907974243,-1.3821909427642822,-4.451255798339844,99.6630859375,-36.12242126464844,263.4799499511719
1700075750,1.465545654296875,1.084869384765625,-0.0684051513671875,1.6716105937957764,-1.3064541816711426,-4.488039970397949,98.72994995117188,-35.3934326171875,263.9505920410156
1700075750,1.5067901611328125,1.1075286865234375,-0.1423797607421875,1.6355446577072144,-1.0339432954788208,-4.421074867248535,97.25575256347656,-34.21661376953125,263.20330810546875
1700075750,1.427978515625,1.135955810546875,-0.3673248291015625,1.6179747581481934,-0.8261772990226746,-4.22910213470459,96.41242980957033,-33.41123962402344,263.2566833496094
1700075750,1.23919677734375,1.129608154296875,-0.5248565673828125,1.518988013267517,-0.8377098441123962,-3.9740145206451416,95.58392333984376,-32.63142395019531,263.17193603515625
1700075750,1.183258056640625,1.069854736328125,-0.527191162109375,1.362248182296753,-0.8789523243904114,-3.774104356765747,94.98594665527344,-32.05743408203125,262.3578796386719
1700075750,1.2120208740234375,0.95477294921875,-0.49267578125,1.2346981763839722,-0.8250513076782227,-3.558906316757202,94.49371337890624,-31.863998413085938,262.28936767578125
1700075750,1.204620361328125,0.8454132080078125,-0.4168853759765625,1.1639009714126587,-0.7006049752235413,-3.291468858718872,94.03799438476562,-32.15522766113281,261.8179931640625
1700075750,1.1244354248046875,0.72857666015625,-0.3363037109375,1.062402844429016,-0.5594332218170166,-2.9851810932159424,94.08364868164062,-32.33607482910156,261.7235717773437
1700075750,1.0020599365234375,0.59979248046875,-0.3419952392578125,0.9410234093666076,-0.466198593378067,-2.6556596755981445,94.25778198242188,-32.62776184082031,262.740234375
1700075751,0.941253662109375,0.4977874755859375,-0.360565185546875,0.8255085349082947,-0.4704380929470062,-2.326239585876465,94.9832763671875,-33.920196533203125,262.61846923828125
1700075751,0.95074462890625,0.4384307861328125,-0.3252716064453125,0.8318570256233215,-0.5017909407615662,-2.008841037750244,96.02633666992188,-34.86485290527344,263.0745544433594
1700075751,0.970306396484375,0.4117431640625,-0.277679443359375,0.9552689790725708,-0.5119325518608093,-1.768412470817566,96.57723999023438,-36.13731384277344,263.49774169921875
1700075751,0.9610595703125,0.3839263916015625,-0.242919921875,1.0891956090927124,-0.4596101939678192,-1.5767607688903809,97.71989440917967,-37.433380126953125,264.170654296875
1700075751,0.8895721435546875,0.3661956787109375,-0.2406005859375,1.2270256280899048,-0.3535910844802856,-1.4160763025283811,98.67282104492188,-38.97163391113281,263.83905029296875
1700075751,0.826751708984375,0.3337860107421875,-0.266632080078125,1.3724381923675537,-0.2263926565647125,-1.2150813341140747,99.52828979492188,-40.65861511230469,264.81134033203125
1700075751,0.7972564697265625,0.32611083984375,-0.3096160888671875,1.5237596035003662,-0.1123198866844177,-0.9553605914115906,100.5747528076172,-42.660247802734375,265.1343994140625
1700075751,0.80035400390625,0.3549652099609375,-0.3485107421875,1.6911141872406006,-0.0693652257323265,-0.614173173904419,101.56080627441406,-44.48182678222656,265.0738525390625
1700075751,0.8332977294921875,0.43170166015625,-0.339996337890625,1.895330190658569,-0.0315147824585437,-0.3359806835651397,102.43270874023438,-46.10075378417969,265.5482788085937
1700075751,0.839569091796875,0.4573516845703125,-0.315765380859375,2.147627592086792,0.0466844141483306,-0.2010239213705063,103.24940490722656,-48.32963562011719,265.558837890625
1700075751,0.7962188720703125,0.36968994140625,-0.2537841796875,2.289368391036988,0.1476384550333023,-0.1206198930740356,103.5456085205078,-50.32037353515625,265.7975158691406
1700075751,0.7626953125,0.2131500244140625,-0.2071380615234375,2.2519872188568115,0.300327867269516,0.0321020111441612,104.07217407226562,-51.832427978515625,266.03271484375
1700075751,0.752044677734375,0.071929931640625,-0.2690582275390625,2.132458209991455,0.3952397406101227,0.2025978416204452,104.31126403808594,-54.05848693847656,266.9544677734375
1700075751,0.7433624267578125,-0.0157318115234375,-0.3673858642578125,1.9518531560897827,0.44501793384552,0.3966735899448395,104.8501434326172,-56.226165771484375,267.1553955078125
1700075751,0.736053466796875,-0.04779052734375,-0.4360504150390625,1.7827564477920532,0.5710209012031555,0.6366475820541382,105.17724609375,-58.38099670410156,267.5861511230469
1700075751,0.7429962158203125,-0.0322418212890625,-0.5264739990234375,1.3767865896224976,0.8664548993110657,0.7165205478668213,105.3328094482422,-59.772735595703125,268.6210327148437
1700075751,0.5996246337890625,-0.0462646484375,-0.7974853515625,1.3210586309432983,0.7044593691825867,0.5992964506149292,105.47770690917967,-61.97018432617188,269.112548828125
1700075751,0.79779052734375,-0.166961669921875,-0.4652557373046875,1.348634123802185,0.8546070456504822,0.699795126914978,105.41218566894533,-63.80755615234375,269.57635498046875
1700075751,1.0443267822265625,-0.027008056640625,-0.534027099609375,1.1556675434112549,3.1771135330200195,1.5660300254821775,105.4639129638672,-65.6826171875,270.772705078125
1700075751,0.134185791015625,0.669769287109375,-2.449462890625,1.4497995376586914,1.3504031896591189,3.189612865447998,105.59056091308594,-67.32081604003906,271.01776123046875
1700075751,0.5917510986328125,1.432769775390625,-0.7801361083984375,-0.0717373043298721,-1.950801968574524,2.931037425994873,105.601806640625,-68.73306274414062,271.3703918457031
1700075751,3.4665069580078125,0.190460205078125,1.1223907470703125,-0.6496384739875793,-0.0662930011749267,0.5129450559616089,105.2873992919922,-69.99801635742188,271.40740966796875
1700075751,2.9712066650390625,-1.5657958984375,0.16357421875,0.0425296165049076,1.7997184991836548,-0.2204311788082122,105.16700744628906,-71.000244140625,272.5928955078125
1700075751,1.4031524658203125,-1.2659149169921875,1.118804931640625,-0.6430380940437317,1.907525658607483,0.364433616399765,104.96974182128906,-71.78965759277344,273.3105163574219
1700075751,0.8301849365234375,-0.43536376953125,0.2506866455078125,-1.265704870223999,1.4621819257736206,1.0744081735610962,104.70529174804688,-72.47998046875,273.7498779296875
1700075751,0.690460205078125,-0.260528564453125,-0.587066650390625,-0.9649495482444764,0.8099197745323181,1.2787127494812012,104.46084594726562,-73.44514465332031,274.0385131835937
1700075751,1.0837554931640625,-0.637786865234375,-0.5375213623046875,-0.4394178390502929,0.4889696836471557,1.3573369979858398,104.1074676513672,-73.79852294921875,274.24761962890625
1700075751,1.5569000244140625,-0.7069854736328125,-0.367919921875,-0.1787670850753784,0.4876817762851715,1.85061514377594,103.73263549804688,-74.59429931640625,274.123779296875
1700075751,1.5775146484375,-0.187591552734375,-0.2747955322265625,-0.0828509405255317,0.4135108888149261,2.14703369140625,103.63584899902344,-74.94361877441406,274.845703125
1700075751,1.3313140869140625,0.1766815185546875,-0.1904296875,-0.2511584460735321,0.109843410551548,1.8859471082687376,103.19699096679688,-75.28947448730469,274.8758239746094
1700075751,1.01275634765625,0.3514404296875,-0.1698150634765625,-1.0696312189102173,0.2625115215778351,1.2326486110687256,103.38877868652344,-75.5765380859375,275.0900573730469
1700075751,0.748321533203125,0.3833465576171875,-0.2953338623046875,-1.3183456659317017,0.496461421251297,0.6214611530303955,102.90827941894533,-75.99371337890625,274.7113037109375
1700075751,0.5679168701171875,0.073822021484375,-0.40399169921875,-0.8962191939353943,0.6735144853591919,0.4550319612026214,103.06857299804688,-75.8106689453125,275.0370483398437
1700075751,1.13580322265625,0.0133209228515625,-0.4617462158203125,-0.6750138401985168,0.3644165694713592,0.5463536381721497,102.6474151611328,-75.87095642089844,275.68975830078125
1700075751,2.1690673828125,0.0554656982421875,-0.1221923828125,-0.9212494492530824,0.190993919968605,0.9818456768989564,102.84243774414062,-75.16078186035156,275.0666809082031
1700075751,2.576812744140625,0.2258453369140625,-0.2664947509765625,-0.96302729845047,0.0547471344470977,1.571583867073059,102.8674774169922,-75.0452880859375,275.506103515625
1700075751,2.009735107421875,0.3897857666015625,-0.3058319091796875,-0.7150129675865173,-0.1356691420078277,1.515916347503662,102.5327606201172,-74.40444946289062,275.2962646484375
1700075751,1.11700439453125,0.2765960693359375,-0.29132080078125,-0.3625552952289581,-0.146052286028862,0.9851120710372924,102.54924011230467,-73.67660522460938,275.8406982421875
1700075751,0.4976806640625,0.2877655029296875,-0.339080810546875,-0.0869751125574112,0.1163175553083419,0.6121795177459717,102.9224090576172,-72.79226684570312,275.5128479003906
1700075751,0.160003662109375,0.364501953125,-0.2944488525390625,0.2079678475856781,0.2903918921947479,0.4580924808979034,102.73028564453124,-72.19734191894531,275.2430419921875
1700075751,0.45745849609375,0.3307037353515625,-0.3263092041015625,0.4540146291255951,0.2015427052974701,0.3369532525539398,102.53280639648438,-70.50091552734375,273.3958740234375
1700075751,1.0560150146484375,0.2822723388671875,-0.3473052978515625,0.5654476881027222,0.0996658727526664,0.2814766764640808,102.55889892578124,-69.53170776367188,272.5527038574219
1700075751,1.26202392578125,0.2017974853515625,-0.370513916015625,0.5794929265975952,0.1059876829385757,0.2367409020662307,103.14639282226562,-69.84162902832031,273.40887451171875
1700075751,1.1754150390625,0.0386199951171875,-0.38690185546875,0.5671188235282898,0.1038574203848838,0.3107352256774902,102.77357482910156,-70.0992431640625,273.4410705566406
1700075751,0.992889404296875,0.001800537109375,-0.3720550537109375,0.4858617782592773,0.0907339006662368,0.4083611369132995,103.27911376953124,-70.8468017578125,272.41766357421875
1700075751,0.8649749755859375,0.0317230224609375,-0.403106689453125,0.3643832802772522,0.069611832499504,0.4271995425224304,103.22320556640624,-70.79339599609375,272.04052734375
1700075751,0.8407135009765625,0.0605010986328125,-0.4436492919921875,0.2117782980203628,0.0330269262194633,0.4248309135437011,103.14102172851562,-70.94285583496094,271.58087158203125
1700075751,0.885406494140625,0.1217193603515625,-0.4142913818359375,0.0324615351855754,0.0169960279017686,0.4173207879066467,103.23486328125,-70.00389099121094,271.87310791015625
1700075751,0.9337005615234376,0.1767730712890625,-0.358428955078125,-0.0771967843174934,0.0145949218422174,0.3857559561729431,103.07672119140624,-69.47068786621094,270.9168395996094
1700075751,0.935272216796875,0.2096405029296875,-0.358795166015625,-0.0697045102715492,0.0191670358180999,0.3314453065395355,102.80036926269533,-68.63029479980469,270.6395874023437
1700075751,0.9399261474609376,0.2134857177734375,-0.34417724609375,0.0410446375608444,0.0361912921071052,0.3090944588184356,102.60507202148438,-67.14700317382812,269.6366577148437
1700075751,0.91705322265625,0.21160888671875,-0.3170166015625,0.1585020273923874,0.0691646933555603,0.3213183581829071,102.85549926757812,-66.54911804199219,269.3297119140625
1700075751,0.895050048828125,0.2010040283203125,-0.3134918212890625,0.2555729150772095,0.1174541935324668,0.3503889143466949,102.739990234375,-65.95152282714844,269.22344970703125
1700075751,0.895782470703125,0.137451171875,-0.3195037841796875,0.341493159532547,0.1710782647132873,0.4367083609104156,102.62864685058594,-65.88713073730469,269.13555908203125
1700075751,0.8958892822265625,0.0589141845703125,-0.328857421875,0.4046835601329803,0.2144244164228439,0.5779269933700562,102.6042022705078,-65.68739318847656,268.7699279785156
1700075751,0.89404296875,0.0028533935546875,-0.324188232421875,0.4348262846469879,0.2719638645648956,0.7309008240699768,102.564697265625,-65.53131103515625,268.81805419921875
1700075751,0.8895721435546875,-0.030609130859375,-0.3203125,0.476470947265625,0.3270013034343719,0.8758790493011475,102.4540557861328,-65.00233459472656,267.83062744140625
1700075751,0.8714447021484375,-0.0161895751953125,-0.302764892578125,0.4981594681739807,0.3898945152759552,0.988075077533722,102.26730346679688,-64.45802307128906,267.9786376953125
1700075751,0.858551025390625,0.0461273193359375,-0.30670166015625,0.514208197593689,0.4583140313625335,1.0475575923919678,102.33663940429688,-64.24713134765625,268.3641967773437
1700075751,0.858428955078125,0.1261138916015625,-0.311187744140625,0.5348652601242065,0.5094667077064514,1.0909873247146606,102.46746826171876,-64.0888671875,268.3543701171875
1700075751,0.868255615234375,0.1749725341796875,-0.2790069580078125,0.5265013575553894,0.5673776865005493,1.1425211429595947,102.16787719726562,-63.96652221679688,268.38739013671875
1700075751,0.875579833984375,0.203857421875,-0.30364990234375,0.5159384608268738,0.6270585656166077,1.18606698513031,102.09805297851562,-63.98605346679688,268.3626708984375
1700075751,0.8881988525390625,0.193756103515625,-0.3410491943359375,0.5437458753585815,0.6592069268226624,1.2566453218460083,102.30378723144533,-64.01947021484375,268.4701538085937
1700075751,0.8883056640625,0.19122314453125,-0.347503662109375,0.5354855060577393,0.7028782367706299,1.3587464094161987,102.22102355957033,-64.30915832519531,268.5423583984375
1700075751,0.87353515625,0.220489501953125,-0.3549652099609375,0.497578352689743,0.7067486047744751,1.4744253158569336,102.08340454101562,-64.02128601074219,268.8394470214844
1700075751,0.84912109375,0.284149169921875,-0.34625244140625,0.454615443944931,0.7389022707939148,1.5812201499938965,102.15960693359376,-64.14456176757812,268.5287475585937
1700075751,0.844573974609375,0.3571319580078125,-0.3593902587890625,0.3817393779754638,0.7912065386772156,1.5746115446090698,102.10772705078124,-64.29666137695312,268.51910400390625
1700075751,0.880584716796875,0.306427001953125,-0.3833160400390625,0.5076041221618652,0.8789286613464355,1.5562504529953003,101.87147521972656,-64.14419555664062,268.3497009277344
1700075751,0.90106201171875,0.186492919921875,-0.4474945068359375,0.6664859056472778,0.9328544735908508,1.612305998802185,102.20614624023438,-64.02352905273438,268.44598388671875
1700075751,0.9232940673828124,0.1993560791015625,-0.537109375,0.8665838241577148,1.0030596256256104,1.7126469612121582,102.36856079101562,-64.11282348632812,268.18817138671875
1700075751,1.0267486572265625,0.2711029052734375,-0.4847564697265625,0.9992731809616088,1.056937575340271,1.8376812934875488,101.8425750732422,-63.649993896484375,268.0171203613281
1700075751,1.2142791748046875,0.3668975830078125,-0.34588623046875,1.0246738195419312,1.1652828454971311,1.93000078201294,102.00831604003906,-63.48152160644531,268.64874267578125
1700075751,1.4010009765625,0.3163604736328125,-0.311126708984375,1.0212346315383911,1.277748703956604,2.085127592086792,102.31787109375,-63.26976013183594,268.2664794921875
1700075751,1.32366943359375,0.2096405029296875,-0.3795318603515625,1.11976420879364,1.3666796684265137,2.2879881858825684,102.06661987304688,-63.139190673828125,268.6347351074219
1700075751,1.0991668701171875,0.139556884765625,-0.4151763916015625,1.151084542274475,1.4212454557418823,2.387352705001831,102.19187927246094,-62.474609375,268.5337829589844
1700075751,0.9095458984375,0.2449188232421875,-0.4700775146484375,1.1558986902236938,1.4361224174499512,2.352455139160156,102.25338745117188,-62.05929565429688,267.4290771484375
1700075751,0.7552337646484375,0.4671783447265625,-0.498809814453125,1.2219016551971436,1.4661178588867188,2.186142921447754,101.66989135742188,-61.486419677734375,267.51129150390625
1700075751,0.644012451171875,0.5786895751953125,-0.3988037109375,1.3436260223388672,1.4756903648376465,1.986444115638733,101.52854919433594,-60.95558166503906,267.41436767578125
1700075751,0.38946533203125,0.654632568359375,-0.452239990234375,1.4242337942123413,1.4391796588897705,1.8019752502441408,101.2484130859375,-60.38897705078125,267.0181579589844
1700075751,0.4119415283203125,0.7954864501953125,-0.51611328125,1.519970417022705,1.4263075590133667,1.6550174951553345,101.07235717773438,-59.381927490234375,266.62908935546875
1700075751,0.6287994384765625,0.8263702392578125,-0.4332733154296875,1.5166257619857788,1.4098812341690063,1.662090539932251,100.97621154785156,-59.31532287597656,266.23931884765625
1700075751,0.93194580078125,0.7269439697265625,-0.4502410888671875,1.5040137767791748,1.3883743286132812,1.8032772541046145,100.6855010986328,-58.542877197265625,266.1234436035156
1700075751,1.2895660400390625,0.544586181640625,-0.5031890869140625,1.4798336029052734,1.343345284461975,2.016149044036865,100.4801788330078,-58.13751220703125,266.0211181640625
1700075751,1.5195159912109375,0.4122161865234375,-0.6246185302734375,1.5011069774627686,1.2504630088806152,2.196402072906494,100.498291015625,-57.55708312988281,266.0775146484375
1700075751,1.674041748046875,0.338775634765625,-0.7732086181640625,1.716191291809082,1.128165602684021,2.376784324645996,99.76637268066406,-56.68144226074219,265.2801208496094
1700075751,1.6718597412109375,0.3158721923828125,-0.813568115234375,1.8961573839187624,1.0376380681991575,2.42026424407959,99.35569763183594,-55.772369384765625,264.9574584960937
1700075751,1.6358489990234375,0.2640228271484375,-0.740936279296875,1.95237135887146,0.8655808568000793,2.2978856563568115,99.05363464355467,-54.53106689453125,264.8341064453125
1700075751,1.6371002197265625,0.2146759033203125,-0.7075042724609375,1.9179105758666992,0.6441031098365784,2.143359899520874,98.4069366455078,-53.69807434082031,264.64520263671875
1700075751,1.607147216796875,0.1866912841796875,-0.610137939453125,1.6987193822860718,0.5336772203445435,1.9316834211349487,97.78770446777344,-52.35908508300781,264.266357421875
1700075751,1.498504638671875,0.0964813232421875,-0.573028564453125,1.5004862546920776,0.4959903061389923,1.5572125911712646,97.15574645996094,-51.99440002441406,263.9136047363281
1700075751,1.2996978759765625,-0.1008758544921875,-0.58856201171875,1.5609357357025146,0.6911443471908569,0.9775119423866272,97.029541015625,-51.12603759765625,263.54180908203125
1700075751,0.99542236328125,-0.3143310546875,-0.709014892578125,1.786115288734436,0.6019662618637085,0.6409067511558533,96.2639617919922,-50.17341613769531,263.6420593261719
1700075751,0.4782562255859375,-0.212066650390625,-0.7474365234375,1.4349825382232666,0.6824896335601807,0.8124518990516663,95.26046752929688,-49.0738525390625,263.38201904296875
1700075751,-0.1822052001953125,0.192138671875,-1.1808624267578125,1.006535291671753,0.9050220251083374,0.589074432849884,95.12669372558594,-48.56103515625,263.4068298339844
1700075751,-0.6153717041015625,0.4071197509765625,-1.33087158203125,0.9949727058410645,1.1111611127853394,-0.2879803776741028,93.96218872070312,-47.49334716796875,262.9034729003906
1700075751,-0.5363922119140625,0.53021240234375,-0.545440673828125,1.1370056867599487,0.8770167827606201,-1.2559901475906372,93.36422729492188,-46.169830322265625,263.0941467285156
1700075751,0.063446044921875,0.2489471435546875,0.4903717041015625,1.2886773347854614,0.4978686273097992,-2.0496199131011963,92.26960754394533,-45.42835998535156,262.80987548828125
1700075751,0.5501251220703125,-0.5381927490234375,0.6530914306640625,0.7607921361923218,0.4904948770999908,-2.6072380542755127,91.51869201660156,-44.695343017578125,262.6534423828125
1700075751,0.5369873046875,-0.8919525146484375,0.18695068359375,0.0542757548391819,0.5293046236038208,-2.7202322483062744,91.1709442138672,-43.74736022949219,262.66802978515625
1700075752,0.38555908203125,-0.6944732666015625,-0.2188720703125,-0.3170453310012817,0.4086476862430572,-2.9926226139068604,90.53573608398438,-43.209503173828125,262.69073486328125
1700075752,0.4147796630859375,-0.4930877685546875,-0.44085693359375,-0.7701824307441711,0.4463290274143219,-3.6085855960845934,89.2685546875,-42.30963134765625,262.371337890625
1700075752,0.560455322265625,-0.5028228759765625,-0.413818359375,-1.1087666749954224,0.5678439736366272,-3.970714569091797,88.73721313476562,-41.27076721191406,263.069091796875
1700075752,0.6070709228515625,-0.274658203125,-0.1802825927734375,-1.053555607795715,0.6169026494026184,-4.248740196228027,87.59977722167969,-40.43849182128906,263.1014404296875
1700075752,0.7246246337890625,-0.004608154296875,-0.0729827880859375,-0.6081858277320862,0.5235742926597595,-4.539232730865479,86.10441589355469,-39.642120361328125,263.3353881835937
1700075752,0.9210357666015624,0.220428466796875,0.0556182861328125,0.0021736719645559,0.3476977944374084,-4.8653740882873535,85.51039123535156,-38.882110595703125,263.3983459472656
1700075752,1.1370086669921875,0.435546875,0.2363739013671875,0.6025537848472595,0.2395534664392471,-5.221375465393066,84.12657165527344,-38.3524169921875,263.2520751953125
1700075752,1.3020477294921875,0.60540771484375,0.335052490234375,1.095131278038025,0.195642739534378,-5.544256210327148,82.89389038085938,-37.40232849121094,263.1863098144531
1700075752,1.3656463623046875,0.70697021484375,0.33111572265625,1.5332481861114502,0.1445832848548889,-5.797308444976807,81.99903869628906,-36.67404174804688,263.4335327148437
1700075752,1.3314208984375,0.6728363037109375,0.3147125244140625,1.9303025007247925,0.0756620019674301,-5.969976425170898,81.22885131835938,-36.18141174316406,262.9831237792969
1700075752,1.263397216796875,0.56341552734375,0.353973388671875,2.0157761573791504,0.0182418543845415,-6.020918369293213,80.46772766113281,-36.28764343261719,262.35797119140625
1700075752,1.288787841796875,0.5269622802734375,0.3625030517578125,1.807652235031128,0.0102712800726294,-6.019405841827393,80.00311279296875,-35.89520263671875,262.4805603027344
1700075752,1.41143798828125,0.47674560546875,0.27252197265625,1.5900776386260986,0.0143845323473215,-5.987331390380859,79.38821411132812,-35.692108154296875,262.00311279296875
1700075752,1.555938720703125,0.4233245849609375,0.1831817626953125,1.5419137477874756,-0.0599205903708934,-5.895858287811279,78.97959899902344,-35.51841735839844,261.99127197265625
1700075752,1.6761932373046875,0.4228973388671875,0.17047119140625,1.546908617019653,-0.2117612510919571,-5.703917026519775,79.248779296875,-35.85276794433594,261.3515014648437
1700075752,1.7403106689453125,0.5095977783203125,0.157958984375,1.5994971990585327,-0.394021064043045,-5.484994411468506,79.7952880859375,-36.000946044921875,262.05517578125
1700075752,1.7531585693359375,0.623138427734375,0.1473846435546875,1.7627679109573364,-0.5234155654907227,-5.428553581237793,80.39486694335938,-36.08590698242188,262.3305969238281
1700075752,1.740997314453125,0.6900482177734375,0.151947021484375,2.080221652984619,-0.6177729368209839,-5.453710556030273,81.3524169921875,-36.69065856933594,263.17254638671875
1700075752,1.69598388671875,0.7655792236328125,0.2066192626953125,2.475909948348999,-0.5403878688812256,-5.506685256958008,82.11537170410156,-37.36631774902344,264.01348876953125
1700075752,1.6359405517578125,0.7940216064453125,0.1969146728515625,2.8377954959869385,-0.4635708630084991,-5.412106990814209,83.08047485351562,-38.10740661621094,264.50897216796875
1700075752,1.5441131591796875,0.87249755859375,0.1396026611328125,3.2224624156951904,-0.4692167639732361,-5.359522819519043,84.147705078125,-39.21597290039063,265.2099914550781
1700075752,1.5152740478515625,0.8272247314453125,0.070465087890625,3.43018126487732,-0.4022955000400543,-5.332803249359131,85.31295776367188,-39.31044006347656,265.56494140625
1700075752,1.497161865234375,0.7337646484375,-0.0386810302734375,3.5904910564422607,-0.3177119195461273,-5.186769008636475,86.40670776367188,-40.81471252441406,265.5873413085937
1700075752,1.4728240966796875,0.695526123046875,-0.0518798828125,3.674880743026733,-0.3468101620674133,-4.916604518890381,87.51748657226562,-41.90489196777344,265.2733154296875
1700075752,1.4569549560546875,0.680633544921875,-0.0229034423828125,3.675668716430664,-0.3359854519367218,-4.614251613616943,88.52058410644531,-42.88644409179688,264.8961486816406
1700075752,1.436431884765625,0.64337158203125,-0.03900146484375,3.599660396575928,-0.3635726273059845,-4.289018630981445,89.49565124511719,-43.78923034667969,264.65899658203125
1700075752,1.3596954345703125,0.59576416015625,-0.035400390625,3.499485492706299,-0.4349416196346283,-3.919787645339966,90.60011291503906,-45.50274658203125,264.24267578125
1700075752,1.3015289306640625,0.585052490234375,-0.0325469970703125,3.3879311084747314,-0.5304856896400452,-3.5051753520965576,91.48381042480467,-46.315216064453125,264.29217529296875
1700075752,1.2682037353515625,0.59320068359375,-0.077117919921875,3.199664354324341,-0.5818570256233215,-3.0867486000061035,92.27279663085938,-47.769622802734375,264.2206420898437
1700075752,1.1959075927734375,0.61480712890625,-0.150238037109375,3.016862392425537,-0.5606316328048706,-2.65640926361084,93.36178588867188,-48.84077453613281,264.2695007324219
1700075752,1.06573486328125,0.6485595703125,-0.1970367431640625,2.911426782608032,-0.4640169441699981,-2.209954738616944,94.42153930664062,-49.65516662597656,263.63824462890625
1700075752,0.9124603271484376,0.6833648681640625,-0.2134246826171875,2.813139677047729,-0.3166634440422058,-1.7611005306243896,95.2722625732422,-51.46263122558594,264.8212280273437
1700075752,0.7879486083984375,0.7104034423828125,-0.27679443359375,2.6550886631011963,-0.18326036632061,-1.2621442079544067,95.6494140625,-52.562835693359375,265.73712158203125
1700075752,0.73089599609375,0.6892242431640625,-0.3783721923828125,2.345122575759888,-0.0165640637278556,-0.72654789686203,96.59779357910156,-54.073577880859375,266.3783264160156
1700075752,0.7696685791015625,0.597747802734375,-0.48516845703125,1.8941011428833008,0.1268607378005981,-0.1803599148988723,97.2333984375,-55.5421142578125,267.09820556640625
1700075752,0.8347625732421875,0.5194549560546875,-0.5293121337890625,1.4347295761108398,0.1998779624700546,0.3553341329097748,97.87522888183594,-57.4185791015625,267.061767578125
1700075752,0.835906982421875,0.525360107421875,-0.5367279052734375,1.0792657136917114,0.2823435366153717,0.7253752946853638,98.26217651367188,-58.5771484375,267.8341064453125
1700075752,0.804534912109375,0.5363006591796875,-0.5272369384765625,0.8346008658409119,0.3456514179706573,0.8562936186790466,99.06983947753906,-59.91477966308594,268.0689697265625
1700075752,0.845001220703125,0.4542999267578125,-0.417877197265625,0.419910192489624,0.1973109394311905,1.0804835557937622,99.20347595214844,-60.99357604980469,268.0848388671875
1700075752,0.960784912109375,0.4500885009765625,-0.01544189453125,-0.1625934392213821,-0.1064715832471847,0.90789532661438,100.09881591796876,-62.289794921875,268.61895751953125
1700075752,1.203857421875,0.0293121337890625,0.4339599609375,-0.6353018879890442,-0.4241014719009399,0.1640722900629043,99.87869262695312,-63.25672912597656,268.8050537109375
1700075752,1.404144287109375,-0.9201202392578124,0.657562255859375,-1.3061656951904297,-0.1350254565477371,-0.7855063080787659,99.86651611328124,-63.96107482910156,269.03155517578125
1700075752,1.4328155517578125,-1.4976348876953125,0.1784515380859375,-1.4887880086898804,0.0522592104971408,-0.0323872342705726,99.92625427246094,-64.59336853027344,269.76141357421875
1700075752,1.349639892578125,-0.631500244140625,-0.118316650390625,-1.4943454265594482,0.7655783891677856,2.1275227069854736,100.2162628173828,-65.32891845703125,269.7850952148437
1700075752,1.8608856201171875,0.2087860107421875,-0.5169830322265625,-1.1536369323730469,0.7469285130500793,2.61454701423645,100.27914428710938,-65.69621276855469,269.907470703125
1700075752,2.2280426025390625,-0.235015869140625,-0.4490814208984375,-1.1352120637893677,0.1866750717163086,2.336550712585449,100.4916534423828,-66.55787658691406,269.8160400390625
1700075752,1.0930938720703125,-0.159454345703125,-0.68487548828125,-0.1004440486431121,-0.3213191628456116,0.9794437885284424,100.5075225830078,-66.45257568359375,270.037353515625
1700075752,0.21051025390625,-0.1096954345703125,-0.73236083984375,0.367533266544342,0.1659570187330246,0.5954745411872864,100.44801330566406,-66.98052978515625,270.15155029296875
1700075752,0.09893798828125,0.3121337890625,-0.5379791259765625,0.2208554148674011,0.3973659873008728,0.9306339025497437,100.35394287109376,-67.27207946777344,270.4335327148437
1700075752,0.56927490234375,0.445892333984375,-0.144439697265625,0.1997133791446685,0.3747453689575195,0.7887755632400513,100.71388244628906,-67.09442138671875,270.8635559082031
1700075752,1.2652130126953125,0.053680419921875,-0.2711639404296875,0.2492545694112777,0.2190897464752197,0.7896426916122437,100.86360168457033,-67.427978515625,270.1361083984375
1700075752,1.311187744140625,0.0216217041015625,-0.4546356201171875,0.2258323282003402,0.0981651842594146,0.8172117471694946,100.82177734375,-67.15000915527344,270.0771789550781
1700075752,1.1789093017578125,0.00714111328125,-0.516815185546875,0.1692683845758438,0.0443245880305767,0.7760453820228577,100.69371032714844,-67.16329956054688,270.28729248046875
1700075752,1.0113983154296875,-0.0149383544921875,-0.4739990234375,0.0569106861948967,0.0142476456239819,0.6519607305526733,100.90357971191406,-67.17234802246094,270.1719970703125
1700075752,0.89288330078125,-0.048248291015625,-0.362335205078125,-0.160194993019104,0.0539926625788211,0.5333696603775024,100.69241333007812,-66.49803161621094,269.7608642578125
1700075752,0.859344482421875,-0.097747802734375,-0.28009033203125,-0.2502471208572387,0.1096295565366745,0.524074137210846,100.80900573730467,-65.86949157714844,268.83740234375
1700075752,0.879486083984375,-0.116973876953125,-0.26025390625,-0.1051914021372795,0.0979627817869186,0.5743815302848816,100.55276489257812,-65.66766357421875,268.54052734375
1700075752,0.9546356201171876,-0.1042938232421875,-0.3003692626953125,0.2005900889635086,0.0613288693130016,0.5961201190948486,100.91098022460938,-65.22615051269531,267.87322998046875
1700075752,1.001495361328125,-0.08251953125,-0.3430633544921875,0.3719317615032196,0.044057473540306,0.5583993792533875,100.55964660644533,-64.52227783203125,267.8819580078125
1700075752,0.97686767578125,-0.03228759765625,-0.374542236328125,0.4333786070346832,0.0383907966315746,0.4898274838924408,100.49763488769533,-63.19670104980469,265.29510498046875
1700075752,0.943634033203125,0.0281219482421875,-0.3544464111328125,0.4365836977958679,0.0369116775691509,0.3887586593627929,100.22262573242188,-62.0087890625,264.78076171875
1700075752,0.9428863525390624,0.01593017578125,-0.3359527587890625,0.3943952322006225,0.0513761043548584,0.3126346170902252,100.23289489746094,-61.728546142578125,265.3003845214844
1700075752,0.944427490234375,-0.0342559814453125,-0.322052001953125,0.3402822017669678,0.0700214281678199,0.3053479194641113,100.10060119628906,-62.08497619628906,265.6330871582031
1700075752,0.9391632080078124,-0.0863800048828125,-0.3139495849609375,0.3924492597579956,0.0738353431224823,0.3461180031299591,100.1259765625,-61.98696899414063,264.76983642578125
1700075752,0.9413299560546876,-0.08624267578125,-0.3038482666015625,0.5092821717262268,0.0713681876659393,0.3512030243873596,100.21920776367188,-61.75323486328125,264.74871826171875
1700075752,0.964141845703125,-0.043548583984375,-0.3242340087890625,0.6195074319839478,0.0681297853589057,0.3099402785301208,99.90739440917967,-60.98805236816406,263.74273681640625
1700075752,0.9642486572265624,-0.009979248046875,-0.3340911865234375,0.7303974628448486,0.0824003368616104,0.2412325888872146,99.56443786621094,-60.95489501953125,263.5136108398437
1700075752,0.94305419921875,-0.0241546630859375,-0.3438568115234375,0.8217529654502869,0.0852192863821983,0.2050753831863403,99.16384887695312,-60.0906982421875,262.9882202148437
1700075752,0.91339111328125,-0.0539398193359375,-0.3678741455078125,0.8777509927749634,0.0755259171128273,0.2249734550714492,99.42311096191406,-59.79420471191406,262.51177978515625
1700075752,0.8980255126953125,-0.059417724609375,-0.3909454345703125,0.8957560658454895,0.0714661926031112,0.2261252850294113,99.4546356201172,-59.83253479003906,262.0224609375
1700075752,0.914093017578125,-0.0537567138671875,-0.425750732421875,0.8954615592956543,0.0729351937770843,0.2216231971979141,99.1964111328125,-59.31666564941406,261.6743469238281
1700075752,0.9405517578125,-0.008880615234375,-0.4456329345703125,0.8946133255958557,0.0400938913226127,0.2331927716732025,99.03195190429688,-59.61903381347656,261.35321044921875
1700075752,0.9732208251953124,0.050506591796875,-0.3919677734375,0.7993059754371643,0.0374973081052303,0.1544966250658035,98.86708068847656,-58.86007690429688,261.5955810546875
1700075752,1.003509521484375,0.0197906494140625,-0.31842041015625,0.6748095750808716,0.0665428042411804,0.1584745943546295,98.50619506835938,-57.93049621582031,260.7213439941406
1700075752,0.939453125,0.0109710693359375,-0.32232666015625,0.6080644130706787,0.1147777140140533,0.2423372715711593,97.94212341308594,-56.95407104492188,260.77655029296875
1700075752,0.889373779296875,0.0007476806640625,-0.39801025390625,0.6018744111061096,0.0879698023200035,0.2857840955257416,97.93626403808594,-56.35453796386719,260.746826171875
1700075752,0.935638427734375,-0.07843017578125,-0.37451171875,0.6112777590751648,0.0773256793618202,0.3235189318656921,97.83328247070312,-56.479278564453125,260.4307861328125
1700075752,0.9393768310546876,-0.1274261474609375,-0.3855743408203125,0.5675406455993652,0.057047039270401,0.3734697103500366,97.601806640625,-55.77603149414063,260.39117431640625
1700075752,0.9241485595703124,-0.14459228515625,-0.393646240234375,0.5932204723358154,0.0478679239749908,0.4236271679401397,97.5872039794922,-55.7261962890625,260.4863586425781
1700075752,0.9101715087890624,-0.1242828369140625,-0.4134521484375,0.6796152591705322,0.029043635353446,0.478265106678009,97.86773681640624,-55.85806274414063,260.1480712890625
1700075752,0.8925933837890625,-0.0334320068359375,-0.4499359130859375,0.6617316007614136,0.004383829422295,0.4733952581882477,97.30160522460938,-55.85874938964844,260.3856811523437
1700075752,0.9325714111328124,0.0550537109375,-0.4100799560546875,0.5909906029701233,0.0382408611476421,0.3974491059780121,97.46237182617188,-55.49919128417969,260.8150634765625
1700075752,0.968994140625,0.0641326904296875,-0.3244171142578125,0.5956591367721558,0.095935583114624,0.3501060903072357,97.33480834960938,-55.62225341796875,260.6379699707031
1700075752,0.9544677734375,0.01300048828125,-0.2862091064453125,0.6302096247673035,0.1388220638036728,0.3622594177722931,97.39627075195312,-55.53297424316406,260.7994079589844
1700075752,0.9347076416015624,-0.0471038818359375,-0.3607330322265625,0.654384195804596,0.1451276242733001,0.4367333948612213,97.4182586669922,-55.14349365234375,260.74810791015625
1700075752,0.9282379150390624,-0.0428924560546875,-0.42327880859375,0.5982288122177124,0.135983407497406,0.4982441365718841,97.038330078125,-54.878326416015625,260.58447265625
1700075752,0.9460296630859376,-0.010162353515625,-0.408050537109375,0.552086591720581,0.1535123288631439,0.4947642087936401,96.69577026367188,-54.51763916015625,260.04949951171875
1700075752,0.940887451171875,-0.0035858154296875,-0.3687896728515625,0.5934503078460693,0.1810755133628845,0.4959224164485931,97.03359985351562,-54.46644592285156,260.4106750488281
1700075752,0.8914337158203125,0.0064849853515625,-0.3878021240234375,0.6600067019462585,0.1911300122737884,0.5236490964889526,97.10466003417967,-53.807708740234375,259.75274658203125
1700075752,0.8744049072265625,0.04254150390625,-0.4310150146484375,0.7456960082054138,0.1853160560131073,0.5043654441833496,96.60676574707033,-53.78468322753906,259.9886474609375
1700075752,0.921051025390625,0.0636138916015625,-0.3999176025390625,0.8126087188720703,0.1983833909034729,0.482601523399353,96.64097595214844,-53.28205871582031,260.3887023925781
1700075752,0.9421539306640624,0.08367919921875,-0.360260009765625,0.8215508460998535,0.2183634936809539,0.4903156459331512,96.4169464111328,-52.57562255859375,259.887939453125
1700075752,0.9261932373046876,0.0984039306640625,-0.38232421875,0.8068153262138367,0.2195680439472198,0.5119420886039734,96.13601684570312,-52.284210205078125,259.479736328125
1700075752,0.9318389892578124,0.0912628173828125,-0.4173736572265625,0.7750208973884583,0.2183078378438949,0.5381220579147339,96.03855895996094,-51.606048583984375,259.2933959960937
1700075752,0.946197509765625,0.0790557861328125,-0.4218597412109375,0.7239862084388733,0.2171019613742828,0.5696730613708496,95.80126953125,-51.30088806152344,259.23193359375
1700075752,0.9412384033203124,0.067230224609375,-0.4178466796875,0.679473876953125,0.2148254811763763,0.6226987242698669,95.00807189941406,-50.753448486328125,258.83544921875
1700075752,0.92315673828125,0.06475830078125,-0.4126434326171875,0.6888098120689392,0.2327722609043121,0.6766200065612793,94.79049682617188,-50.19996643066406,258.7587890625
1700075752,0.91595458984375,0.04229736328125,-0.390960693359375,0.7556109428405762,0.2726104855537414,0.7221938967704773,94.59365844726562,-49.82685852050781,258.7479858398437
1700075752,0.923583984375,0.0029449462890625,-0.379791259765625,0.8674389719963074,0.3259381651878357,0.7797024250030518,93.87413024902344,-48.986083984375,258.62554931640625
1700075752,0.9501495361328124,-0.0074615478515625,-0.3934173583984375,0.9918386936187744,0.3726840913295746,0.8580771684646606,93.50608825683594,-48.426177978515625,258.1040344238281
1700075753,0.986328125,0.022796630859375,-0.387664794921875,1.094913363456726,0.4196982085704803,0.9233086109161376,93.1431884765625,-47.89686584472656,258.0782470703125
1700075753,1.0111846923828125,0.0649566650390625,-0.356475830078125,1.2491167783737185,0.43571338057518,1.0264592170715332,92.75384521484376,-47.10438537597656,258.2421264648437
1700075753,1.0428314208984375,0.12652587890625,-0.254638671875,1.2748639583587646,0.4555829763412475,1.1669119596481323,91.83926391601562,-46.82240295410156,257.6766052246094
1700075753,1.1106414794921875,0.18768310546875,-0.1492156982421875,1.1719565391540527,0.5922201871871948,1.2707374095916748,91.6506805419922,-45.6883544921875,257.092041015625
1700075753,1.10980224609375,0.1569366455078125,-0.161468505859375,1.1872702836990356,0.7378697991371155,1.3863356113433838,91.07052612304688,-45.03581237792969,257.0267639160156
1700075753,1.0962371826171875,0.083465576171875,-0.2094268798828125,1.2307153940200806,0.8236227631568909,1.554268479347229,90.60350036621094,-44.664154052734375,257.4457702636719
1700075753,1.1759796142578125,0.0426025390625,-0.2297821044921875,1.2372305393218994,0.8638639450073242,1.7108758687973022,89.76622009277344,-43.66510009765625,257.0794372558594
1700075753,1.34796142578125,0.0090789794921875,-0.260589599609375,1.2957762479782104,0.905134916305542,1.7983291149139404,88.70803833007812,-43.210784912109375,257.1567687988281
1700075753,1.5397796630859375,-0.0429229736328125,-0.328155517578125,1.503692865371704,0.9613007307052612,1.854496479034424,87.98785400390625,-42.084381103515625,256.87408447265625
1700075753,1.6635894775390625,-0.0909423828125,-0.2687225341796875,1.7165484428405762,1.0030391216278076,2.027533769607544,87.27745056152344,-41.57548522949219,256.774658203125
1700075753,1.7207489013671875,-0.0441436767578125,-0.1280059814453125,1.92978835105896,1.0559478998184204,2.1842503547668457,86.42671203613281,-40.7535400390625,256.9678955078125
1700075753,1.8267974853515625,-0.0337066650390625,-0.0110321044921875,2.1717655658721924,1.1014772653579712,2.271572589874268,85.52789306640625,-39.84518432617188,256.9706115722656
1700075753,1.9315948486328125,-0.0615386962890625,0.0126190185546875,2.3978986740112305,1.150638461112976,2.216228485107422,84.62872314453125,-39.19422912597656,257.3299560546875
1700075753,2.016387939453125,-0.1406402587890625,-0.0729217529296875,2.7082884311676025,1.1667993068695068,1.9266313314437864,83.62100219726562,-38.938995361328125,256.4256896972656
1700075753,2.0149078369140625,-0.287445068359375,-0.1438751220703125,2.7061612606048584,1.229119896888733,1.851932168006897,83.18148803710938,-38.086761474609375,257.12030029296875
1700075753,1.6884918212890625,-0.2067413330078125,-0.307586669921875,2.765565633773804,1.309332251548767,1.8043947219848635,82.13766479492188,-37.41581726074219,257.4085998535156
1700075753,1.2781524658203125,-0.11541748046875,-0.4418182373046875,3.134765863418579,1.2676678895950315,1.6672179698944092,81.34181213378906,-36.968536376953125,257.4784851074219
1700075753,0.9034271240234376,0.0188446044921875,-0.609893798828125,3.5536341667175293,1.2328249216079712,1.5103877782821655,80.65202331542969,-36.124420166015625,257.3244323730469
1700075753,0.590362548828125,0.2778778076171875,-1.024139404296875,3.425775051116944,1.2790493965148926,1.2390340566635132,79.52468872070312,-35.552642822265625,257.6513977050781
1700075753,0.4508514404296875,0.515228271484375,-1.4107818603515625,2.870871067047119,1.3478127717971802,0.7686759233474731,78.90226745605469,-35.10096740722656,257.740478515625
1700075753,0.5511322021484375,0.6103973388671875,-1.238433837890625,2.5202765464782715,1.4837197065353394,-0.0097634149715304,78.04470825195312,-34.91754150390625,257.2471923828125
1700075753,0.72943115234375,0.49383544921875,-0.67041015625,2.6952342987060547,1.619861364364624,-0.8325867056846619,77.84866333007812,-34.71925354003906,257.3554077148437
1700075753,0.7262420654296875,0.1733551025390625,-0.316162109375,2.8385250568389893,1.608508586883545,-1.404323697090149,77.57569885253906,-34.468963623046875,257.0188293457031
1700075753,0.5606842041015625,-0.14898681640625,-0.259735107421875,2.76145601272583,1.5398391485214231,-1.7085589170455933,77.03462219238281,-34.761474609375,256.26861572265625
1700075753,0.3909759521484375,-0.3041839599609375,-0.22894287109375,2.7158637046813965,1.4397884607315063,-1.8681153059005733,76.868896484375,-34.94749450683594,256.1966247558594
1700075753,0.2863006591796875,-0.4261016845703125,-0.117279052734375,2.663657665252685,1.326085329055786,-2.0450239181518555,76.70852661132812,-34.58543395996094,256.1421813964844
1700075753,0.2755584716796875,-0.55035400390625,0.02197265625,2.5617544651031494,1.2793418169021606,-2.2249109745025635,77.09480285644531,-34.975067138671875,255.9529571533203
1700075753,0.3176422119140625,-0.5318756103515625,0.1091766357421875,2.2737834453582764,1.2990130186080933,-2.4433863162994385,77.68757629394531,-35.39288330078125,256.294189453125
1700075753,0.3810882568359375,-0.2808837890625,0.0557861328125,1.9761136770248413,1.2729369401931765,-2.677541494369507,78.07093811035156,-35.63807678222656,255.74012756347656
1700075753,0.465057373046875,-0.0220489501953125,0.0461273193359375,1.6897344589233398,1.169012427330017,-2.915472984313965,79.12771606445312,-36.11651611328125,255.7458648681641
1700075753,0.548583984375,0.2062835693359375,0.1003875732421875,1.4916805028915403,1.02033793926239,-3.1639046669006348,80.2196044921875,-36.737579345703125,256.13848876953125
1700075753,0.6374664306640625,0.3697662353515625,0.1679840087890625,1.4491569995880127,0.8778279423713684,-3.49422574043274,81.71743774414062,-37.23979187011719,256.3475341796875
1700075753,0.7535247802734375,0.34869384765625,0.19854736328125,1.4826982021331787,0.7123036980628967,-3.8360536098480233,83.19209289550781,-37.99859619140625,256.5223999023437
1700075753,0.84674072265625,0.22283935546875,0.242828369140625,1.4082111120224,0.5412616729736328,-4.005918979644775,84.70054626464844,-39.17626953125,256.61279296875
1700075753,0.8456268310546875,0.1690216064453125,0.2696533203125,1.24127197265625,0.4306491315364837,-4.004288196563721,86.11355590820312,-40.398193359375,256.510009765625
1700075753,0.7879180908203125,0.147491455078125,0.2208099365234375,1.111576795578003,0.3367231488227844,-3.9821064472198486,87.77268981933594,-41.600128173828125,256.8304443359375
1700075753,0.790435791015625,0.1046142578125,0.170196533203125,0.9384939670562744,0.2110139727592468,-3.953104496002197,89.23434448242188,-42.65998840332031,256.42889404296875
1700075753,0.8441925048828125,0.13848876953125,0.1325531005859375,0.6012589335441589,0.0507934056222438,-3.869218587875366,90.22755432128906,-44.16778564453125,256.12451171875
1700075753,0.9151611328125,0.292144775390625,0.1523895263671875,0.187684416770935,-0.1175924092531204,-3.752530336380005,91.52383422851562,-45.68705749511719,255.62619018554688
1700075753,1.006439208984375,0.4574432373046875,0.19891357421875,-0.0535138249397277,-0.2741471230983734,-3.618368864059448,92.71665954589844,-47.51609802246094,255.6822662353516
1700075753,1.0763397216796875,0.5963134765625,0.214630126953125,0.0935238227248191,-0.4335266649723053,-3.4516637325286865,93.76666259765624,-49.00593566894531,255.2671356201172
1700075753,1.0861968994140625,0.748931884765625,0.1493682861328125,0.5302854180335999,-0.5614710450172424,-3.3578357696533203,94.33454895019533,-50.38720703125,254.7688903808593
1700075753,1.07708740234375,0.9098052978515624,0.0136260986328125,0.9683954119682312,-0.6616762280464172,-3.379918575286865,95.7046356201172,-52.6087646484375,254.9577789306641
1700075753,1.116790771484375,1.05755615234375,-0.061737060546875,1.183380126953125,-0.7486808896064758,-3.547187805175781,96.49453735351562,-54.260772705078125,255.4776306152344
1700075753,1.200347900390625,1.139434814453125,-0.0359954833984375,1.3035917282104492,-0.7919093370437622,-3.72710394859314,97.60659790039062,-56.02238464355469,255.7397003173828
1700075753,1.2173309326171875,1.139434814453125,0.0381011962890625,1.468268632888794,-0.7859430313110352,-3.724194049835205,98.20057678222656,-57.31492614746094,256.51641845703125
1700075753,1.134429931640625,1.060516357421875,0.0633392333984375,1.5459545850753784,-0.799543559551239,-3.5429790019989014,99.24134826660156,-59.05108642578125,256.556396484375
1700075753,1.0264892578125,0.9333648681640624,-0.0243988037109375,1.4270862340927124,-0.848797619342804,-3.2977702617645264,99.53343200683594,-60.56962585449219,257.2579345703125
1700075753,0.9688568115234376,0.7954864501953125,-0.1451873779296875,1.1760807037353516,-0.8864294290542603,-3.039968252182007,99.62498474121094,-61.95286560058594,257.66900634765625
1700075753,0.964813232421875,0.678741455078125,-0.2256011962890625,0.860440731048584,-0.8913142085075378,-2.7553365230560303,100.14971923828124,-63.98445129394531,257.1814880371094
1700075753,0.972076416015625,0.6233673095703125,-0.275299072265625,0.5654932260513306,-0.8835774660110474,-2.4521374702453613,100.26275634765624,-65.23672485351562,257.62176513671875
1700075753,0.969696044921875,0.6107330322265625,-0.311126708984375,0.4049517512321472,-0.8445890545845032,-2.1296541690826416,100.47311401367188,-66.31016540527344,258.25909423828125
1700075753,0.945556640625,0.612457275390625,-0.3368377685546875,0.3936950862407684,-0.8379181027412415,-1.857548952102661,100.55924987792967,-67.54234313964844,258.0872802734375
1700075753,0.912628173828125,0.6181182861328125,-0.332275390625,0.451140284538269,-0.833175539970398,-1.6498141288757324,100.56243896484376,-68.80911254882812,258.216552734375
1700075753,0.9056396484375,0.63958740234375,-0.302978515625,0.6539801955223083,-0.8057824969291687,-1.4764608144760132,100.79148864746094,-69.64659118652344,258.69647216796875
1700075753,0.892242431640625,0.6639862060546875,-0.230682373046875,0.9416477084159852,-0.7647458910942078,-1.353576421737671,100.4653778076172,-70.47044372558594,258.6156005859375
1700075753,0.8781280517578125,0.6527252197265625,-0.1549835205078125,1.1979146003723145,-0.7179378867149353,-1.260553240776062,100.83059692382812,-71.55482482910156,258.61053466796875
1700075753,0.8662261962890625,0.568206787109375,-0.099151611328125,1.3559799194335938,-0.665277898311615,-1.1389538049697876,100.88059997558594,-71.57084655761719,258.3577575683594
1700075753,0.8099822998046875,0.4233551025390625,-0.0948486328125,1.3449679613113403,-0.61678546667099,-0.9658163785934448,100.44532775878906,-72.24285888671875,258.482666015625
1700075753,0.717864990234375,0.2857208251953125,-0.136016845703125,1.191952347755432,-0.5460713505744934,-0.7434179782867432,100.31651306152344,-72.74324035644531,258.5880126953125
1700075753,0.618255615234375,0.1798095703125,-0.19415283203125,0.9366257786750792,-0.4237973392009735,-0.4650321304798126,100.12246704101562,-72.98875427246094,258.56817626953125
1700075753,0.540679931640625,0.0976715087890625,-0.25469970703125,0.6436370015144348,-0.2840546369552612,-0.1604171097278595,100.10026550292967,-73.23098754882812,258.41339111328125
1700075753,0.528106689453125,0.0327606201171875,-0.2849884033203125,0.3540582060813904,-0.1768754422664642,0.1335127800703048,99.9467315673828,-73.31285095214844,258.2708740234375
1700075753,0.639129638671875,-0.0159149169921875,-0.2867889404296875,0.0136905116960406,-0.1518300026655197,0.3709128201007843,100.02545166015624,-73.378662109375,258.3510131835937
1700075753,0.8095855712890625,-0.0207061767578125,-0.2797088623046875,-0.3065165281295776,-0.1517863273620605,0.5026426315307617,99.56306457519533,-73.07344055175781,257.8975830078125
1700075753,0.882904052734375,-0.0384521484375,-0.25927734375,-0.5151629447937012,-0.113377422094345,0.551039457321167,99.24156188964844,-72.85313415527344,257.4609069824219
1700075753,0.8713226318359375,-0.0770721435546875,-0.2149505615234375,-0.6679673790931702,-0.051206462085247,0.5939615964889526,99.0902099609375,-72.75724792480469,257.6856994628906
1700075753,0.8207855224609375,-0.077484130859375,-0.1849822998046875,-0.7943775653839111,-0.0071708275936543,0.6714566946029663,99.0013427734375,-72.28501892089844,257.155517578125
1700075753,0.7808685302734375,-0.040313720703125,-0.162353515625,-0.8127315044403076,-0.0210624076426029,0.7821744084358215,98.83531188964844,-71.83293151855469,257.27349853515625
1700075753,0.7579345703125,0.0357208251953125,-0.1120147705078125,-0.7374748587608337,0.060677196830511,0.8576971292495728,98.6420440673828,-71.764404296875,257.0028686523437
1700075753,0.7099761962890625,0.0948944091796875,-0.1458740234375,-0.6506108045578003,0.2203211784362793,0.918867826461792,98.43934631347656,-71.19038391113281,256.3520202636719
1700075753,0.6156158447265625,0.1492156982421875,-0.24041748046875,-0.5600337386131287,0.2926140129566192,0.98783540725708,97.7265625,-70.85385131835938,255.8907470703125
1700075753,0.5540771484375,0.165283203125,-0.3038330078125,-0.756215512752533,0.671259343624115,1.0110549926757812,97.69570922851562,-70.5050048828125,254.875717163086
1700075753,0.5514678955078125,0.190093994140625,-0.6382293701171875,-0.9981994032859802,0.8051716089248657,1.2572271823883057,96.89523315429688,-69.17900085449219,254.25962829589844
1700075753,0.5072479248046875,0.3308868408203125,-0.7093048095703125,-1.2651629447937012,1.4102476835250854,1.4754087924957275,96.74684143066406,-68.13766479492188,254.79981994628903
1700075753,0.62127685546875,0.381134033203125,-1.198577880859375,-0.3308402299880981,5.145297527313232,2.094550132751465,96.73741149902344,-68.34602355957031,255.3536376953125
1700075753,-0.319671630859375,1.1049041748046875,-4.274078369140625,-0.0379822701215744,0.4037626385688782,3.6240742206573486,96.67800903320312,-68.39633178710938,255.1549224853516
1700075753,1.1100921630859375,2.09796142578125,-0.99237060546875,-1.114941120147705,-2.3161778450012207,2.460871696472168,95.85890197753906,-68.23922729492188,253.86624145507807
1700075753,4.611785888671875,-0.25799560546875,1.0593719482421875,0.3438670933246612,0.8254715204238892,-0.0035044536925852,95.8674774169922,-67.676513671875,252.98085021972656
1700075753,2.6987457275390625,-2.004623413085937,0.0748748779296875,1.9722801446914675,2.2216875553131104,-0.6031782627105713,95.70530700683594,-67.27987670898438,253.150131225586
1700075753,1.0849609375,-1.3616943359375,1.1412506103515625,1.4371050596237185,1.7093837261199951,-0.154024988412857,95.2747039794922,-66.94259643554688,252.83053588867188
1700075753,0.521881103515625,-0.5717010498046875,0.079925537109375,-0.0110001871362328,0.7613306641578674,0.6450759172439575,94.95849609375,-66.63258361816406,252.53700256347656
1700075753,0.4669952392578125,-0.3810272216796875,-0.3604888916015625,-0.4551544785499573,0.4455625712871551,1.0910323858261108,94.9717254638672,-65.94996643066406,252.00802612304688
1700075753,1.0344696044921875,-0.6843414306640625,0.139801025390625,-0.7752712368965149,0.8037515878677368,1.5513975620269775,94.43936157226562,-65.25454711914062,252.2860565185547
1700075753,1.558990478515625,-0.441314697265625,0.4365081787109375,-1.918064832687378,0.9469822645187378,2.3255932331085205,94.4600067138672,-64.91706848144531,252.2938537597656
1700075753,1.794189453125,0.2201385498046875,0.3146514892578125,-2.609639406204224,0.9544923901557922,2.633134126663208,94.38551330566406,-65.33958435058594,251.823959350586
1700075753,1.649322509765625,0.40869140625,-0.137237548828125,-1.9679439067840576,0.5238941311836243,1.826167345046997,93.99095153808594,-65.32954406738281,251.3661956787109
1700075753,1.2034912109375,0.222747802734375,-0.399169921875,-1.2192577123641968,0.5097037553787231,0.9075238108634948,94.08499145507812,-65.02285766601562,251.41500854492188
1700075753,1.271942138671875,0.098297119140625,-0.534149169921875,-0.1979037672281265,0.541096568107605,0.5497944355010986,93.81398010253906,-64.87966918945312,251.62844848632807
1700075753,2.227081298828125,-0.0088653564453125,-0.007293701171875,0.4462235569953918,0.5835071206092834,1.072440266609192,93.6640625,-64.55569458007812,250.83335876464844
1700075753,2.672515869140625,0.3070526123046875,0.0951690673828125,0.1717579066753387,0.560451865196228,1.9031457901000977,93.32365417480467,-64.04400634765625,250.63287353515625
1700075753,1.904937744140625,0.64996337890625,-0.265655517578125,0.1671290695667266,0.1192789897322654,1.6472047567367554,93.71331787109376,-63.68949890136719,251.2157745361328
1700075753,0.977325439453125,0.5050811767578125,-0.429168701171875,-0.1998763680458068,-0.1087919920682907,0.9184390306472778,93.42030334472656,-64.04771423339844,250.513412475586
1700075753,0.5785369873046875,0.5715789794921875,-0.5362091064453125,-0.122802086174488,0.1573648601770401,0.370633989572525,93.56948852539062,-63.44615173339844,250.46240234375
1700075753,0.4180755615234375,0.6045379638671875,-0.2873992919921875,0.4165194630622864,0.3709490299224853,0.1289300173521042,93.2524871826172,-63.267669677734375,250.46339416503903
1700075753,0.63775634765625,0.2568817138671875,-0.2676544189453125,0.4808214902877807,0.1912935227155685,0.1747824549674987,93.4671630859375,-63.17521667480469,250.05029296875
1700075753,0.9304962158203124,0.078765869140625,-0.4154052734375,0.499635636806488,0.0435996763408184,0.3860102891921997,92.9127960205078,-62.887603759765625,250.582763671875
1700075753,1.0259552001953125,-0.063690185546875,-0.4041900634765625,0.4106575846672058,0.1183892264962196,0.4754333794116974,93.188720703125,-62.79942321777344,250.61309814453125
