timestamp,acc-x,acc-y,acc-z,gyr-x,gyr-y,gyr-z,mag-x,mag-y,mag-z
1699734745,0.9837542724609376,0.8626560974121095,-5.151237945556641,3.195003032684326,0.588182806968689,3.2063565254211426,11.967620849609377,-154.8494110107422,-306.8473815917969
1699734745,0.9797126770019532,2.4143293762207034,-4.690795440673829,4.275239944458008,0.5597200393676758,2.8845839500427246,12.194473266601562,-157.07412719726562,-307.0049133300781
1699734745,0.6665638732910156,2.7274781799316408,-3.690126342773438,5.157222747802734,0.5410184860229492,2.600088119506836,12.871856689453123,-158.62704467773438,-307.55816650390625
1699734745,0.7957452392578125,1.4696438598632813,-3.213667144775391,5.49102783203125,-0.0388547219336032,2.323747634887696,13.05499267578125,-161.32022094726562,-307.7487487792969
1699734745,3.5217265319824222,-2.6229954528808594,-10.463990020751954,4.403316497802734,-2.944793462753296,1.912214636802673,11.654937744140623,-162.84088134765625,-307.76531982421875
1699734745,7.634723510742188,-9.871821441650392,-19.00013900756836,3.2455389499664307,-4.898280620574951,1.4791111946105957,9.629531860351562,-164.25494384765625,-308.4613647460937
1699734745,5.3175421142578125,-7.965535583496094,-10.640473022460938,2.933046817779541,-4.502376556396484,1.0147147178649902,7.894805908203125,-165.5077362060547,-308.2831420898437
1699734745,1.712289276123047,-2.219883728027344,-2.0170555114746094,3.0747435092926025,-2.7405998706817627,0.4661815464496612,7.036712646484375,-166.91578674316406,-307.4722900390625
1699734745,0.841849365234375,-1.9975959777832035,0.5569917297363282,2.61658263206482,1.4461652040481567,0.0112651716917753,7.288482666015625,-167.56692504882812,-308.34149169921875
1699734745,-2.402503967285156,-4.977449340820312,-4.36656967163086,0.7637096643447876,1.588137984275818,0.4242487549781799,8.373672485351562,-167.68643188476562,-308.2186279296875
1699734745,-4.519551544189453,-10.14335678100586,-18.78443756103516,-1.1414889097213743,0.9350358247756958,1.1025545597076416,8.548797607421875,-167.35963439941406,-307.99951171875
1699734745,-2.5836273193359376,-8.04531967163086,-11.001073150634769,-1.688754916191101,1.7118988037109375,1.3153566122055054,9.499755859375,-166.65061950683594,-308.3886108398437
1699734745,-1.2522958374023438,-4.753664703369141,-5.296885070800782,-1.7631654739379885,2.752792358398437,1.340138554573059,10.226181030273438,-165.94085693359375,-308.2620849609375
1699734745,-1.1032058715820312,-4.494403839111328,-7.845036163330079,-1.603063941001892,3.010547876358032,1.3613826036453247,11.448959350585938,-165.41461181640625,-308.4735107421875
1699734745,-0.9892927551269532,-4.405638427734376,-10.103838958740235,-1.225300908088684,2.540526390075684,1.3699287176132202,12.5133056640625,-164.73919677734375,-308.5023193359375
1699734745,-0.5912704467773438,-4.06434814453125,-9.586514739990236,-0.8527724146842957,1.765025973320007,1.3587881326675415,13.183822631835938,-164.54318237304688,-308.539794921875
1699734745,-0.2553689575195312,-3.878135375976562,-8.198301544189453,-0.6289883255958557,0.898927628993988,1.329972505569458,13.886245727539062,-164.43260192871094,-308.5128173828125
1699734745,-0.1841171264648437,-4.133204956054688,-7.540868682861329,-0.5360913872718811,0.0798628777265548,1.2807085514068604,13.87945556640625,-164.53744506835938,-309.0038452148437
1699734745,0.1163081359863281,-4.6536726379394535,-7.526947631835938,-0.4959383904933929,-0.5314191579818726,1.2038321495056152,13.236282348632812,-164.21542358398438,-308.1826171875
1699734745,0.4237687683105469,-5.307063903808594,-7.832911376953126,-0.4144315421581268,-0.7434094548225403,1.149025321006775,13.377609252929688,-163.95962524414062,-308.16278076171875
1699734745,0.2025288391113281,-5.568570098876953,-7.893086242675782,-0.3072062730789184,-0.4486792683601379,1.1345881223678589,12.94793701171875,-163.78245544433594,-308.46795654296875
1699734745,-0.767603759765625,-5.3887939453125,-7.7790234375,-0.3002809882164001,0.1045820713043212,1.1604820489883425,13.302230834960938,-163.76124572753906,-308.51171875
1699734745,-1.9258950805664063,-4.935985565185547,-7.952213287353516,-0.4123374819755554,0.5169041156768799,1.1720963716506958,13.504638671875,-163.50498962402344,-308.53570556640625
1699734745,-2.024839324951172,-4.3102867126464846,-8.24889633178711,-0.6081264615058899,0.9760552048683168,1.1340298652648926,13.910079956054688,-163.57681274414062,-308.4864501953125
1699734745,-1.1511062622070314,-4.012256469726562,-7.664960632324219,-0.8955408930778503,1.5855313539505005,1.1351433992385864,14.788223266601562,-163.3061981201172,-308.82440185546875
1699734745,-0.6734495544433594,-4.476890258789063,-8.054001617431641,-1.285614848136902,1.912850379943848,1.2153249979019165,15.629257202148438,-162.4747314453125,-308.255615234375
1699734745,-0.7834707641601563,-4.392765197753906,-8.850944366455078,-1.6185318231582642,1.7106947898864746,1.2228820323944092,15.864044189453123,-161.68798828125,-309.0463256835937
1699734745,-0.6563850402832031,-2.860401763916016,-8.943152618408202,-1.6371359825134275,1.18263578414917,1.1958346366882324,16.308517456054688,-161.4228515625,-308.50347900390625
1699734745,-0.3528163146972656,-3.211272125244141,-8.832233276367187,-1.3696216344833374,0.5496540665626526,1.21570885181427,16.684844970703125,-161.07437133789062,-307.8606262207031
1699734745,-0.2459385681152343,-3.77260482788086,-8.511001281738281,-1.0228804349899292,-0.1038355827331543,1.1527305841445925,17.0936279296875,-160.75119018554688,-308.16143798828125
1699734745,0.01197509765625,-3.719764709472656,-8.51713851928711,-0.8112276196479797,-0.5489304661750793,0.9129904508590698,16.599899291992188,-160.66627502441406,-308.522216796875
1699734745,0.4662803649902344,-3.992198181152344,-8.659342803955079,-0.6740977168083191,-0.5183033347129822,0.6616581082344055,16.255157470703125,-160.39903259277344,-308.159423828125
1699734745,0.7825726318359375,-4.049678649902344,-8.119714965820313,-0.6942064762115479,-0.0367111414670944,0.5918363928794861,16.303359985351562,-159.9995574951172,-308.42791748046875
1699734745,0.2799179077148437,-4.168681182861328,-8.241411895751954,-0.7945024371147156,0.3618844449520111,0.8064163327217102,16.394927978515625,-159.5363311767578,-308.264892578125
1699734745,-0.441881103515625,-3.85643051147461,-8.595725097656251,-0.8656112551689148,0.4396111965179443,0.9634882807731628,16.853973388671875,-159.27931213378906,-307.9822998046875
1699734745,-0.5637277221679687,-2.80501693725586,-8.761131134033203,-0.6962701678276062,0.4290195405483246,0.9965346455574036,17.018875122070312,-158.83248901367188,-307.83758544921875
1699734745,-0.1731898498535156,-2.990181884765625,-8.032147064208985,-0.5533961057662964,0.2675552666187286,0.9654725790023804,17.004013061523438,-158.6887969970703,-307.9100646972656
1699734745,-0.0236508178710937,-3.390150146484375,-8.186027069091796,-0.4681464433670044,-0.1969562023878097,0.894432783126831,17.14215087890625,-158.74609375,-307.904052734375
1699734745,-0.0869691467285156,-3.4828074645996097,-7.932154998779297,-0.3786050975322723,-0.6402207016944885,0.8006759285926819,16.663131713867188,-158.3436279296875,-308.66339111328125
1699734745,-0.3291654968261719,-3.5398388671875,-7.869884490966797,-0.3139150440692901,-0.9983701109886168,0.677990734577179,16.882720947265625,-158.49581909179688,-308.7597961425781
1699734745,-0.6352789306640625,-3.674858093261719,-7.710316314697266,-0.2928928434848785,-1.3817754983901978,0.5946239233016968,16.02471923828125,-158.35328674316406,-308.0818176269531
1699734745,-1.2252021789550782,-3.5452276611328126,-7.699089660644532,-0.3273312449455261,-1.7292450666427612,0.5036436915397644,15.363739013671877,-158.36935424804688,-308.5533447265625
1699734745,-1.162183227539063,-2.8169920349121096,-7.380851440429688,-0.3440798819065094,-1.8008008003234863,0.3304063975811004,14.551406860351562,-158.3324737548828,-308.6045227050781
1699734745,-1.5245796203613282,-2.2700294494628905,-7.015311584472657,-0.3187889158725738,-1.766039252281189,0.2003932893276214,13.723983764648438,-157.96258544921875,-308.82427978515625
1699734745,-2.3800506591796875,-1.9508930969238285,-7.0856652832031255,-0.3030112683773041,-1.787166953086853,0.1521597057580948,13.408966064453123,-157.9498291015625,-308.84356689453125
1699734745,-2.9379405212402343,-1.1308982849121094,-6.823560333251954,-0.2993949651718139,-1.8804961442947388,0.0972788855433464,12.386337280273438,-157.8773193359375,-308.6073303222656
1699734745,-2.987936553955078,-0.8357121276855469,-6.440357208251953,0.0430630482733249,-2.189581632614136,0.1308693289756775,11.623947143554688,-158.12998962402344,-308.699462890625
1699734745,-3.576961669921875,-0.6324348449707031,-5.877976684570313,0.6559208631515503,-2.988851308822632,0.1052422672510147,10.197372436523438,-158.1741180419922,-308.9632568359375
1699734745,-3.5188824462890627,-0.1574725341796875,-4.885540466308594,1.2449071407318115,-3.1916232109069824,0.3148157298564911,8.972320556640625,-158.62582397460938,-309.4051513671875
1699734745,-3.730242919921875,1.916764068603516,-2.0588186645507816,0.9909672737121582,-2.915360450744629,0.9341636896133424,8.09454345703125,-158.3207244873047,-309.1981201171875
1699734745,-5.441184997558594,1.5545173645019532,-4.431235198974609,0.537213921546936,-3.113917112350464,2.161661624908448,6.558990478515625,-159.08364868164062,-309.0509948730469
1699734745,-6.155349884033203,-1.6929794311523438,-4.542753295898438,0.2471117824316024,-2.8426668643951416,3.219202280044556,5.818161010742188,-158.8740692138672,-309.80126953125
1699734745,-6.015989685058594,-0.3591032409667969,-2.930306396484375,-0.0698930621147155,-2.647341012954712,3.4371538162231445,4.551681518554688,-158.71926879882812,-309.2807006835937
1699734745,-5.526058502197266,2.822081451416016,-3.048560485839844,-0.3501042127609253,-2.7024741172790527,3.0835936069488525,3.418807983398437,-158.4043731689453,-308.7461853027344
1699734745,-5.577701110839844,4.611909484863282,-2.2215303039550784,-0.5177334547042847,-2.875937461853028,2.540094375610352,2.580429077148437,-157.98741149902344,-308.7772827148437
1699734745,-5.161566467285157,5.187312927246094,-2.106269989013672,-0.5742273330688477,-3.501027822494507,2.0636203289031982,1.0401153564453125,-157.49874877929688,-308.6362609863281
1699734745,-5.363795928955079,4.984933776855469,-2.3831941223144533,-0.4847016930580139,-4.530094623565674,1.898342490196228,-0.7405242919921875,-157.19569396972656,-308.00347900390625
1699734745,-5.403912506103516,4.641547851562501,-2.204166412353516,-0.3318322598934173,-5.674135684967041,2.1161818504333496,-2.722869873046875,-156.75582885742188,-307.290283203125
1699734745,-4.790937194824219,4.532275085449219,-2.4105871582031253,-0.2294774055480957,-6.635246753692627,2.63032865524292,-5.584991455078125,-156.69073486328125,-306.25006103515625
1699734745,-4.481081542968751,5.080584869384766,-2.7538233947753907,-0.2626758217811584,-7.296951770782471,3.279724359512329,-8.238601684570312,-156.06813049316406,-304.9452514648437
1699734745,-5.112618255615234,6.440656585693359,-3.7476068115234376,-0.4869310259819031,-7.460989475250244,3.8989007472991934,-10.612380981445312,-155.22122192382812,-303.4765625
1699734745,-5.859115905761719,7.429949340820313,-4.677024078369141,-0.8613038659095764,-6.894312381744385,4.29889440536499,-12.963058471679688,-153.72532653808594,-301.6271057128906
1699734745,-7.255412292480469,8.175399169921876,-5.948480072021485,-1.404088258743286,-5.28373908996582,4.552720546722412,-14.473892211914062,-152.14820861816406,-300.9247436523437
1699734745,-10.601853332519532,8.498577117919922,-7.083120574951172,-2.069559335708618,-3.012502908706665,4.739727973937988,-15.272262573242188,-150.2471160888672,-299.3353576660156
1699734745,-11.730206909179689,8.148006134033203,-8.16267562866211,-2.709178686141968,-1.389243245124817,4.658193588256836,-14.65484619140625,-148.3419647216797,-298.589599609375
1699734745,-10.997330932617189,7.766299896240235,-9.250762939453123,-3.130727767944336,-0.7640164494514465,4.452430248260498,-14.16290283203125,-146.17977905273438,-297.8115234375
1699734745,-10.754386138916017,7.9239221191406255,-9.4410173034668,-3.23508358001709,-0.8863434195518494,4.2582621574401855,-13.731353759765623,-144.0167236328125,-296.71533203125
1699734745,-10.693013763427736,8.417745208740234,-9.253307647705077,-2.9916210174560547,-1.6131632328033447,4.10467004776001,-13.269058227539062,-142.1272735595703,-295.47174072265625
1699734745,-10.58164535522461,8.642727355957032,-8.732839965820313,-2.3481640815734863,-2.749587059020996,4.015294551849365,-13.253158569335938,-140.49853515625,-294.7513427734375
1699734745,-10.80528030395508,9.070088653564452,-8.04966064453125,-1.340881109237671,-4.064677238464356,4.02867603302002,-13.53131103515625,-139.38954162597656,-293.38153076171875
1699734745,-11.67137924194336,9.41287582397461,-7.197033691406251,-0.0958833843469619,-5.209017276763916,4.121657848358154,-13.905029296875,-138.6476593017578,-291.8685302734375
1699734745,-13.301639099121097,9.4603271484375,-6.475683746337891,1.1424726247787476,-5.883886814117432,4.219912528991699,-14.232254028320312,-137.54811096191406,-290.9866943359375
1699734745,-14.774576110839844,9.24282943725586,-6.475384368896485,2.1264381408691406,-6.05330753326416,4.267415523529053,-14.21484375,-137.22821044921875,-289.92999267578125
1699734745,-16.10740447998047,8.7609814453125,-7.236850891113281,2.7426559925079346,-5.737903118133545,4.257112979888916,-14.668319702148438,-136.74917602539062,-289.48541259765625
1699734745,-16.888779602050782,8.331674194335937,-7.436236267089844,3.05704665184021,-5.101975440979004,4.117310523986816,-14.546829223632812,-136.8197021484375,-289.1065673828125
1699734745,-17.505048065185548,7.686815185546876,-7.2377490234375,3.214722156524658,-4.442464351654053,3.7605059146881104,-14.506881713867188,-136.41566467285156,-288.4571533203125
1699734745,-17.60997985839844,7.235503692626954,-6.675817565917969,3.3303298950195312,-3.8609135150909424,3.284242391586304,-14.595657348632812,-136.52023315429688,-288.8021850585937
1699734746,-17.685422973632814,6.88613021850586,-5.918841705322266,3.420799016952514,-3.5493805408477783,2.720829963684082,-14.436019897460938,-136.64407348632812,-288.504150390625
1699734746,-17.81505340576172,5.970184936523438,-4.781806182861328,3.4015231132507324,-3.1541941165924072,2.21981143951416,-14.231613159179688,-136.996337890625,-288.48944091796875
1699734746,-19.00777313232422,4.206851806640625,-2.8157945251464844,2.980107307434082,-2.6286299228668213,1.7843245267868042,-14.64263916015625,-137.60311889648438,-288.84344482421875
1699734746,-19.488124237060543,3.081492004394532,-1.2040960693359375,1.6877951622009275,-2.007562160491944,1.258772850036621,-14.542587280273438,-137.533447265625,-288.4945678710937
1699734746,-19.66161346435547,2.956651611328125,0.7770341491699219,-0.7075449228286743,-1.4360041618347168,0.6184384822845459,-14.485321044921877,-137.14923095703125,-288.1275939941406
1699734746,-20.513941040039064,2.7928921508789064,1.1347901916503906,-2.1240384578704834,-1.4500683546066284,0.2618094980716705,-15.170394897460938,-136.69842529296875,-287.2353820800781
1699734746,-20.20513320922852,2.967578887939453,2.151925048828125,-2.398834705352783,-1.7955652475357056,0.0095652751624584,-15.67547607421875,-136.5121307373047,-286.3724975585937
1699734746,-18.323396301269533,2.8592042541503906,3.738326110839844,-2.0024547576904297,-1.8245609998703003,-0.3563013970851898,-16.376251220703125,-135.84486389160156,-285.18023681640625
1699734746,-14.551839294433597,2.561772766113281,5.901477813720703,-0.4638949632644653,-1.1573154926300049,-0.6974488496780396,-16.704803466796875,-136.344482421875,-284.91705322265625
1699734746,-12.518018646240234,3.926484832763672,8.938811645507814,1.1354901790618896,-0.7686290144920349,-0.9890466332435608,-16.648712158203125,-136.77789306640625,-285.42242431640625
1699734746,-10.12808853149414,7.335346069335938,6.638395385742188,1.5309677124023438,-0.7903050184249878,-0.913727343082428,-17.767669677734375,-137.2152862548828,-284.8187561035156
1699734746,-9.016350402832032,6.528673553466797,3.2445030212402344,1.6590111255645752,-0.4802853763103485,-0.6021079421043396,-17.454177856445312,-137.89495849609375,-285.3675537109375
1699734746,-10.072703704833986,5.597310333251953,5.074297943115234,2.5343117713928223,-0.3114028871059418,-0.2368298470973968,-18.1136474609375,-138.3705291748047,-285.9696044921875
1699734746,-8.152047729492187,7.451055450439454,2.853516082763672,3.8383986949920654,-0.6644994616508484,-0.2654021084308624,-18.1749267578125,-138.7364501953125,-286.0107116699219
1699734746,-4.872367858886719,6.440656585693359,2.638712768554688,3.3260514736175537,-0.6348558068275452,-0.1535898298025131,-18.292877197265625,-139.84544372558594,-287.13287353515625
1699734746,-5.687872009277344,4.8618896484375,1.4847624206542969,3.2242472171783447,-0.71332848072052,0.2970460653305053,-18.203933715820312,-140.27621459960938,-287.86053466796875
1699734746,-6.805747375488282,4.361031188964844,1.6793577575683594,2.8302762508392334,-0.7193730473518372,0.2462622374296188,-18.41595458984375,-141.2751922607422,-288.2259826660156
1699734746,-5.312003631591797,3.821852416992188,0.0931063842773437,2.6280343532562256,-1.0393556356430054,0.0043228431604802,-18.559982299804688,-141.23814392089844,-289.04705810546875
1699734746,-6.65426239013672,3.8877154541015626,-0.2700384521484375,3.436025857925415,-1.5504553318023682,-0.1159521713852882,-19.403106689453125,-142.15277099609375,-288.6702880859375
1699734746,-8.099656677246093,3.809278564453125,-1.1409274291992189,3.546537637710572,-1.3343966007232666,-0.193235233426094,-19.397186279296875,-143.1285400390625,-288.9721374511719
1699734746,-7.8234809875488285,1.651365966796875,-1.1910731506347656,1.7154850959777832,-0.382663756608963,-0.3933270573616028,-19.87245178222656,-143.59912109375,-290.02789306640625
1699734746,-7.840395812988282,-0.013172607421875,-1.0744656372070314,1.2538490295410156,-0.0313611179590225,-0.9467945098876952,-20.345046997070312,-144.14549255371094,-289.583251953125
1699734746,-7.905360717773438,0.3582051086425781,0.2026785278320312,1.273485779762268,-0.16159687936306,-1.852855443954468,-20.8365478515625,-144.98614501953125,-290.19927978515625
1699734746,-6.284680938720704,0.1308279418945312,-0.0037422180175781,0.8235450387001038,-0.1979463696479797,-2.465404748916626,-21.068328857421875,-146.2273406982422,-290.5106201171875
1699734746,-5.823789367675782,-0.5804928588867188,0.4171824645996094,0.3946927189826965,-0.4396609961986542,-2.758531093597412,-21.42890930175781,-146.85818481445312,-290.31561279296875
1699734746,-4.892575836181641,-0.341290283203125,1.054856414794922,0.2770039141178131,-0.9143574833869934,-3.01694655418396,-22.551071166992188,-147.8161163330078,-290.294677734375
1699734746,-3.5260675048828127,-0.5861810302734375,2.011217651367188,0.0058142133057117,-1.474778175354004,-3.4057838916778564,-23.563385009765625,-149.00791931152344,-289.909423828125
1699734746,-2.7008335876464846,-1.319506072998047,2.42181381225586,-0.1447635740041732,-2.2112386226654053,-3.931862592697144,-24.686813354492188,-150.08274841308594,-289.1600952148437
1699734746,-4.124073944091797,-2.168390808105469,2.6467959594726564,-0.2656718790531158,-2.6944146156311035,-4.251443862915039,-25.726852416992188,-151.20848083496094,-288.1632080078125
1699734746,-5.98994384765625,-3.6482135009765626,2.4971072387695314,-0.532879114151001,-2.9220950603485107,-4.403895378112793,-27.114273071289062,-152.53720092773438,-287.4545593261719
1699734746,-9.231902160644532,-4.988675994873047,1.7348922729492189,-0.6265267729759216,-2.6924877166748047,-4.098556995391846,-28.251296997070312,-153.9542694091797,-286.47900390625
1699734746,-12.116553497314454,-4.109554138183594,1.8962567138671875,-0.3071892261505127,-2.316403388977051,-3.795612096786499,-29.284896850585938,-155.50015258789062,-285.2335205078125
1699734746,-10.541528778076172,-1.8377284240722656,1.217717742919922,0.1921081840991974,-2.2922282218933105,-3.198002815246582,-29.916488647460938,-156.83628845214844,-285.0444030761719
1699734746,-8.954079895019532,-1.4856605529785156,0.9680369567871094,0.356618583202362,-2.466127157211304,-2.7168142795562744,-30.816925048828125,-157.66871643066406,-284.1273498535156
1699734746,-6.980434112548829,-2.246378631591797,0.6697073364257813,0.813511312007904,-2.092958211898804,-3.1936047077178955,-31.95248413085937,-159.41712951660156,-282.4007873535156
1699734746,-8.303832092285157,-3.604055328369141,0.3308120727539063,1.1799681186676023,-2.0886940956115723,-3.093889236450196,-32.14854431152344,-160.51519775390625,-282.0520935058594
1699734746,-9.446855163574218,-2.13111831665039,-1.0068063354492187,1.7014403343200684,-1.7012711763381958,-2.727632761001587,-32.70301818847656,-162.12612915039062,-281.42926025390625
1699734746,-7.037914581298828,0.1008901977539062,-0.28740234375,1.3223497867584229,-0.8556861877441406,-2.047003984451294,-33.09104919433594,-162.84219360351562,-281.89031982421875
1699734746,-8.036038970947265,-3.154390411376953,-0.8662486267089844,0.7295737862586975,-0.5012189149856567,-1.4064422845840454,-32.98414611816406,-164.03749084472656,-281.5233764648437
1699734746,-8.540789337158204,-0.8611592102050781,-2.435285797119141,0.9479023814201356,-0.3343167304992676,-1.5835528373718262,-33.25663757324219,-165.00552368164062,-281.1845397949219
1699734746,-5.101690979003907,3.527564392089844,-0.9276210021972656,1.2444437742233276,-0.616706371307373,-1.3995606899261477,-33.59214782714844,-165.76840209960938,-281.375244140625
1699734746,-6.107000427246094,2.429298248291016,-2.1885987854003908,1.1561559438705444,-0.7699022889137268,-1.0483362674713137,-33.75407409667969,-165.8214874267578,-280.02166748046875
1699734746,-6.941814422607422,4.832400970458985,-1.3085787963867188,0.7309376001358032,-0.5033276081085205,-0.6364789605140686,-33.946746826171875,-166.43946838378906,-280.3573913574219
1699734746,-7.890840911865235,4.104913787841797,-0.01676513671875,0.0609592236578464,-0.0256078913807868,-0.0297720097005367,-33.662078857421875,-166.56982421875,-280.48638916015625
1699734746,-8.699459381103516,2.592159576416016,1.5816110229492188,-0.5368080735206604,0.307572990655899,0.7144930958747864,-34.31752014160156,-166.18687438964844,-281.1414794921875
1699734746,-8.546178131103517,3.029400329589844,2.4270529174804687,-0.504490852355957,0.1997386813163757,1.6846160888671875,-34.204498291015625,-165.58978271484375,-281.27789306640625
1699734746,-9.46945816040039,2.903811492919922,3.721860351562501,-0.3856747150421142,0.6149465441703796,2.84389328956604,-34.411529541015625,-164.24884033203125,-281.0569763183594
1699734746,-11.55402328491211,4.932393035888672,3.4527200317382816,-0.4534127712249756,1.1291276216506958,3.374560832977295,-34.34735107421875,-162.87107849121094,-281.3099975585937
1699734746,-11.31646728515625,7.1138067626953125,1.1644285583496097,-0.3538523614406585,1.1477502584457395,3.1119632720947266,-34.356201171875,-161.3851318359375,-281.89129638671875
1699734746,-12.030931549072266,6.943161621093751,0.0044906616210937,-0.1184592694044113,0.899438202381134,2.583090782165528,-34.40220642089844,-160.06370544433594,-282.3362731933594
1699734746,-13.645174713134766,7.790100402832031,1.1297007751464845,0.1043570339679718,1.163662075996399,2.287271499633789,-33.96623229980469,-159.30990600585938,-282.95660400390625
1699734746,-15.415094146728515,6.528374176025391,1.8522482299804688,0.2289631366729736,1.511845946311951,2.158169269561768,-33.694976806640625,-158.0891571044922,-283.6060485839844
1699734746,-15.939902801513671,5.047204284667969,1.3093272399902345,0.1524276286363601,1.662739872932434,2.214430570602417,-33.62770080566406,-156.92665100097656,-284.2521667480469
1699734746,-15.91430603027344,4.975653076171875,0.6303392028808594,-0.0643542185425758,1.8696235418319704,2.3616886138916016,-33.191986083984375,-155.7473602294922,-285.0371398925781
1699734746,-14.006672973632812,5.471871185302735,1.143472137451172,-0.1236681416630745,1.6229546070098877,2.36716628074646,-32.86505126953125,-154.72671508789062,-285.889404296875
1699734746,-10.91066116333008,4.126019897460938,1.4244378662109376,-0.1663807183504104,0.9899574518203736,2.0147275924682617,-32.368408203125,-154.0632781982422,-286.36248779296875
1699734746,-9.75207046508789,4.722679138183594,0.7301815795898438,-0.329165369272232,0.2850596904754638,1.8087111711502075,-31.914215087890625,-153.2296600341797,-286.63995361328125
1699734746,-9.34821029663086,6.284830627441407,-2.099084930419922,-0.5766574740409851,-0.8583959341049194,2.0645008087158203,-32.171173095703125,-152.3134307861328,-286.152587890625
1699734746,-11.647728424072266,6.105952606201172,-3.940854949951172,-0.8512464165687561,-2.001183271408081,2.890066623687744,-32.35780334472656,-151.47235107421875,-285.31561279296875
1699734746,-14.248719635009769,4.356690216064453,-5.346282348632813,-0.9783039689064026,-3.5650672912597656,3.824761390686035,-32.48533630371094,-149.58189392089844,-283.632568359375
1699734746,-12.965887298583985,1.7450711059570314,-4.820425872802734,-0.9649530053138732,-5.303276062011719,4.047389030456543,-32.82411193847656,-147.9098663330078,-281.5815124511719
1699734746,-9.210496673583986,-0.0270936584472656,-3.0392797851562503,-0.9179216027259828,-6.613275527954102,3.691676378250122,-33.06300354003906,-145.6686248779297,-278.908203125
1699734746,-6.829098815917969,-0.4363426208496094,-1.6732205200195314,-0.9138498902320862,-7.422688961029053,3.2186949253082275,-33.43290710449219,-144.5765380859375,-275.3558654785156
1699734746,-5.543422393798829,-0.1306782531738281,-0.00718505859375,-1.0137778520584106,-7.418559074401855,2.851574659347534,-33.37727355957031,-143.17803955078125,-271.6259155273437
1699734746,-5.141059112548828,0.4318519592285156,3.640878753662109,-1.2387597560882568,-5.965197563171387,2.45210075378418,-33.510833740234375,-141.68316650390625,-268.9218139648437
1699734746,-4.887636108398437,0.8053253173828125,8.77385467529297,-1.5470294952392578,-3.309394598007202,2.010939598083496,-33.31239318847656,-140.8164825439453,-267.4533996582031
1699734746,-6.195616149902344,2.905308380126953,14.318624267578128,-1.4171063899993896,-1.0244126319885254,1.8319011926651,-32.84544372558594,-140.08982849121094,-266.0575256347656
1699734746,-7.279212799072266,5.764362945556641,16.95284637451172,-0.5694333910942078,0.3221945464611053,1.7317003011703491,-32.51289367675781,-139.63601684570312,-266.8836669921875
1699734746,-6.357729034423828,6.298152923583984,15.61941925048828,0.5035139918327332,1.1009957790374756,1.4908043146133425,-32.231903076171875,-138.90614318847656,-267.01092529296875
1699734746,-5.201084289550781,6.256539459228516,12.21504867553711,1.277129292488098,1.3079380989074707,1.026395559310913,-32.11531066894531,-138.54660034179688,-267.591552734375
1699734746,-4.783153381347656,6.583609313964844,8.359965362548829,1.5938001871109009,1.0413202047348022,0.4484457075595855,-31.95796203613281,-137.6670379638672,-268.447998046875
1699734746,-5.262456665039063,6.817722473144531,5.358706512451172,1.4910393953323364,0.6721136569976807,0.0284854378551244,-32.01069641113281,-137.97874450683594,-268.9442443847656
1699734746,-6.397995300292969,6.850504302978516,3.536994781494141,1.1305166482925415,0.2989712655544281,-0.2373494356870651,-32.08042907714844,-137.88526916503906,-268.8922119140625
1699734746,-7.746241607666016,6.919959869384766,2.749332733154297,0.7317876815795898,-0.0711245089769363,-0.4115279018878937,-32.19012451171875,-138.5851593017578,-268.5838623046875
1699734746,-8.606053619384767,6.938670959472657,2.7396029663085937,0.3946293294429779,-0.3651782274246216,-0.5265071988105774,-32.54631042480469,-138.74929809570312,-269.2695617675781
1699734746,-9.228758697509765,7.034771118164063,2.915786590576172,0.1214606538414955,-0.5556895732879639,-0.5396027565002441,-32.67341613769531,-138.5960235595703,-269.134765625
1699734746,-9.523944854736328,7.353608093261719,3.1380743408203124,-0.0209292508661746,-0.5991787314414978,-0.4413611590862274,-33.15910339355469,-139.04800415039062,-268.8558959960937
1699734746,-9.265731811523438,7.843389587402344,3.536396026611328,-0.0259985774755477,-0.675596296787262,-0.3222675323486328,-33.41862487792969,-139.1632080078125,-268.8857116699219
1699734746,-8.494385833740235,8.000562744140625,3.6148329162597657,0.07776989787817,-0.8465994596481323,-0.2357137203216552,-33.34477233886719,-139.17745971679688,-268.8564453125
1699734746,-7.216792602539063,7.7601626586914065,3.528761901855469,0.2518178522586822,-1.1112316846847534,-0.2088717222213745,-33.79345703125,-139.614501953125,-267.79052734375
1699734746,-5.395829315185547,6.585106201171875,3.2575259399414063,0.4922656118869781,-1.478573441505432,-0.2660630941390991,-33.829193115234375,-139.68222045898438,-267.5566101074219
1699734746,-3.7812867736816407,5.724695434570313,2.9427305603027345,0.759800910949707,-2.0119857788085938,-0.3547514379024505,-34.01420593261719,-139.6287384033203,-266.97589111328125
1699734746,-2.6313780212402347,5.635930023193359,2.741399230957031,1.0761854648590088,-2.4498751163482666,-0.4734048545360565,-34.140350341796875,-139.92616271972656,-266.1255187988281
1699734746,-1.90927963256836,5.438939666748047,2.7605593872070315,1.37478768825531,-2.419715166091919,-0.5478444695472717,-34.30377197265625,-140.2510986328125,-265.85546875
1699734746,-2.0736378479003905,5.333708496093751,2.476300506591797,1.7395172119140625,-2.5640652179718018,-0.5172442197799683,-34.646392822265625,-140.81399536132812,-265.0213623046875
1699734746,-2.4876768493652346,5.162015533447266,1.8767971801757808,2.230342626571656,-3.008318424224853,-0.4351991415023803,-34.96659851074219,-140.57557678222656,-263.906005859375
1699734746,-3.054697723388672,4.418661346435547,1.4479389953613282,2.635137796401977,-2.9677188396453857,-0.1601316183805465,-34.90705871582031,-140.74034118652344,-263.62872314453125
1699734746,-4.4791355895996094,3.168461151123047,1.076561279296875,2.987823247909546,-2.5486693382263184,0.2978452742099762,-34.88690185546875,-140.87911987304688,-263.2253723144531
1699734746,-5.135221252441407,2.7785220336914063,1.363963623046875,3.3487181663513184,-1.0808594226837158,0.906014323234558,-34.57196044921875,-140.5679168701172,-262.7853698730469
1699734746,-6.863377532958984,3.783232727050781,1.4507830810546876,3.551643848419189,0.9153079390525818,1.6865897178649902,-34.29264831542969,-139.23226928710938,-264.24346923828125
1699734746,-8.00699935913086,4.179907836914063,0.5051994323730469,3.487478017807007,2.877881526947021,2.8076958656311035,-33.80778503417969,-138.14263916015625,-266.35699462890625
1699734746,-9.181606750488282,4.43602523803711,-0.6140231323242188,3.273772716522217,4.023271083831787,3.770122766494751,-32.72764587402344,-136.8802032470703,-268.2579040527344
1699734746,-6.315816192626953,4.525988159179688,-1.2626243591308597,3.148088455200196,4.332226276397705,4.497744560241699,-31.536895751953125,-135.12030029296875,-270.84130859375
1699734746,-5.164560241699219,4.025728454589844,-1.481618957519531,2.9721462726593018,4.398378372192383,5.02354621887207,-29.924240112304688,-133.17835998535156,-273.89874267578125
1699734746,-3.7606297302246094,4.516557769775391,-2.0749850463867188,2.8643722534179688,4.175219058990479,5.186273097991943,-27.766159057617188,-131.57591247558594,-276.39453125
1699734746,-2.777773590087891,4.925207977294922,-2.434687042236328,2.879662036895752,3.7356481552124015,5.24812650680542,-25.289306640625,-129.68800354003906,-278.8763427734375
1699734746,-2.9713211059570312,4.903054046630859,-3.0781988525390624,2.749436378479004,3.0520341396331787,5.158761978149414,-23.24131774902344,-127.97921752929688,-280.6085205078125
1699734746,-3.563190307617188,5.489384765625,-3.6356396484375,2.6343839168548584,2.0640978813171387,4.8906097412109375,-21.197479248046875,-126.79730224609376,-282.36358642578125
1699734746,-2.7771748352050785,7.230563964843751,-3.7999978637695313,2.5859315395355225,0.7807570695877075,4.480105876922607,-19.267990112304688,-126.14543151855467,-283.388916015625
1699734746,-2.4373814392089845,8.166417846679687,-3.9713914489746096,2.5087459087371826,-0.7615242600440979,4.131439208984375,-17.981246948242188,-125.1070556640625,-283.981689453125
1699734747,-2.602937164306641,9.01919448852539,-4.419409790039063,2.461116075515747,-2.21645450592041,3.697575807571411,-16.959884643554688,-124.94610595703124,-284.6375427246094
1699734747,-2.489622802734375,11.891122283935548,-3.961511993408204,2.483659744262696,-3.446261644363404,2.997246742248535,-16.181106567382812,-124.0402374267578,-284.27264404296875
1699734747,-2.445015563964844,14.949412536621097,-3.150797882080078,2.577192544937134,-4.208827495574951,1.9283528327941888,-16.142547607421875,-124.21769714355467,-284.6365661621094
1699734747,-2.137105865478516,17.120797119140626,-1.6832496643066408,2.444290399551392,-3.5356900691986084,0.4779266119003296,-16.267684936523438,-124.51136779785156,-284.71685791015625
1699734747,-2.0712428283691406,18.46739685058594,-0.7952961730957032,1.434935212135315,-0.4552751183509826,-1.028353571891785,-16.90252685546875,-124.6455535888672,-284.7490234375
1699734747,-1.2072395324707033,18.845660247802737,1.0822494506835938,0.674034059047699,1.6616418361663818,-2.1206626892089844,-17.732421875,-125.587890625,-285.7937316894531
1699734747,0.21076171875,16.285983123779296,3.386856994628906,0.0514767728745937,3.1661899089813232,-2.590063571929932,-17.872543334960938,-126.0557861328125,-286.3740539550781
1699734747,-0.025147705078125,12.893437957763672,2.483186187744141,-0.2520269155502319,3.61848521232605,-2.7336089611053467,-18.068267822265625,-126.7537078857422,-287.244873046875
1699734747,-5.085524597167969,9.580078125,0.8698411560058594,0.4605015516281128,1.8379606008529663,-1.5343834161758425,-18.934585571289062,-127.12222290039062,-287.8673095703125
1699734747,-12.117451629638673,5.934708709716797,0.3224295043945313,0.2154974043369293,1.8664524555206297,-0.6379708647727966,-18.989166259765625,-127.48063659667967,-288.78582763671875
1699734747,-8.245453491210938,6.76593017578125,-2.265389099121094,-0.1013982594013214,2.107495784759521,-0.3450937569141388,-18.723175048828125,-127.48773193359376,-289.4921264648437
1699734747,-5.764063568115235,8.540040893554687,-2.8723768615722656,-0.2342575043439865,1.8573029041290283,-0.2441434264183044,-18.42803955078125,-127.71492004394533,-290.05047607421875
1699734747,-5.015021209716797,9.790241088867187,-3.377127227783203,-0.4063088893890381,1.673595666885376,-0.1170754879713058,-18.426239013671875,-127.5687255859375,-290.00689697265625
1699734747,-4.868026885986328,9.940977630615237,-3.526217193603516,-0.6722494959831238,1.7837647199630735,0.113775297999382,-18.095855712890625,-127.59870910644533,-290.4413452148437
1699734747,-4.908143463134766,9.86358856201172,-3.5844461059570314,-0.903345823287964,1.90752375125885,0.4304427206516266,-17.738815307617188,-126.99771118164062,-290.26092529296875
1699734747,-4.719835052490235,9.633067932128906,-3.630550231933594,-1.067615985870361,1.8826191425323489,0.7499786615371704,-17.27734375,-126.87852478027344,-290.9056091308594
1699734747,-4.667743377685548,9.43727508544922,-3.7818855285644535,-1.139882206916809,1.7644469738006592,1.053231716156006,-16.471832275390625,-126.38365173339844,-290.85174560546875
1699734747,-4.377946014404297,9.388775939941407,-3.580254821777344,-1.027895450592041,1.4291187524795532,1.2492507696151731,-15.546127319335938,-125.45252990722656,-290.535888671875
1699734747,-4.008663940429687,8.97219223022461,-2.880909118652344,-0.7134706974029541,0.8173180222511292,1.4455372095108032,-14.807449340820312,-125.48162841796876,-290.5203552246094
1699734747,-3.677851867675781,8.906927947998048,-2.238145751953125,-0.4520191252231598,0.5028394460678101,1.6643632650375366,-14.624847412109377,-124.602294921875,-290.46942138671875
1699734747,-3.471880187988281,9.102122039794924,-1.5922389221191406,-0.2198295593261718,0.3902119398117065,2.0148537158966064,-13.960601806640623,-124.28460693359376,-290.4642333984375
1699734747,-4.736899566650391,9.399403839111327,-1.025068359375,-0.0392398126423358,0.5148265957832336,2.6726388931274414,-12.886749267578123,-123.88990783691406,-290.8432922363281
1699734747,-5.751789093017578,9.765093383789065,1.014290771484375,0.1865003705024719,1.6603496074676514,3.4353058338165283,-11.48065185546875,-123.36344909667967,-291.12042236328125
1699734747,-3.556304626464844,10.06342300415039,9.028026123046876,0.3093932569026947,2.92901349067688,4.185642242431641,-9.040939331054688,-122.93910217285156,-291.3008728027344
1699734747,-1.6181350708007811,9.48427734375,9.46122528076172,-0.0145983835682272,3.58951187133789,4.769396781921387,-6.200714111328125,-122.11436462402344,-292.4818725585937
1699734747,-0.5028044128417969,8.559650115966797,5.226531372070313,-0.5968290567398071,4.007818698883057,4.939289093017578,-3.2269439697265625,-121.27072143554688,-292.9762268066406
1699734747,2.2495220947265624,8.375682678222656,3.032244415283204,-0.5799885392189026,3.107698678970337,4.364182949066162,-0.773529052734375,-120.70797729492188,-292.9986572265625
1699734747,4.583917694091797,7.522157592773438,1.3219010925292969,-0.4247129261493683,2.022207260131836,3.47825288772583,1.6175537109375,-120.36203002929688,-292.634033203125
1699734747,4.008065185546875,6.98193099975586,-2.0342697143554687,-0.3221218585968017,0.8014607429504395,2.5512726306915283,2.92236328125,-120.27932739257812,-293.02783203125
1699734747,3.4024246215820315,7.598648529052735,-4.582420806884766,-0.3186165988445282,-0.324526697397232,1.647733211517334,3.6226806640625,-119.95596313476562,-293.1468505859375
1699734747,2.947370910644532,7.280859375,-5.294040985107422,-0.3924559354782104,-1.265485405921936,0.7696077227592468,3.4752197265625,-119.9542999267578,-292.98370361328125
1699734747,3.0626312255859376,6.518195343017578,-4.861739959716797,-0.4536684155464172,-2.072859764099121,-0.0242571365088224,2.883651733398437,-119.55859375,-292.46636962890625
1699734747,3.0934671020507816,5.688620452880859,-3.837719421386719,-0.4718197286128998,-2.8363399505615234,-0.6492224931716919,2.1136627197265625,-119.2641143798828,-292.3664855957031
1699734747,2.2215303039550784,5.077740783691406,-2.818488922119141,-0.426856517791748,-3.8242592811584473,-1.1065146923065186,0.3796844482421875,-119.6890106201172,-291.8231506347656
1699734747,1.8540444946289063,5.060077514648437,-2.3176304626464845,-0.3495681285858154,-5.086714744567871,-1.5024747848510742,-1.29345703125,-119.51339721679688,-290.7542419433594
1699734747,2.6252407836914062,5.963448944091797,-2.062411193847656,-0.2954705357551574,-6.376929759979248,-1.9875777959823608,-4.047576904296875,-119.5277099609375,-290.0561218261719
1699734747,5.238506469726563,7.683522033691407,-1.2025991821289064,-0.4162957370281219,-6.5160980224609375,-2.7765650749206543,-6.9180908203125,-119.828125,-289.1078491210937
1699734747,7.25930419921875,9.957443389892578,2.398462371826172,-0.5458835959434509,-4.9435014724731445,-3.496947765350342,-9.832351684570312,-120.22029113769533,-287.898193359375
1699734747,4.782704315185547,12.169692993164062,8.589138793945313,-0.4986300468444824,-2.0751421451568604,-3.9907381534576416,-12.22308349609375,-120.87303161621094,-286.907470703125
1699734747,2.1785696411132816,13.295801239013672,9.51735855102539,-0.3958064615726471,0.3587168753147125,-4.211729049682617,-14.360549926757812,-121.87574768066406,-286.44451904296875
1699734747,0.5489085388183594,13.477523345947269,4.929099884033203,-0.3686022758483886,1.970438003540039,-4.297903537750244,-16.073593139648438,-122.69558715820312,-286.3817138671875
1699734747,-0.6291416931152344,13.755195922851565,0.8744815063476563,-0.4533411264419555,2.5711824893951416,-4.32483434677124,-17.540924072265625,-123.58370971679688,-286.7015686035156
1699734747,-1.6100518798828125,14.377451934814454,-2.568957824707032,-0.6634551882743835,2.5472893714904785,-4.326691627502441,-18.972320556640625,-124.73760986328124,-286.9400939941406
1699734747,-2.9526100158691406,15.175143127441409,-4.256997528076172,-1.174025297164917,2.427110433578491,-4.35600471496582,-20.736297607421875,-125.73268127441406,-286.8502197265625
1699734747,-4.566104736328125,15.69740707397461,-4.341421966552734,-2.119342565536499,2.611327648162842,-4.373670101165772,-21.848876953125,-126.85514831542967,-287.08740234375
1699734747,-9.811047821044925,9.099427642822263,-0.7792794799804688,-1.5252631902694702,2.806061029434204,-2.422461032867432,-22.61054992675781,-127.77883911132812,-287.51690673828125
1699734747,-24.2039176940918,-7.678582305908203,4.607119445800781,-2.98708724975586,2.587241649627685,-0.9237675070762634,-22.653976440429688,-127.84124755859376,-287.4764404296875
1699734747,-16.92455520629883,7.90880355834961,-6.512806549072266,-4.34013032913208,1.694233775138855,-0.6256313920021057,-22.66790771484375,-127.44635009765624,-286.8509521484375
1699734747,-10.22044647216797,15.72480010986328,-5.642216949462891,-4.618562698364258,0.796781599521637,-1.0028196573257446,-22.9451904296875,-127.1904754638672,-285.0892333984375
1699734747,-7.416177978515625,18.95583114624024,-0.6948550415039063,-3.858910322189331,0.0907043367624282,-1.1637380123138428,-23.83778381347656,-127.12483215332033,-283.8515625
1699734747,-6.924001464843751,19.06675048828125,2.91234375,-3.061150074005127,-0.4167170524597168,-0.8770495057106018,-24.516998291015625,-127.6352081298828,-282.8306884765625
1699734747,-5.376070404052735,16.58640838623047,2.8027716064453125,-2.380990028381348,-0.8331198692321777,-0.4251385033130646,-25.197967529296875,-128.0066375732422,-281.86505126953125
1699734747,-2.7294241333007814,13.942306823730467,2.103725280761719,-1.7319945096969604,-1.2737725973129272,-0.167216956615448,-25.9088134765625,-127.63938903808594,-280.61114501953125
1699734747,-0.2091151428222656,13.005554809570311,1.4793736267089843,-1.1361476182937622,-1.7183996438980105,-0.1443172246217727,-26.1195068359375,-128.29347229003906,-279.5731201171875
1699734747,1.984573059082032,12.449012145996097,0.8195457458496094,-0.7437583208084106,-2.1327078342437744,-0.3464386463165283,-26.471405029296875,-128.8655548095703,-278.9010009765625
1699734747,3.7353323364257816,12.046199798583984,-0.1621128845214844,-0.6819878816604614,-2.544950723648072,-0.6161507964134216,-27.238845825195312,-129.71441650390625,-277.89813232421875
1699734747,4.138444061279297,11.34850067138672,-1.09452392578125,-0.8954077363014221,-2.8665544986724854,-0.7522194385528564,-28.03802490234375,-130.1644287109375,-276.266845703125
1699734747,3.622916107177735,10.30711624145508,-1.086291046142578,-1.2201629877090454,-2.876675844192505,-0.6892852187156677,-28.818359375,-130.58656311035156,-275.416015625
1699734747,3.0296997070312504,10.089019775390623,-0.2609074401855469,-1.6129530668258667,-2.4274911880493164,-0.5481283664703369,-29.4234619140625,-130.81759643554688,-273.6200561523437
1699734747,1.9425105285644533,10.464139709472656,0.6749464416503906,-2.075259208679199,-1.4005366563796997,-0.398989200592041,-29.467819213867188,-131.2840576171875,-272.9346923828125
1699734747,-0.2070195007324219,10.11790969848633,1.3965957641601563,-2.583259105682373,-0.0135978339239954,-0.2654585838317871,-30.028823852539062,-131.6901397705078,-271.6478881835937
1699734747,-1.859283599853516,9.953701171875,1.0388397216796876,-3.054165840148926,1.3591521978378296,-0.2323035448789596,-29.764144897460938,-131.53831481933594,-271.4432373046875
1699734747,-2.0541783142089844,10.496173095703126,0.769998779296875,-3.135659456253052,2.5789310932159424,-0.4179727435111999,-30.389373779296875,-132.36123657226562,-271.3406982421875
1699734747,-1.3398637390136718,10.807974700927735,2.02858154296875,-2.7203457355499268,3.412772417068481,-0.6944975256919861,-30.15196228027344,-132.29678344726562,-271.7353820800781
1699734747,-1.6723223876953126,9.323661346435548,2.5899142456054687,-2.024160623550415,3.673212766647339,-0.8847836256027222,-30.41635131835937,-132.75367736816406,-273.0343017578125
1699734747,-1.900298309326172,7.517367553710938,1.9588265991210936,-1.290603518486023,3.4950926303863525,-1.05454683303833,-30.64389038085937,-133.21820068359375,-274.191650390625
1699734747,-1.7642312622070313,6.10969482421875,1.4132112121582032,-0.7318222522735596,3.0290706157684326,-1.1903352737426758,-30.48106384277344,-133.38644409179688,-275.3487243652344
1699734747,-2.1079165649414064,5.124293975830079,0.7134164428710937,-0.5569021105766296,2.37580680847168,-1.2370953559875488,-30.74726867675781,-134.50027465820312,-276.45367431640625
1699734747,-2.801125030517578,4.719385986328125,0.5001100158691406,-0.6200124025344849,1.5212184190750122,-1.2167285680770874,-31.0533447265625,-134.84327697753906,-276.53729248046875
1699734747,-3.346740417480469,4.521946563720704,0.8488847351074219,-0.6780576109886169,0.7146097421646118,-1.134795308113098,-31.14862060546875,-135.98919677734375,-276.86944580078125
1699734747,-3.663631439208984,4.552333374023438,1.4856605529785156,-0.5959294438362122,0.1367876827716827,-0.9611049890518188,-31.53193664550781,-136.00343322753906,-276.3668212890625
1699734747,-4.004322967529297,4.744982757568359,2.376907196044922,-0.3496506810188293,-0.1731757819652557,-0.7097382545471191,-31.485122680664062,-136.517578125,-276.6446533203125
1699734747,-4.22197036743164,5.028343505859375,3.0862820434570315,-0.0056642773561179,-0.2543108463287353,-0.4250729978084564,-32.10398864746094,-136.82040405273438,-276.4222412109375
1699734747,-4.299209747314453,5.456602935791016,3.3159045410156254,0.3644187152385711,-0.2309743613004684,-0.1677011102437973,-32.093017578125,-137.3096466064453,-276.7017822265625
1699734747,-4.223616943359375,5.969885559082032,3.169508972167969,0.6818094253540039,-0.1567089259624481,0.0275994036346673,-32.23712158203125,-137.3733673095703,-276.8046264648437
1699734747,-4.0475830078125,6.299649810791016,2.8428881835937503,0.9080319404602052,-0.1168973222374916,0.1275944411754608,-32.29608154296875,-137.8154296875,-276.845947265625
1699734747,-3.782484283447266,6.487359466552735,2.4899221801757814,1.067707657814026,-0.1216939464211463,0.1354116201400756,-32.34857177734375,-137.57244873046875,-276.9903564453125
1699734747,-3.650608520507813,6.487958221435547,2.2941293334960937,1.1921573877334597,-0.1184651255607605,0.087482176721096,-32.57121276855469,-138.1177978515625,-277.3125
1699734747,-3.787274322509766,6.319109344482422,2.0951930236816407,1.2885757684707642,-0.0558720529079437,0.0072917351499199,-32.47662353515625,-138.31895446777344,-277.43267822265625
1699734747,-4.01165771484375,6.150559844970704,1.7812957763671875,1.3494908809661863,0.0126923592761158,-0.0713319703936576,-32.42463684082031,-138.15101623535156,-277.3580627441406
1699734747,-4.359833679199219,6.184090118408204,1.227447509765625,1.3499115705490112,-0.0243532769381999,-0.0824421420693397,-32.61680603027344,-138.92770385742188,-277.8617248535156
1699734747,-4.7663882446289065,6.231840820312501,0.6738986206054688,1.2816044092178345,-0.1109925657510757,-0.0053646718151867,-32.722198486328125,-138.853515625,-277.9291381835937
1699734747,-5.082081756591797,6.123765563964844,0.5760021972656251,1.1613088846206665,-0.1382984817028045,0.1219245716929435,-32.696929931640625,-139.44325256347656,-278.03564453125
1699734747,-5.196294250488282,5.93051742553711,1.1895762634277345,1.077419638633728,0.02459935285151,0.2355813682079315,-32.886383056640625,-139.34361267089844,-278.5399169921875
1699734747,-5.09465560913086,5.704337768554688,2.4007077026367187,1.084993600845337,0.3870513141155243,0.3007127046585083,-32.695831298828125,-139.626953125,-278.6443786621094
1699734747,-4.8560517883300784,5.636828155517579,3.5103501892089843,1.149673342704773,0.8402446508407593,0.3009667694568634,-32.52809143066406,-139.5504608154297,-279.1356201171875
1699734747,-4.629423065185547,5.836363220214844,3.7389248657226566,1.206305980682373,1.159907579421997,0.2435652613639831,-32.35345458984375,-139.84625244140625,-279.4104309082031
1699734747,-4.590054931640625,6.264173583984375,3.23088134765625,1.19173264503479,1.228367567062378,0.1589318662881851,-32.484100341796875,-139.71090698242188,-280.1541748046875
1699734747,-4.8069538879394536,6.861431579589844,2.922073516845704,1.082145094871521,1.1232295036315918,0.0678363069891929,-32.40849304199219,-140.32855224609375,-280.40167236328125
1699734747,-5.19285140991211,7.3937246704101565,3.296744384765625,0.8772444725036621,1.0188367366790771,-0.0067817396484315,-32.28419494628906,-140.1804962158203,-280.98736572265625
1699734747,-5.548661499023438,7.464677124023438,4.284839630126953,0.6116021275520325,1.063476324081421,-0.0196501333266496,-31.974288940429688,-140.4071044921875,-281.7856750488281
1699734747,-5.662424926757812,7.130272521972657,5.392685852050781,0.3304527401924133,1.2069318294525146,0.0335811302065849,-31.9019775390625,-140.5060577392578,-281.6547546386719
1699734747,-5.128784637451172,6.935677185058594,5.822442169189453,0.1352278590202331,1.252644419670105,0.1101605892181396,-31.952621459960938,-140.49586486816406,-281.66119384765625
1699734747,-4.066443786621094,7.222181396484375,5.263055419921876,0.1062633246183395,1.0841654539108276,0.165195345878601,-31.667633056640625,-140.83294677734375,-282.28155517578125
1699734747,-3.103047180175781,7.712411956787109,3.933520202636719,0.1865765303373336,0.6534973978996277,0.1885475367307663,-31.513839721679688,-140.8637237548828,-282.4681701660156
1699734747,-2.719394989013672,7.989036712646484,1.8824853515625,0.2966724038124084,0.019089538604021,0.2238200455904007,-31.405242919921875,-140.50404357910156,-282.2831420898437
1699734747,-2.7057733154296875,8.01762725830078,0.101788330078125,0.4197509288787842,-0.6801772117614746,0.2761476933956146,-31.59092712402344,-140.93333435058594,-282.1178894042969
1699734747,-2.8096572875976564,7.900271301269532,-0.9178912353515626,0.5395013093948364,-1.249827861785889,0.3383412957191467,-31.62939453125,-141.1177978515625,-281.75274658203125
1699734747,-2.916535034179688,7.644004211425782,-1.1241622924804688,0.667009711265564,-1.5723782777786257,0.3899080753326416,-32.00593566894531,-141.04733276367188,-281.284423828125
1699734748,-2.9523106384277344,7.334447937011719,-0.7520361328125,0.7712594270706177,-1.639193773269653,0.4215706884860992,-32.29656982421875,-140.95803833007812,-280.0902709960937
1699734748,-3.01248550415039,6.964118041992188,0.0152682495117187,0.8434185981750488,-1.4376952648162842,0.4431910216808319,-32.48030090332031,-141.16815185546875,-279.6416931152344
1699734748,-2.902464294433594,6.496640167236328,1.0698252868652345,0.8932623267173767,-1.0378080606460571,0.4612073004245758,-32.350677490234375,-141.24456787109375,-278.5735778808594
1699734748,-2.7485842895507813,6.128405914306641,1.670376434326172,0.9222710728645324,-0.6828110814094543,0.4527344405651092,-32.253997802734375,-141.3162078857422,-278.4559936523437
1699734748,-2.747237091064453,6.025120697021484,1.1611354064941406,0.9242071509361268,-0.5246158242225647,0.4353091120719909,-32.15394592285156,-141.39808654785156,-278.44122314453125
1699734748,-2.821482696533203,5.878276062011719,0.5593867492675781,0.873226523399353,-0.4574469029903412,0.4270708858966827,-32.767120361328125,-141.31370544433594,-278.3778686523437
1699734748,-2.804268493652344,5.62155990600586,0.5038522338867187,0.7838205099105835,-0.415318101644516,0.4206731915473938,-32.444061279296875,-141.45242309570312,-277.650390625
1699734748,-2.636018371582032,5.298082580566407,0.6551875305175782,0.6930844783782959,-0.3865338563919067,0.4037448167800903,-32.0654296875,-141.2299041748047,-277.53045654296875
1699734748,-2.451452178955078,5.18566635131836,0.8033793640136719,0.6528065800666809,-0.3677420616149902,0.3295097351074219,-32.46156311035156,-141.2805633544922,-277.1877136230469
1699734748,-2.2546115112304688,5.336253204345703,1.0186317443847657,0.672011137008667,-0.3267640173435211,0.1930701285600662,-32.21897888183594,-141.25057983398438,-276.55487060546875
1699734748,-1.9032920837402345,5.620961151123047,1.5480807495117188,0.7470337152481079,-0.1811034679412841,0.0247088093310594,-32.32829284667969,-140.9503631591797,-276.4194030761719
1699734748,-1.599723358154297,6.128555603027344,2.564766540527344,0.8552936315536499,0.104130133986473,-0.1171639040112495,-32.450897216796875,-141.57095336914062,-275.717529296875
1699734748,-1.5995736694335938,7.078480224609375,3.781436462402344,0.9471167325973512,0.5143921971321106,-0.2185288816690445,-32.769561767578125,-141.36415100097656,-276.0229797363281
1699734748,-1.9258950805664063,8.469088439941407,4.549339599609375,0.9275033473968506,0.9098830819129944,-0.3025476038455963,-32.94268798828125,-142.02178955078125,-276.064697265625
1699734748,-2.9094996643066406,9.991422729492188,4.255949707031251,0.7101089954376221,1.1541227102279663,-0.4114940762519836,-32.84886169433594,-141.8871612548828,-276.26031494140625
1699734748,-4.308041381835937,11.620485076904297,3.884122924804688,0.2025826722383499,1.3686946630477903,-0.609173059463501,-32.834320068359375,-142.08583068847656,-276.9151611328125
1699734748,-5.753585357666016,14.136153717041015,4.477489013671876,-0.210922360420227,1.723814606666565,-0.9402213096618652,-32.75617980957031,-143.109130859375,-276.51690673828125
1699734748,-7.170838165283204,15.422728271484376,2.724185028076172,-0.1864713430404663,1.949911117553711,-1.2816097736358645,-32.79631042480469,-143.16619873046875,-277.2631225585937
1699734748,-7.970774688720703,15.350877685546877,-0.4614903259277344,-0.0461911968886852,1.787899613380432,-1.5269920825958252,-32.22877502441406,-143.70947265625,-277.6624755859375
1699734748,-8.36101318359375,15.922389221191407,-3.560046844482422,-0.027567446231842,1.108443021774292,-1.610248327255249,-32.759033203125,-144.45201110839844,-278.02508544921875
1699734748,-8.688382415771486,15.579003295898438,-6.182293853759766,-0.1365067064762115,0.2601338326931,-1.4003798961639404,-32.61424255371094,-145.25318908691406,-278.52392578125
1699734748,-8.765472106933593,13.64248031616211,-6.591393127441407,-0.3356925249099731,-0.3008133769035339,-0.8569884300231934,-32.825286865234375,-146.0607452392578,-278.1964111328125
1699734748,-8.074209594726563,10.806926879882813,-5.39597900390625,-0.4780523180961609,-0.4609425663948059,-0.1391791999340057,-32.86029052734375,-146.00494384765625,-277.6840209960937
1699734748,-6.291716308593751,8.590785369873048,-3.415148162841797,-0.3975817263126373,-0.4415355920791626,0.402055025100708,-32.841949462890625,-145.91879272460938,-276.832275390625
1699734748,-3.981869659423829,7.68846176147461,-1.6567547607421875,-0.1727153211832046,-0.4191378653049469,0.64383864402771,-33.104583740234375,-145.9449462890625,-276.3777160644531
1699734748,-2.6033862304687503,7.464527435302735,-0.968785400390625,0.0803417116403579,-0.3320346772670746,0.6351066827774048,-32.75212097167969,-145.80770874023438,-276.2728271484375
1699734748,-1.8211129760742188,7.558082885742188,0.1778302001953125,0.3248888850212097,0.2233694344758987,0.4018188118934631,-32.6011962890625,-145.19287109375,-275.92529296875
1699734748,-2.3043081665039065,9.73620346069336,2.970572662353516,0.5387042164802551,1.3156750202178955,-0.0246723238378763,-32.317047119140625,-145.6360321044922,-276.0440368652344
1699734748,-6.034401397705079,13.580060119628907,3.4301170349121097,0.5223862528800964,2.276388645172119,-0.4099257290363312,-32.461639404296875,-145.3748016357422,-276.4870300292969
1699734748,-9.121581573486328,16.36127655029297,2.0493882751464847,0.1041498407721519,2.7576231956481934,-0.8485928177833557,-32.351959228515625,-145.74819946289062,-277.5675354003906
1699734748,-10.867401123046877,17.78721130371094,-0.2210902404785156,-0.6487372517585754,2.408867359161377,-1.291025161743164,-32.24665832519531,-146.42233276367188,-278.66717529296875
1699734748,-11.78110107421875,17.094751281738283,-2.497705993652344,-1.2354744672775269,1.5441458225250244,-1.5206966400146484,-32.435272216796875,-146.91925048828125,-279.3016967773437
1699734748,-11.395652618408205,14.421161041259769,-3.715274047851562,-1.3500474691390991,0.6127837896347046,-1.4501795768737793,-32.1466064453125,-147.7628173828125,-279.7984924316406
1699734748,-9.950557708740234,11.677666168212893,-3.971840515136719,-1.1156679391860962,-0.1071333736181259,-1.1672128438949585,-32.028900146484375,-148.02645874023438,-279.31103515625
1699734748,-8.713230743408204,9.49340835571289,-3.2615675354003906,-0.7082700729370117,-0.4287753105163574,-0.7664095759391785,-32.318634033203125,-148.7952117919922,-279.39019775390625
1699734748,-7.606132965087891,7.556286621093751,-2.212848358154297,-0.1834715604782104,-0.4782744348049164,-0.3688193261623382,-32.19609069824219,-148.7139892578125,-279.345458984375
1699734748,-6.332581329345704,6.078260192871094,-1.210532684326172,0.393609881401062,-0.3602636456489563,-0.0663630440831184,-32.11431884765625,-148.84698486328125,-279.21990966796875
1699734748,-5.246290283203125,4.865631866455078,-0.3781137084960937,0.8989633321762085,-0.176681563258171,0.1413334310054779,-32.34294128417969,-149.1685028076172,-279.1476745605469
1699734748,-4.377496948242188,3.670068054199219,0.3932322692871094,1.1098459959030151,0.1191681995987892,0.2840564846992492,-31.86103820800781,-149.14239501953125,-278.9981689453125
1699734748,-3.672463073730469,2.250719604492188,2.1273760986328125,0.6336144804954529,0.4861763119697571,0.4093265235424042,-32.04582214355469,-149.16490173339844,-279.00323486328125
1699734748,-3.693269805908203,2.099234619140625,2.937790832519531,-0.179354041814804,0.5370929837226868,0.2717404365539551,-31.566818237304688,-149.4033203125,-279.37176513671875
1699734748,-4.640799407958984,4.444707183837891,1.811383209228516,-0.7010632753372192,0.3941124081611633,-0.0266276150941848,-31.53985595703125,-149.2950897216797,-279.55096435546875
1699734748,-5.131029968261719,5.570216674804688,1.263672180175781,-0.7733873128890991,0.3222009539604187,-0.2182260751724243,-31.31561279296875,-148.9531707763672,-279.27947998046875
1699734748,-5.267246704101563,5.464686126708985,1.1517050170898435,-0.5731269121170044,0.2693473100662231,-0.2993776500225067,-31.3096923828125,-149.39756774902344,-278.8594055175781
1699734748,-5.420078887939454,5.363047485351562,0.4981640625,-0.3365090489387512,0.1718939989805221,-0.3127387464046478,-31.145339965820312,-149.38893127441406,-279.7211303710937
1699734748,-5.408552856445313,5.160967712402344,-0.1627116394042969,-0.1578282415866851,0.0172745939344167,-0.2711968719959259,-31.11846923828125,-149.5250244140625,-279.7430114746094
1699734748,-5.122048645019532,4.8235693359375,-0.7940986633300782,-0.0744550600647926,-0.240217387676239,-0.195065900683403,-31.254119873046875,-149.7722625732422,-279.2578125
1699734748,-4.686155090332032,4.498295745849609,-1.2855267333984377,-0.0990693271160125,-0.5011861324310303,-0.1202776730060577,-31.2763671875,-150.18907165527344,-279.2802124023437
1699734748,-4.1433837890625,4.344864807128906,-1.2864248657226562,-0.2513664662837982,-0.6933622360229492,-0.0928324684500694,-31.02891540527344,-150.22030639648438,-278.717529296875
1699734748,-3.764222259521485,4.288881225585937,-0.7896080017089844,-0.595129132270813,-0.7231755256652832,-0.1623574793338775,-31.318572998046875,-149.6405029296875,-278.21075439453125
1699734748,-3.737427978515625,4.520749053955078,0.2887495422363281,-1.0552189350128174,-0.4587793052196502,-0.3087791502475738,-31.27642822265625,-149.6796417236328,-277.44207763671875
1699734748,-3.885619812011719,5.539829864501954,1.6253201293945314,-1.3558802604675293,0.0170002877712249,-0.3748939931392669,-31.331085205078125,-150.22206115722656,-276.894775390625
1699734748,-3.6950660705566407,6.663842468261719,2.0309765625,-1.4299145936965942,0.3781337141990661,-0.3275866508483886,-31.163482666015625,-150.15628051757812,-276.6546630859375
1699734748,-3.6154316711425785,7.05378158569336,1.2466076660156251,-1.4267501831054688,0.4569047093391418,-0.2419796139001846,-30.8533935546875,-150.5264434814453,-276.6413879394531
1699734748,-3.885619812011719,7.1877529907226565,0.4992118835449219,-1.444524884223938,0.4781111776828766,-0.1453582644462585,-31.192535400390625,-149.9441680908203,-276.0291748046875
1699734748,-4.187841339111328,7.207062835693359,0.3848497009277344,-1.483529806137085,0.516373336315155,-0.0729176178574562,-31.072586059570312,-149.9123992919922,-276.3074951171875
1699734748,-4.4122247314453125,6.640940093994141,0.3610491943359375,-1.5175673961639404,0.5805350542068481,-0.0080483388155698,-30.653091430664062,-149.9426727294922,-275.8122253417969
1699734748,-4.621639251708984,5.615422668457032,0.3897894287109375,-1.5867278575897217,0.6370909810066223,0.0219532363116741,-30.588882446289062,-150.3115234375,-275.7305908203125
1699734748,-4.854554901123048,4.866829376220704,0.3320095825195313,-1.67932391166687,0.6547091007232666,-0.0319773741066455,-30.549087524414062,-149.9315643310547,-275.7208251953125
1699734748,-5.068759460449219,4.640649719238281,0.1959425354003906,-1.7021790742874146,0.6294370293617249,-0.2000345587730407,-30.899703979492188,-149.86380004882812,-275.7430419921875
1699734748,-5.3087104797363285,4.749623107910156,0.1423539733886719,-1.592532992362976,0.5819838047027588,-0.4807165563106537,-30.76913452148437,-149.51959228515625,-274.7168273925781
1699734748,-5.625900878906251,4.920268249511719,0.0046403503417968,-1.4245858192443848,0.4371192753314972,-0.8212472200393677,-30.31947326660156,-149.9949188232422,-275.3129272460937
1699734748,-6.243516540527344,4.851112060546876,0.03113525390625,-1.2955572605133057,0.243337020277977,-1.1169742345809937,-30.164764404296875,-149.77584838867188,-274.6572570800781
1699734748,-7.313491516113282,4.633314971923828,0.2827619934082031,-1.3456412553787231,-0.0569588914513587,-1.299041986465454,-30.868927001953125,-150.7980194091797,-274.80963134765625
1699734748,-8.406817932128906,4.296066284179688,0.1836680603027344,-1.5933687686920166,-0.5299884676933289,-1.3655341863632202,-31.020309448242188,-150.9539794921875,-274.0390014648437
1699734748,-9.548044738769532,3.922742614746094,0.5938151550292969,-2.0057525634765625,-0.8841473460197449,-1.4143481254577637,-30.861480712890625,-151.2285614013672,-273.6561889648437
1699734748,-10.996582489013672,4.1242236328125,2.242037658691406,-2.226771354675293,-0.7587066292762756,-1.4393078088760376,-31.080642700195312,-151.3871307373047,-272.89508056640625
1699734748,-12.596605224609377,5.050497436523438,4.333787841796875,-2.158377170562744,-0.3210456669330597,-1.44803786277771,-30.72882080078125,-152.25381469726562,-272.2565002441406
1699734748,-13.832884368896485,6.677464141845704,5.224435729980469,-2.2058796882629395,-0.0420683585107326,-1.534826636314392,-30.88032531738281,-152.50701904296875,-272.12335205078125
1699734748,-14.014307098388672,8.71742202758789,5.150040435791016,-2.417658567428589,-0.1778086125850677,-1.7808477878570557,-31.38201904296875,-153.36990356445312,-271.1588134765625
1699734748,-12.615915069580078,10.349927215576171,4.863087158203125,-2.429153680801392,-0.5090349912643433,-2.0310773849487305,-31.2353515625,-153.81614685058594,-271.424560546875
1699734748,-11.322305145263671,11.036100311279297,5.577850799560547,-2.0750675201416016,-0.7437966465950012,-2.12185287475586,-31.189865112304688,-154.29678344726562,-270.56182861328125
1699734748,-10.815159759521483,11.502829742431642,6.343658294677735,-1.5105918645858765,-0.915428876876831,-2.0336880683898926,-31.204177856445312,-155.56143188476562,-270.277099609375
1699734748,-10.382559356689454,11.77676010131836,5.742358703613282,-0.9565741419792176,-1.1324563026428225,-1.7681455612182615,-30.900299072265625,-156.20001220703125,-269.2688903808594
1699734748,-9.714947662353516,11.593391418457031,4.345912628173829,-0.5652034878730774,-1.308435559272766,-1.393415927886963,-31.320632934570312,-156.7669677734375,-269.1164855957031
1699734748,-8.902287597656251,11.366014251708984,3.4889447021484377,-0.3752154409885406,-1.2922440767288208,-1.0318968296051023,-31.215728759765625,-157.03553771972656,-268.5837097167969
1699734748,-8.285270690917969,11.42663818359375,3.416794738769531,-0.3136228919029236,-1.0142691135406494,-0.7729704976081848,-31.424224853515625,-157.77444458007812,-268.102294921875
1699734748,-7.919431457519532,12.076885986328126,4.0231837463378906,-0.2935735583305359,-0.6029759049415588,-0.6004056930541992,-31.534820556640625,-157.85865783691406,-268.2280578613281
1699734748,-8.179291076660157,12.968881072998048,4.886139221191407,-0.2286622077226638,-0.1014613732695579,-0.4260216057300567,-31.27412414550781,-157.79747009277344,-268.1398620605469
1699734748,-8.529862060546876,13.192815399169923,5.048850860595703,-0.1572322249412536,0.4115414619445801,-0.22380992770195,-31.33656311035156,-157.83218383789062,-268.17437744140625
1699734748,-8.463549957275392,11.955638122558597,4.109703826904297,-0.1252857446670532,0.6284348964691162,-0.0258132219314575,-31.23109436035156,-158.0560302734375,-268.23272705078125
1699734748,-8.15788558959961,9.25285858154297,2.8722271728515625,-0.0988722518086433,0.582485020160675,0.1770557314157486,-31.273696899414062,-157.54974365234375,-267.79638671875
1699734748,-8.11627212524414,6.896608428955078,1.9670594787597653,-0.042766373604536,0.3961319029331207,0.3878779709339142,-30.944076538085938,-157.5761260986328,-269.04541015625
1699734748,-8.026458892822266,5.411846008300781,1.5560142517089846,0.0606958381831646,0.2201965451240539,0.6019977331161499,-31.106491088867188,-157.93531799316406,-268.9838562011719
1699734748,-7.717651062011719,4.429139556884766,1.6125965881347657,0.2048221230506897,0.1786818653345108,0.7960891723632812,-30.496566772460938,-157.37142944335938,-269.15899658203125
1699734748,-6.975344696044922,3.6492613220214847,1.9839743041992188,0.3757746815681457,0.2738722860813141,0.9013811945915222,-30.839767456054688,-157.27317810058594,-268.7279663085937
1699734748,-5.798641662597657,3.002755737304688,2.4034020996093752,0.5315546989440918,0.424873799085617,0.9107507467269896,-30.373077392578125,-156.96340942382812,-269.3421630859375
1699734748,-4.7117518615722656,2.441872100830078,2.7424470520019533,0.6519505977630615,0.5321485996246338,0.8820770382881165,-30.66688537597656,-156.9576873779297,-269.9290771484375
1699734748,-3.992647247314453,1.931134185791016,2.914888458251953,0.7414062023162842,0.5177779197692871,0.8636950850486755,-30.384689331054688,-156.22427368164062,-270.08868408203125
1699734748,-3.6715649414062494,1.5609539794921876,2.979104919433594,0.8253183960914612,0.351089596748352,0.8387266397476196,-30.085952758789062,-155.97930908203125,-270.5640869140625
1699734748,-3.890260162353516,1.6031661987304688,3.0277537536621097,0.9782520532608032,0.0971779450774192,0.8178223967552185,-29.97181701660156,-155.74588012695312,-270.640625
1699734748,-4.550387420654297,1.9492465209960936,3.13029052734375,1.2266072034835815,-0.1619468182325363,0.7866777777671814,-30.030929565429688,-155.20538330078125,-270.6636962890625
1699734748,-5.104834442138672,2.2423370361328128,3.122955780029297,1.5680543184280396,-0.3842968046665191,0.74074387550354,-30.05528259277344,-155.00738525390625,-270.5588684082031
1699734748,-5.350623321533203,2.2803579711914064,2.841241607666016,1.9540891647338867,-0.572265088558197,0.6629292368888855,-30.04620361328125,-154.7740020751953,-270.502685546875
1699734748,-5.409301300048829,2.283501434326172,2.41373062133789,2.3350307941436768,-0.7626481056213379,0.5633246302604675,-30.098403930664062,-154.54812622070312,-269.7303466796875
1699734748,-5.506149902343751,2.372416534423828,2.0549267578125,2.6439595222473145,-0.9290213584899902,0.4699422121047973,-29.99627685546875,-154.93357849121094,-270.1558837890625
1699734748,-5.563780059814453,2.668800201416016,1.9499949645996093,2.7894287109375,-0.9414801597595216,0.4031418561935425,-29.837234497070312,-154.56434631347656,-270.0670471191406
1699734748,-5.4001702880859375,3.2626153564453126,2.1682411193847657,2.772968053817749,-0.7441500425338745,0.3778412938117981,-29.934295654296875,-154.2943572998047,-269.71502685546875
1699734748,-5.062023468017578,4.437671813964844,2.2975721740722657,2.689884901046753,-0.4782613813877105,0.3560702204704284,-30.09541320800781,-154.30902099609375,-269.60565185546875
1699734748,-4.369563446044922,5.66467025756836,2.0971389770507813,2.6121480464935303,-0.2122131884098053,0.3281565606594085,-29.96357727050781,-154.0885772705078,-269.91070556640625
1699734749,-3.5545083618164064,6.485413513183594,1.65495849609375,2.52024507522583,0.0253847185522317,0.2968423366546631,-29.6961669921875,-154.13052368164062,-269.7601318359375
1699734749,-3.0026060485839845,7.050787811279298,1.009351043701172,2.3493757247924805,0.2411420494318008,0.2501952052116394,-29.638931274414062,-153.99163818359375,-269.9686279296875
1699734749,-3.0647268676757813,7.360493774414063,0.1079255676269531,2.169343948364258,0.288376122713089,0.215652659535408,-29.646041870117188,-154.1577911376953,-270.385498046875
1699734749,-3.4179922485351564,7.326215057373047,-0.6882687377929688,1.974015951156616,0.259901612997055,0.1960941404104232,-29.436065673828125,-154.23899841308594,-270.6622009277344
1699734749,-3.732188873291016,7.125931549072266,-1.2516970825195313,1.7794616222381592,0.1803993284702301,0.1666041612625122,-29.58247375488281,-154.24644470214844,-270.94488525390625
1699734749,-4.07392822265625,6.810238037109375,-1.4361135864257812,1.6203888654708862,0.0751536041498184,0.1448077857494354,-29.202545166015625,-153.79222106933594,-271.4085998535156
1699734749,-4.31103515625,6.464906158447266,-0.97956298828125,1.4268354177474976,0.0281171221286058,0.1492515355348587,-29.241424560546875,-153.99691772460938,-271.75555419921875
1699734749,-4.069736938476563,6.2050465393066405,0.190404052734375,0.9780893325805664,0.1388638764619827,0.1425997614860534,-29.626007080078125,-154.32215881347656,-271.57977294921875
1699734749,-3.3715887451171875,6.248456268310547,3.2552806091308595,0.1313391178846359,0.7732978463172913,-0.0172018893063068,-29.2308349609375,-154.19105529785156,-271.0474853515625
1699734749,-3.4205369567871093,6.254144439697266,7.078779602050782,-0.7568149566650391,1.7673455476760864,-0.2135951071977615,-29.117462158203125,-154.11424255371094,-271.8031005859375
1699734749,-4.172573089599609,5.668262786865235,7.999365234375,-1.3311076164245603,2.4141831398010254,-0.2503136992454529,-28.88145446777344,-154.2001495361328,-272.1497802734375
1699734749,-4.765639801025391,4.976700897216797,5.912255401611328,-1.521785855293274,2.4424831867218018,-0.1532470732927322,-28.824722290039062,-153.92324829101562,-273.04766845703125
1699734749,-5.045408020019532,4.46431640625,3.354374542236328,-1.2827792167663574,1.974428415298462,-0.0050195259973406,-28.4329833984375,-153.94195556640625,-274.167236328125
1699734749,-5.095104675292969,4.230352935791016,1.426084442138672,-0.7421278953552246,1.2525479793548584,0.1160387247800827,-28.4248046875,-153.63253784179688,-274.2011108398437
1699734749,-5.101241912841797,4.395758972167969,0.5200186157226563,-0.0921134129166603,0.5517995357513428,0.1423646062612533,-28.232437133789062,-153.3678436279297,-274.7536315917969
1699734749,-5.297334136962891,4.641697540283204,0.5049000549316407,0.5333331823348999,0.0183699522167444,0.1207599714398384,-27.98481750488281,-153.2087860107422,-274.4447631835937
1699734749,-5.684578857421875,4.550537109375,1.1623329162597658,1.0625815391540527,-0.2293008267879486,0.1219272390007972,-27.766098022460938,-153.163330078125,-274.1908569335937
1699734749,-6.479575653076172,5.038372650146485,3.190315704345703,1.406916260719299,0.2132608741521835,0.0122678512707352,-27.821334838867188,-153.43740844726562,-274.2616577148437
1699734749,-8.252189483642578,8.367898864746094,4.147874450683594,1.6538225412368774,0.1505405008792877,-0.4276530742645263,-27.80943298339844,-153.25584411621094,-274.26348876953125
1699734749,-9.90190887451172,11.007659454345704,-0.2393522644042968,1.7642704248428345,-0.6659572720527649,-0.8374789357185364,-27.515151977539062,-153.2393035888672,-274.3914794921875
1699734749,-11.758198699951173,11.97839080810547,-3.240311737060547,1.725072145462036,-1.4255794286727903,-0.906394064426422,-27.680938720703125,-153.95094299316406,-274.0222473144531
1699734749,-13.620176696777344,12.089908905029295,-4.555626525878907,1.4898918867111206,-1.820188879966736,-0.532435417175293,-27.86680603027344,-154.28884887695312,-274.48248291015625
1699734749,-14.5186083984375,11.752360839843751,-4.925207977294922,1.085780382156372,-1.6796072721481323,0.0485326498746871,-27.914047241210938,-154.01034545898438,-273.4510498046875
1699734749,-12.29692840576172,10.27987289428711,-3.268902282714844,0.6112815141677856,-0.7842215895652771,0.4104266762733459,-28.214614868164062,-154.2342987060547,-272.6088256835937
1699734749,-8.618627471923828,8.913364562988281,-0.7911048889160157,0.1366486549377441,0.4963791370391845,0.332677811384201,-27.92196655273437,-154.18038940429688,-272.966796875
1699734749,-6.181395721435547,9.141939239501951,-0.3562591552734375,-0.1272248029708862,0.9677634239196776,0.0307488571852445,-27.84210205078125,-153.71157836914062,-273.22149658203125
1699734749,-5.284311218261719,10.179581451416016,-3.064427490234375,-0.125189870595932,0.5478689670562744,-0.2370690107345581,-27.952911376953125,-153.51028442382812,-273.052978515625
1699734749,-6.03350326538086,10.083780670166016,-4.719086608886719,-0.078447937965393,-0.1145044714212417,-0.3002972304821014,-27.4879150390625,-153.59974670410156,-273.4879455566406
1699734749,-8.20339096069336,10.405611419677737,-4.309687957763672,-0.0959845855832099,-0.3720161616802215,-0.3420327007770538,-27.434814453125,-153.90994262695312,-272.99334716796875
1699734749,-12.09005859375,13.850996704101563,-1.1690689086914063,-0.8712446093559265,0.8495736718177795,-0.6018695831298828,-27.459274291992188,-153.93905639648438,-273.162841796875
1699734749,-17.263300781250003,18.007852478027345,5.990542602539063,-2.641759395599365,2.363264799118042,-1.0434083938598633,-27.66839599609375,-154.03611755371094,-273.54608154296875
1699734749,-20.139419860839844,15.437547454833986,4.930596771240235,-3.097752809524536,2.480004072189331,-0.6414796113967896,-27.717544555664062,-154.2350311279297,-273.8040771484375
1699734749,-15.95127914428711,9.339977416992188,0.4297563171386719,-2.3223581314086914,1.7731270790100098,-0.101329281926155,-27.209686279296875,-153.85830688476562,-275.15509033203125
1699734749,-9.62034439086914,7.870632934570313,-1.2975018310546875,-1.1571727991104126,0.7759562134742737,0.0907570645213127,-27.09100341796875,-153.4738311767578,-275.27325439453125
1699734749,-6.58435775756836,8.489296417236329,-1.9094293212890625,-0.116489328444004,-0.0543306171894073,0.1071914359927177,-27.323165893554688,-153.545654296875,-275.6290283203125
1699734749,-5.5869818115234375,7.701185302734375,-1.810485076904297,0.6817119717597961,-0.5957395434379578,0.2283306419849395,-26.862548828125,-153.3101043701172,-275.56842041015625
1699734749,-4.954846343994141,6.271807708740234,-1.8073416137695315,1.2904198169708252,-0.99276465177536,0.4172638058662414,-27.039566040039062,-153.31710815429688,-275.09149169921875
1699734749,-4.437821502685547,5.3209849548339845,-1.8567388916015624,1.7401150465011597,-1.2713147401809692,0.6234308481216431,-26.8482666015625,-153.32533264160156,-274.96484375
1699734749,-3.9725889587402334,4.656217346191407,-1.619631958007813,1.9884108304977417,-1.3384219408035278,0.7943551540374756,-27.17906188964844,-153.44021606445312,-274.5099182128906
1699734749,-3.517385559082032,4.31103515625,-0.4559518432617188,1.7684303522109983,-1.116819977760315,0.8995252847671509,-27.248947143554688,-153.22662353515625,-274.61212158203125
1699734749,-3.643124084472656,5.261408843994141,1.3659095764160156,1.0291261672973633,-0.7481930255889893,0.6483287215232849,-26.837966918945312,-153.1240692138672,-274.5525207519531
1699734749,-5.139262847900391,7.230863342285157,2.1773721313476564,0.1629883795976638,-0.2407332509756088,0.2853558361530304,-26.705963134765625,-152.66383361816406,-274.32989501953125
1699734749,-6.507118377685547,6.894961853027344,2.116149444580078,-0.3907230198383331,0.2444310486316681,0.1736657917499542,-27.05511474609375,-152.46746826171875,-274.3055419921875
1699734749,-6.968758392333985,5.65030014038086,1.28373046875,-0.6391198039054871,0.5589677095413208,0.2310689091682434,-26.708572387695312,-152.46978759765625,-275.3890075683594
1699734749,-6.574627990722656,4.991819458007813,0.6008505249023438,-0.7043768167495728,0.7510069012641907,0.2554642558097839,-26.892562866210938,-152.0373077392578,-274.6461181640625
1699734749,-5.889652404785156,4.792583770751953,0.3264710998535156,-0.6670299768447876,0.7943663597106934,0.2129122763872146,-26.790542602539062,-152.15773010253906,-274.877197265625
1699734749,-5.528303833007813,4.608017578125001,-0.1335223388671875,-0.5515867471694946,0.6530424952507019,0.209599569439888,-26.859588623046875,-151.82772827148438,-275.5262451171875
1699734749,-5.397176513671876,4.528682556152344,-0.8482859802246094,-0.3923504650592804,0.3593863844871521,0.2581660449504852,-26.48309326171875,-151.61883544921875,-275.67626953125
1699734749,-5.291645965576172,4.567152557373047,-1.4084211730957032,-0.3162509202957153,0.0074312845245003,0.2820684313774109,-26.341278076171875,-151.22647094726562,-275.3833923339844
1699734749,-5.22159164428711,4.588558044433594,-1.5263758850097655,-0.4290869235992431,-0.3393021523952484,0.2032929360866546,-26.27572631835937,-151.14674377441406,-275.06591796875
1699734749,-5.315296783447266,4.593348083496094,-1.2075389099121094,-0.7661962509155273,-0.5566360950469971,0.0496588982641696,-26.13995361328125,-151.08053588867188,-275.21502685546875
1699734749,-5.627846832275391,4.198768615722656,-0.1622625732421875,-1.2328577041625977,-0.4240466058254242,-0.0919597521424293,-26.37690734863281,-151.2528839111328,-275.1325378417969
1699734749,-5.960604858398438,3.599414978027344,1.517244873046875,-1.6201138496398926,0.0658474564552307,-0.0950439572334289,-26.3050537109375,-150.5675506591797,-274.3951416015625
1699734749,-5.677393798828125,3.32862808227539,2.5679100036621096,-1.7110998630523682,0.5331994891166687,-0.0108188251033425,-26.525604248046875,-150.47702026367188,-274.00146484375
1699734749,-4.476141815185547,4.4721002197265625,2.2614971923828127,-1.543071746826172,0.7864000201225281,-0.0061348578892648,-25.857254028320312,-150.2355499267578,-273.7098999023437
1699734749,-3.821103973388672,5.790708160400391,1.6492703247070313,-1.2924009561538696,0.8675636053085327,-0.0334287956357002,-25.9991455078125,-150.1413116455078,-274.83563232421875
1699734749,-4.092639312744141,6.409970397949219,1.0771600341796876,-1.0755863189697266,0.7441231608390808,0.0026359967887401,-25.70130920410156,-149.54200744628906,-274.4257202148437
1699734749,-4.890929260253906,6.58914779663086,0.3468287658691406,-0.9327442049980164,0.4149721562862396,0.1050217598676681,-25.92762756347656,-149.2707061767578,-274.986083984375
1699734749,-5.681734771728516,6.359824676513672,-0.264649658203125,-0.8842158317565918,-0.0473187789320945,0.2072698324918747,-25.672119140625,-149.4447784423828,-274.95623779296875
1699734749,-6.330335998535157,5.627697143554688,-0.4309538269042969,-0.9024222493171692,-0.4723488986492157,0.2176649421453476,-25.996810913085938,-148.92074584960938,-274.47235107421875
1699734749,-6.840475158691406,4.856500854492188,-0.0579295349121093,-0.9761502742767334,-0.6948629021644592,0.1068644002079963,-25.8690185546875,-148.8794403076172,-274.522216796875
1699734749,-7.480693817138672,4.472399597167969,0.6725514221191407,-1.1160032749176023,-0.6736825704574585,-0.1266868412494659,-26.250534057617188,-148.55294799804688,-274.1129150390625
1699734749,-8.322543182373048,4.300856323242188,1.2831317138671876,-1.2614959478378296,-0.4837938249111175,-0.3759666979312897,-26.12924194335937,-147.92469787597656,-273.9672241210937
1699734749,-9.26198959350586,3.7817358398437504,1.5729290771484377,-1.4237022399902344,-0.2421306073665619,-0.5449354648590088,-26.322525024414062,-148.071044921875,-273.0608825683594
1699734749,-10.000853118896485,3.069666595458985,1.522184600830078,-1.587512731552124,-0.0773001164197921,-0.6104079484939575,-26.147293090820312,-148.10617065429688,-273.306640625
1699734749,-10.249635772705078,2.345472564697266,1.3503419494628908,-1.7453662157058716,0.0233436711132526,-0.6320610642433167,-26.322067260742188,-147.85906982421875,-273.16729736328125
1699734749,-10.342742156982425,2.3869363403320314,1.437161407470703,-1.7920392751693726,-0.0084012076258659,-0.7257012724876404,-26.673614501953125,-147.79197692871094,-272.1600341796875
1699734749,-10.586585083007812,4.180057525634766,1.4682966613769532,-1.6973323822021484,-0.2081473469734192,-0.9457926154136658,-26.73446655273437,-148.02694702148438,-272.4797058105469
1699734749,-10.644813995361329,6.8548452758789065,1.8155744934082032,-1.627713918685913,-0.4957234561443329,-1.2602757215499878,-26.803756713867188,-147.9217071533203,-272.4898986816406
1699734749,-10.85467758178711,8.62536346435547,2.7795698547363283,-1.6547188758850098,-0.7699939012527466,-1.5589699745178225,-27.48736572265625,-148.26661682128906,-272.3980712890625
1699734749,-11.076665954589844,9.124275970458983,4.068090362548828,-1.6062277555465698,-0.9338632822036744,-1.75579035282135,-27.7093505859375,-148.3549041748047,-271.979248046875
1699734749,-10.815459136962891,8.9813232421875,5.082530822753906,-1.4280271530151367,-1.0878610610961914,-1.886973738670349,-28.03094482421875,-148.86634826660156,-271.578369140625
1699734749,-10.08497817993164,9.203760681152344,5.1608180236816406,-1.1950093507766724,-1.399767279624939,-1.986858487129212,-28.40791320800781,-149.01451110839844,-270.75616455078125
1699734749,-9.46317123413086,9.619595947265626,4.810995483398438,-0.8839433789253235,-1.6883524656295776,-1.977393388748169,-28.74452209472656,-149.40208435058594,-269.8009948730469
1699734749,-9.078620910644531,9.965526580810549,4.442910919189453,-0.5167632102966309,-1.8946694135665887,-1.805280685424805,-29.09228515625,-149.9639129638672,-269.4959716796875
1699734749,-8.721164245605468,10.09066635131836,3.641028442382813,-0.1816971004009246,-1.9829045534133911,-1.5141295194625854,-29.968505859375,-150.56585693359375,-268.65252685546875
1699734749,-7.996521148681641,9.778265991210938,3.090772705078125,0.0352040603756904,-1.8873835802078247,-1.1747829914093018,-29.77626037597656,-151.30992126464844,-268.5817565917969
1699734749,-7.274422760009766,9.655521240234377,2.854713592529297,0.0758691951632499,-1.6096280813217163,-0.909448742866516,-30.054656982421875,-151.499267578125,-267.3994140625
1699734749,-6.885381774902344,9.867031402587893,2.780467987060547,-0.0819374769926071,-1.114267110824585,-0.7048364877700806,-30.05918884277344,-151.99098205566406,-267.28857421875
1699734749,-7.173981628417969,10.772049407958985,3.1597792053222657,-0.3310911059379577,-0.4742288291454315,-0.5360256433486938,-30.243576049804688,-152.31544494628906,-267.1003723144531
1699734749,-7.580835571289063,12.04410415649414,4.252656555175782,-0.5205731391906738,0.2909333109855652,-0.3874135017395019,-30.55116271972656,-152.15333557128906,-266.8907470703125
1699734749,-7.8377014160156255,12.815749511718751,4.984933776855469,-0.613215446472168,0.9905811548233032,-0.2869492173194885,-30.382598876953125,-152.2584228515625,-267.141845703125
1699734749,-7.805218963623047,11.965367889404298,4.297413482666016,-0.6444708704948425,1.258773922920227,-0.2386131137609481,-30.91352844238281,-152.3083038330078,-267.689453125
1699734749,-8.068970489501954,9.166488189697263,2.9861402893066407,-0.6153616905212402,1.1734566688537598,-0.1240071654319763,-30.51080322265625,-152.5042724609375,-268.323486328125
1699734749,-9.02143981933594,6.482270050048829,2.1616548156738284,-0.4998449683189392,0.9156094193458556,0.0158790983259677,-30.463134765625,-152.32508850097656,-268.79766845703125
1699734749,-9.449399871826174,4.823868713378906,1.889371032714844,-0.2988341152667999,0.6330711841583252,0.1179063990712165,-30.696121215820312,-152.42190551757812,-268.6512451171875
1699734749,-9.306746520996096,3.6371365356445313,2.0845651245117187,-0.045111283659935,0.4113390743732452,0.1690659821033477,-30.63803100585937,-152.10960388183594,-268.2987060546875
1699734749,-8.882528686523438,2.7497817993164064,2.54111572265625,0.1964627206325531,0.2484340518712997,0.1864670813083648,-30.56211853027344,-151.90586853027344,-269.3251037597656
1699734749,-8.321195983886719,2.250120849609375,2.902464294433594,0.4331831336021423,0.0659012496471405,0.2213068157434463,-30.28399658203125,-152.0711669921875,-269.361572265625
1699734749,-7.558382263183594,2.3712190246582034,3.1222073364257814,0.6601499319076538,-0.1201354637742042,0.2991270422935486,-30.511642456054688,-151.71302795410156,-269.53289794921875
1699734749,-6.817722473144531,3.0518536376953125,3.3165032958984377,0.8824560046195984,-0.2711947560310364,0.3991665542125702,-30.145523071289062,-152.10751342773438,-269.924072265625
1699734749,-6.347999267578126,3.613934783935547,3.468886413574219,1.097887396812439,-0.3621723353862762,0.4960614144802093,-30.55126953125,-152.034423828125,-270.101806640625
1699734749,-6.098767547607422,3.8453535461425785,3.484154663085937,1.3039212226867676,-0.4103081524372101,0.5866366028785706,-30.51670837402344,-151.2022247314453,-270.00640869140625
1699734749,-6.012097778320313,3.813918914794922,3.3905992126464843,1.4846534729003906,-0.4344893991947174,0.6782360076904297,-30.36163330078125,-151.22042846679688,-269.73956298828125
1699734749,-5.983058166503906,3.789070587158203,3.347937927246094,1.6408240795135498,-0.4369602799415588,0.7576823830604553,-30.534423828125,-151.18275451660156,-270.00457763671875
1699734749,-5.960904235839844,3.8639149475097656,3.3438963317871098,1.7684098482131958,-0.4541914761066437,0.8197113871574402,-30.382598876953125,-150.53067016601562,-270.09356689453125
1699734749,-5.8969871520996096,4.055366821289063,3.19735107421875,1.8680280447006223,-0.4747401475906372,0.8728004693984985,-30.43574523925781,-150.28396606445312,-270.2852783203125
1699734749,-5.730233917236329,4.363276519775391,2.833158416748047,1.905672311782837,-0.4710639119148254,0.909756600856781,-30.39495849609375,-149.75381469726562,-270.594970703125
1699734749,-5.3878958129882815,4.793930969238281,2.391726379394532,1.8856838941574097,-0.3998595178127289,0.9175394177436828,-30.126495361328125,-149.98789978027344,-270.56298828125
1699734750,-4.841382293701172,5.2682945251464846,2.065404968261719,1.83453369140625,-0.1983602195978164,0.8718965649604797,-29.941207885742188,-149.751220703125,-270.8050537109375
1699734750,-4.219275970458985,5.718857574462891,1.8793418884277344,1.7752360105514526,0.1239437833428382,0.7783141732215881,-30.197174072265625,-149.27035522460938,-271.06365966796875
1699734750,-3.77978988647461,6.000571746826172,1.6353492736816406,1.693560004234314,0.4748192429542541,0.7137130498886108,-30.06187438964844,-149.09425354003906,-271.15643310546875
1699734750,-3.7477565002441406,6.03350326538086,1.2061917114257814,1.575869083404541,0.6499873399734497,0.7069401144981384,-30.342559814453125,-148.73529052734375,-272.0033264160156
1699734750,-3.7558396911621097,5.804329833984375,0.8158035278320312,1.4662518501281738,0.6652328968048096,0.6957500576972961,-29.46029663085937,-148.49923706054688,-272.569091796875
1699734750,-3.506907348632813,5.565127258300781,0.6369255065917969,1.3894329071044922,0.568977415561676,0.6460639834403992,-29.710235595703125,-148.6578369140625,-272.7349548339844
1699734750,-3.504961395263672,5.422773284912109,0.4351451110839844,1.3550174236297607,0.3889003396034241,0.562088131904602,-29.776580810546875,-148.5487518310547,-274.0328674316406
1699734750,-3.6519557189941407,5.225633239746094,0.5792953491210938,1.3549652099609375,0.2405707985162735,0.4835155308246612,-29.795379638671875,-148.17413330078125,-274.1793212890625
1699734750,-3.769311676025391,4.975503387451172,1.152902526855469,1.371213436126709,0.1601103097200393,0.432390034198761,-29.987777709960938,-148.18609619140625,-274.734130859375
1699734750,-3.702999572753906,4.704566802978516,1.997296600341797,1.377475619316101,0.2405617386102676,0.4051443040370941,-30.181228637695312,-148.02456665039062,-274.8365783691406
1699734750,-3.5516642761230472,4.750371551513672,2.823877716064453,1.3573389053344729,0.4367179274559021,0.3916218280792236,-29.934982299804688,-148.22463989257812,-274.5093688964844
1699734750,-3.5284625244140626,4.984185333251953,3.167413330078125,1.3019204139709473,0.6671042442321777,0.3961215019226074,-30.15829467773437,-147.9849090576172,-275.88427734375
1699734750,-3.645070037841797,5.278473358154297,3.161276092529297,1.1578084230422974,0.8355188369750977,0.4178081452846527,-29.47714233398437,-147.9815673828125,-276.7616577148437
1699734750,-3.840264129638672,5.624403991699219,2.909649353027344,0.9304850697517396,0.907733678817749,0.4500044584274292,-29.724273681640625,-147.87185668945312,-277.6557922363281
1699734750,-4.052822113037109,5.968238983154297,2.539618835449219,0.7037475109100342,0.919401228427887,0.4578168392181396,-29.828598022460938,-147.618896484375,-278.0413818359375
1699734750,-4.317022705078125,6.320905609130859,2.125430145263672,0.5115407705307007,0.9145553708076476,0.403245210647583,-29.47735595703125,-147.33645629882812,-278.7908935546875
1699734750,-4.715045013427734,6.556815032958984,1.6639398193359376,0.3852539360523224,0.878519594669342,0.31336510181427,-29.308425903320312,-147.347900390625,-279.1189880371094
1699734750,-5.411546630859375,6.450685729980469,1.2268487548828126,0.308725893497467,0.7980050444602966,0.2107820063829422,-29.377960205078125,-147.35752868652344,-279.968017578125
1699734750,-6.199058990478516,6.102210388183594,0.768651580810547,0.245871290564537,0.6553989052772522,0.1058830246329307,-29.267318725585938,-147.3688201904297,-280.6474914550781
1699734750,-6.84301986694336,5.432503051757813,0.3486250305175781,0.1885363608598709,0.4719070792198181,0.0307840108871459,-29.410186767578125,-147.46681213378906,-280.92022705078125
1699734750,-7.169041900634766,4.6128076171875,0.5863307189941407,0.1359687596559524,0.4078277051448822,-0.0359201841056346,-29.323699951171875,-147.1359100341797,-281.6632080078125
1699734750,-7.301366729736328,4.1903860473632815,1.5739768981933595,0.1132559850811958,0.5697258114814758,-0.1250244975090026,-29.452072143554688,-147.1032257080078,-281.7943115234375
1699734750,-7.18311264038086,4.066144409179688,3.026406555175781,0.1799708306789398,1.0291306972503662,-0.2271625846624374,-29.10693359375,-147.31558227539062,-282.1673583984375
1699734750,-6.903643798828125,4.563260650634766,4.49066162109375,0.3046491146087646,1.5676662921905518,-0.4069115817546844,-29.12657165527344,-147.42376708984375,-282.1092529296875
1699734750,-7.219786376953126,7.294481048583985,3.236569519042969,0.5474961400032043,1.246374011039734,-0.76323002576828,-29.216094970703125,-147.47158813476562,-284.0518798828125
1699734750,-8.464747467041017,9.46362030029297,-1.0439291381835938,0.7859779000282288,0.3585568070411682,-0.9440964460372924,-29.2137451171875,-147.74586486816406,-284.7723999023437
1699734750,-10.224937133789062,9.5990885925293,-3.070564727783203,0.9059972763061525,-0.4494193494319916,-0.7900733351707458,-29.32965087890625,-148.34535217285156,-284.8880920410156
1699734750,-11.38831787109375,9.633816375732424,-3.622916107177735,0.8489281535148621,-0.8917203545570374,-0.4290395081043243,-29.56329345703125,-148.8411407470703,-284.92694091796875
1699734750,-10.74690170288086,9.35449722290039,-3.0255084228515625,0.6338099837303162,-0.7080634236335754,-0.1142144575715065,-29.78253173828125,-149.15968322753906,-285.1595458984375
1699734750,-8.386609954833984,8.342152404785157,-0.7932005310058594,0.3164913952350616,-0.0229838788509368,0.0452827922999858,-30.44354248046875,-149.63824462890625,-285.06597900390625
1699734750,-6.584208068847657,8.569230194091798,0.8583151245117188,-0.0267692953348159,0.6111683249473572,0.0037025928031653,-30.342269897460938,-149.63502502441406,-285.56365966796875
1699734750,-6.798113250732422,10.941497039794925,-0.2116598510742187,-0.2506063878536224,0.5490735173225403,-0.1052350774407386,-30.41607666015625,-149.6622772216797,-285.9731750488281
1699734750,-8.259524230957032,11.83334243774414,-2.6936485290527346,-0.4054076969623565,0.0195454712957143,-0.1372273564338684,-30.499237060546875,-149.60182189941406,-286.20428466796875
1699734750,-10.432405700683594,11.94111831665039,-3.9329214477539054,-0.6265611052513123,-0.5859518647193909,-0.1181961447000503,-30.651336669921875,-149.15264892578125,-286.244384765625
1699734750,-13.114977264404295,13.412857818603516,-3.1856753540039064,-1.4230188131332395,-0.457007497549057,-0.34915691614151,-30.812820434570312,-149.5699462890625,-286.1175537109375
1699734750,-17.102684783935548,15.74186462402344,2.374512176513672,-2.8737173080444336,0.7830764055252075,-0.7415785193443298,-31.13105773925781,-149.38787841796875,-285.8269348144531
1699734750,-19.852017517089845,13.672418060302736,6.016588439941407,-3.069770336151123,1.8564105033874512,-0.5023645758628845,-30.989898681640625,-148.9735107421875,-285.38836669921875
1699734750,-15.575410766601562,9.253008270263674,3.149151306152344,-2.1503236293792725,1.6148513555526731,-0.2430792301893234,-30.64399719238281,-148.7795867919922,-286.0191650390625
1699734750,-9.439520416259764,8.52387451171875,-1.3600717163085938,-0.9074713587760924,0.4835962355136871,-0.1760450601577758,-30.43940734863281,-148.43661499023438,-285.8740234375
1699734750,-6.832541656494141,8.829239501953126,-3.476370849609375,0.0839337855577468,-0.5415657758712769,-0.0879255905747413,-30.38587951660156,-148.30471801757812,-286.4674987792969
1699734750,-5.9586589050292975,7.332352294921876,-3.4416430664062503,0.7957890033721924,-1.2380281686782837,0.1241959854960441,-30.380645751953125,-148.00901794433594,-286.398193359375
1699734750,-5.096302185058594,5.653443603515625,-2.848426666259766,1.321149468421936,-1.655885100364685,0.3359151482582092,-30.578842163085938,-148.09654235839844,-285.9835510253906
1699734750,-4.531227264404297,4.738396453857422,-2.148482208251953,1.7046856880187988,-1.8560749292373653,0.5087223649024963,-31.077224731445312,-148.41098022460938,-285.1507873535156
1699734750,-4.35698959350586,4.209695892333984,-1.4659016418457032,1.895422339439392,-1.7847744226455688,0.6440300941467285,-31.505523681640625,-148.50657653808594,-285.00958251953125
1699734750,-4.119283905029297,4.520749053955078,0.6433621215820313,1.4553618431091309,-1.0622793436050415,0.6782360076904297,-31.91566467285156,-148.87619018554688,-284.9008178710937
1699734750,-4.751419372558594,6.6647406005859375,2.4875271606445315,0.7228378653526306,-0.3679338097572326,0.3655457496643066,-31.670913696289062,-148.60919189453125,-284.3271484375
1699734750,-6.753655700683594,7.5663157653808595,1.4950909423828125,0.0077545922249555,0.0358370915055274,0.0750119239091873,-31.47056579589844,-148.73512268066406,-284.69073486328125
1699734750,-8.546627197265625,5.942492523193359,0.2207908630371093,-0.4115318953990936,0.1146006137132644,0.071059264242649,-31.72181701660156,-148.68199157714844,-285.3815002441406
1699734750,-9.177415466308592,4.845872955322266,-0.659827880859375,-0.5196788907051086,0.0576771460473537,0.1879544556140899,-31.1890869140625,-149.1055450439453,-285.56573486328125
1699734750,-8.76666961669922,4.668641510009766,-0.5439688110351563,-0.4601359069347381,0.1765968799591064,0.2119042575359344,-31.55238342285156,-148.54957580566406,-285.070556640625
1699734750,-7.7356137084960945,4.840035095214844,0.2803669738769531,-0.3350371122360229,0.4373022317886352,0.1357855349779129,-31.46502685546875,-148.31649780273438,-285.61578369140625
1699734750,-6.968608703613282,4.823719024658203,0.5680686950683594,-0.2223792821168899,0.6231029629707336,0.0749280378222465,-31.5089111328125,-148.23147583007812,-285.8679504394531
1699734750,-6.605613555908204,4.517904968261719,0.2811154174804687,-0.2274709790945053,0.6424724459648132,0.0282883625477552,-31.239303588867188,-148.17063903808594,-286.211181640625
1699734750,-6.32569564819336,4.153562622070313,0.005987548828125,-0.4689698815345764,0.4515466690063476,-0.0176053587347269,-31.14805603027344,-148.35804748535156,-286.18316650390625
1699734750,-6.105653228759766,3.829486541748047,-0.1094224548339843,-0.9156094193458556,0.096670351922512,-0.0129613382741808,-31.04316711425781,-148.23451232910156,-286.446533203125
1699734750,-5.7526872253417976,3.632945251464844,0.2001338195800781,-1.2498955726623535,-0.1770211160182953,0.0498399958014488,-30.93670654296875,-148.09783935546875,-286.5580444335937
1699734750,-4.821174316406251,3.893852691650391,1.1359877014160156,-1.3374322652816772,-0.1432192027568817,0.099658153951168,-30.900863647460938,-147.93846130371094,-286.8575439453125
1699734750,-3.5682797241210937,4.642745361328125,2.45968505859375,-1.3340250253677368,0.2341147661209106,0.1115243956446647,-31.23695373535156,-147.65171813964844,-286.3407592773437
1699734750,-2.743345184326172,5.367089080810548,3.4744248962402344,-1.297179937362671,0.747101366519928,0.1021945476531982,-31.22882080078125,-147.4451904296875,-286.453857421875
1699734750,-2.716101837158204,6.315516815185547,3.124302978515625,-1.2213749885559082,1.1080957651138306,0.0881748646497726,-30.690994262695312,-146.9613800048828,-286.2279663085937
1699734750,-3.819457397460938,7.38189926147461,1.6937278747558595,-1.1375911235809326,1.1599818468093872,0.1397879868745803,-30.748214721679688,-146.56622314453125,-287.10821533203125
1699734750,-5.555098114013672,7.9818516540527344,0.3056643676757812,-1.0332050323486328,0.8642351627349854,0.2243596017360687,-30.495437622070312,-146.39779663085938,-288.11529541015625
1699734750,-6.985373840332032,7.7053765869140625,-0.6198609924316406,-0.9452983140945436,0.3179223239421844,0.3126375377178192,-30.020477294921875,-146.12399291992188,-287.6849365234375
1699734750,-7.865842895507813,6.361471252441406,-0.8990304565429688,-0.9173551201820374,-0.2400136590003967,0.3742699921131134,-30.46372985839844,-146.15016174316406,-287.83721923828125
1699734750,-7.873626708984375,4.572391662597656,-0.4031117248535156,-0.9696998000144958,-0.6354566216468811,0.2841949760913849,-30.06304931640625,-145.41848754882812,-288.2470092773437
1699734750,-7.390880584716797,3.2024404907226565,0.5486091613769531,-1.1438034772872925,-0.7398168444633484,0.0681665390729904,-30.385055541992188,-145.1909637451172,-287.71270751953125
1699734750,-7.329059143066407,1.886826324462891,1.906435546875,-1.434297800064087,-0.5507968068122864,-0.1222108602523803,-30.446533203125,-145.2596893310547,-287.7673034667969
1699734750,-7.666307830810547,0.8702902221679688,2.7678941345214847,-1.5545531511306765,-0.2989835143089294,-0.1753329336643219,-30.739181518554688,-144.95684814453125,-287.2633361816406
1699734750,-7.907905426025391,0.7464976501464844,2.681074676513672,-1.453254222869873,-0.1612549424171447,-0.1830750107765197,-31.00814819335937,-145.2915802001953,-287.5711669921875
1699734750,-7.907755737304688,2.1965322875976563,1.9607725524902344,-1.332349419593811,-0.1819064170122146,-0.2765490412712097,-31.18833923339844,-144.96728515625,-286.79248046875
1699734750,-8.008645935058594,3.921545104980469,1.453627166748047,-1.356041669845581,-0.2095620185136795,-0.3474519848823547,-31.056869506835938,-144.7965087890625,-287.0188903808594
1699734750,-8.420289916992187,5.200635223388672,1.629810791015625,-1.3900089263916016,-0.2909173369407654,-0.4313703179359436,-31.326873779296875,-144.81982421875,-286.7406616210937
1699734750,-8.924291839599611,6.506669311523438,1.7438735961914062,-1.2404104471206665,-0.4551616609096527,-0.5850429534912109,-31.13197326660156,-144.5027313232422,-287.2782592773437
1699734750,-9.25630142211914,7.431595916748047,1.871408386230469,-1.019137978553772,-0.6990470290184021,-0.8145501613616943,-31.503433227539062,-144.89141845703125,-286.67779541015625
1699734750,-9.751920776367188,8.275989990234375,2.331701202392578,-0.9488965272903442,-0.947788417339325,-1.135335087776184,-32.183349609375,-144.8681640625,-286.37628173828125
1699734750,-10.53853500366211,9.015452270507812,3.154091033935547,-0.96176415681839,-1.126979947090149,-1.453773856163025,-32.56434631347656,-145.2639923095703,-285.79083251953125
1699734750,-10.973829803466796,9.100924530029298,3.8272412109375,-0.9484328627586364,-1.235737919807434,-1.7272770404815674,-32.60417175292969,-145.53707885742188,-285.6372985839844
1699734750,-10.73208251953125,9.516011352539063,4.020639038085938,-0.9325833320617676,-1.3228964805603027,-1.9607126712799072,-33.260528564453125,-146.17843627929688,-284.9869384765625
1699734750,-10.450667724609376,10.128537597656251,4.005221099853516,-0.914032816886902,-1.2598294019699097,-2.027226209640503,-34.15718078613281,-146.63754272460938,-284.2352905273437
1699734750,-10.496771850585938,10.532098388671876,4.10745849609375,-0.8789533972740173,-1.0488548278808594,-1.8654944896698,-34.61436462402344,-147.5171356201172,-283.9657897949219
1699734750,-10.515482940673827,10.849887542724607,3.989952850341797,-0.8237681984901428,-0.7622361183166504,-1.5016015768051147,-35.01255798339844,-148.42323303222656,-283.9884948730469
1699734750,-10.107281799316407,10.826985168457032,3.50915267944336,-0.7515783905982971,-0.5169352889060974,-1.0747168064117432,-35.34303283691406,-149.1861114501953,-283.57012939453125
1699734750,-9.171577606201174,10.739417266845704,3.0268556213378908,-0.674986720085144,-0.3479465246200561,-0.7393158674240112,-35.50032043457031,-149.87448120117188,-283.0337219238281
1699734750,-7.9239221191406255,10.6913671875,3.0734088134765627,-0.5979755520820618,-0.1427843123674392,-0.5580728650093079,-36.18939208984375,-149.88839721679688,-282.9981689453125
1699734750,-7.322323150634766,11.038944396972656,3.7380267333984376,-0.5138058066368103,0.1705890446901321,-0.4391304850578308,-35.88557434082031,-149.76617431640625,-283.1807861328125
1699734750,-7.77468246459961,11.840826873779298,4.875211944580078,-0.3935227990150451,0.6086001992225647,-0.3428468406200409,-36.07359313964844,-150.20297241210938,-282.94940185546875
1699734750,-8.692124633789064,11.646231536865235,5.799090728759766,-0.2556975483894348,0.9836936593055724,-0.213332250714302,-35.930694580078125,-149.90245056152344,-283.5829467773437
1699734750,-9.173673248291015,9.277257843017578,5.230273590087891,-0.1151015534996986,0.9658321142196656,-0.0154135776683688,-35.922210693359375,-150.3013458251953,-282.99822998046875
1699734750,-8.689280548095704,7.002138977050782,3.540437622070313,0.0235697738826274,0.5911219120025635,0.1477846652269363,-36.15939331054688,-150.13784790039062,-284.5038452148437
1699734750,-7.995173950195313,5.949378204345703,2.279609527587891,0.129542276263237,0.2019110172986984,0.2764635384082794,-35.66941833496094,-150.34994506835938,-284.3568115234375
1699734750,-7.541916503906251,5.296585693359376,1.8288967895507813,0.2246576100587844,-0.0264409277588129,0.4226117134094238,-35.52496337890625,-150.02967834472656,-285.2566223144531
1699734750,-7.127129058837891,4.755311279296875,1.884580993652344,0.3229197263717651,-0.0654652938246727,0.5752899050712585,-35.59452819824219,-149.61114501953125,-285.50518798828125
1699734750,-6.437513122558594,4.288132781982422,2.160756683349609,0.4357378780841827,0.0218475088477134,0.671930193901062,-35.72581481933594,-149.6062469482422,-285.249267578125
1699734750,-5.572462005615234,3.911665649414063,2.411634979248047,0.5618540048599243,0.1386998295783996,0.7177174091339111,-35.8170166015625,-149.57589721679688,-285.0691833496094
1699734750,-4.918471984863282,3.632496185302735,2.516566772460937,0.7055653929710388,0.2056887149810791,0.7681177258491516,-35.49163818359375,-149.298828125,-285.2705078125
1699734750,-4.561015319824219,3.473676452636719,2.4924668884277343,0.8387892246246338,0.1907593011856079,0.8443536162376404,-35.16014099121094,-149.27822875976562,-285.20318603515625
1699734750,-4.364623718261719,3.440445556640625,2.435884552001953,0.9391424655914308,0.1365703642368316,0.9171407222747804,-34.96354675292969,-148.82321166992188,-286.2279052734375
1699734750,-4.280498657226563,3.607797546386719,2.525398406982422,1.0290712118148804,0.11176647990942,0.981032133102417,-35.19732666015625,-148.76177978515625,-285.5772399902344
1699734750,-4.482129364013672,3.7717066955566407,2.7056236267089844,1.1306607723236084,0.1193114817142486,1.051201105117798,-34.75337219238281,-148.79721069335938,-285.45001220703125
1699734750,-4.815037078857422,3.8272412109375,2.8421397399902344,1.282160997390747,0.1347362399101257,1.1131293773651123,-34.44793701171875,-148.29754638671875,-286.3431091308594
1699734751,-5.088518371582032,3.84445541381836,2.7566674804687503,1.4780153036117554,0.1189144030213356,1.1457693576812744,-34.27220153808594,-148.42665100097656,-286.7935791015625
1699734751,-5.440286865234375,3.871848449707032,2.3807991027832034,1.6917346715927124,0.0503699630498886,1.1592239141464231,-34.386016845703125,-148.1798553466797,-287.2191162109375
1699734751,-5.846991119384766,4.063599700927735,1.9145187377929689,1.89750337600708,-0.0492972433567047,1.1325188875198364,-34.21446228027344,-148.0067901611328,-287.4681396484375
1699734751,-6.133046264648438,4.323758697509766,1.5546670532226563,2.0219922065734863,-0.1598876714706421,1.0670287609100342,-33.90342712402344,-148.1396026611328,-287.9850769042969
1699734751,-6.153703308105469,4.508474578857422,1.4756314086914064,2.005971670150757,-0.184546947479248,0.9678366780281068,-33.80448913574219,-148.1072540283203,-288.8067321777344
1699734751,-5.914051666259766,4.83075439453125,1.874701538085937,1.839246392250061,-0.059391688555479,0.8665108680725098,-33.57794189453125,-148.0724639892578,-288.77703857421875
1699734751,-5.698499908447266,5.569168853759766,2.6159600830078125,1.6094987392425537,0.2526213228702545,0.7406985759735107,-33.64312744140625,-148.1572723388672,-288.875244140625
1699734751,-5.231471099853516,6.342161407470703,3.490591278076172,1.4329476356506348,0.7032575011253357,0.535880982875824,-33.7481689453125,-148.5118865966797,-289.3785705566406
1699734751,-4.530478820800782,7.100634155273438,3.607947235107422,1.3840466737747192,0.9302802681922911,0.2890227437019348,-33.400604248046875,-148.70187377929688,-289.935546875
1699734751,-4.022584991455078,7.506739654541016,2.3981629943847658,1.420888066291809,0.8071151971817017,0.1571906805038452,-33.13555908203125,-148.987060546875,-290.63330078125
1699734751,-4.070485382080078,7.887547760009766,0.7617658996582032,1.520901441574097,0.4176451861858368,0.1267976313829422,-32.72953796386719,-149.5321044921875,-291.4226989746094
1699734751,-4.418212280273438,8.20773193359375,-0.5888754272460938,1.5277100801467896,-0.0612260736525058,0.1739390343427658,-32.46295166015625,-149.96682739257812,-291.54119873046875
1699734751,-5.07025634765625,8.05729476928711,-1.4840139770507814,1.4361634254455566,-0.4889702200889587,0.2901708483695984,-32.12696838378906,-150.1358184814453,-292.2552490234375
1699734751,-5.234913940429688,7.711364135742188,-0.9345066833496094,1.2940165996551514,-0.5160098075866699,0.3774490058422088,-32.538665771484375,-150.81541442871094,-292.3563232421875
1699734751,-4.721331939697266,7.518714752197266,1.2088861083984377,1.0501224994659424,0.0837034210562706,0.3562502562999725,-32.46305847167969,-150.68508911132812,-292.5504150390625
1699734751,-4.509073333740234,7.298971710205079,3.907923431396485,0.514127790927887,1.2233275175094604,0.1871158331632614,-32.46098327636719,-151.07310485839844,-292.8895263671875
1699734751,-5.299130401611328,6.405629425048828,5.126090240478516,-0.3595248758792877,2.319828987121582,-0.0184333361685276,-32.63140869140625,-151.14891052246094,-293.3980712890625
1699734751,-5.941594390869141,5.2188972473144535,4.124523010253906,-1.2369368076324463,2.9269301891326904,-0.153277963399887,-31.790740966796875,-151.14747619628906,-294.2771911621094
1699734751,-5.874683532714844,4.537813568115235,2.1124072265625,-1.9003978967666624,2.873912811279297,-0.206216812133789,-31.12042236328125,-150.72877502441406,-295.47869873046875
1699734751,-5.703439636230469,4.310436401367188,0.2148033142089843,-2.262542724609375,2.3039863109588623,-0.2080024629831314,-30.0592041015625,-150.53851318359375,-296.960205078125
1699734751,-5.67425033569336,4.259242858886719,-0.5674699401855469,-2.2444541454315186,1.5969842672348022,-0.1541011482477188,-29.469253540039062,-150.21412658691406,-297.5498046875
1699734751,-5.7541841125488284,4.351600799560547,-0.1194515991210937,-1.845131516456604,1.0402528047561646,-0.0638562142848968,-29.13661193847656,-149.30810546875,-297.83551025390625
1699734751,-5.932463378906251,4.402345275878907,0.8723858642578125,-1.1224017143249512,0.6405147314071655,0.0297155510634183,-28.636154174804688,-149.00723266601562,-298.18914794921875
1699734751,-6.213728485107422,4.379592590332032,1.6078065490722655,-0.208868533372879,0.3250092566013336,0.1080202087759971,-28.58709716796875,-148.52581787109375,-298.3402709960937
1699734751,-6.430178375244141,4.169579315185547,1.9142193603515627,0.7179315090179443,0.0800945684313774,0.1719658970832824,-27.861480712890625,-148.54156494140625,-298.9716491699219
1699734751,-6.496640167236328,3.632795562744141,1.943258972167969,1.4988765716552734,-0.0924513712525367,0.2282646000385284,-28.14559936523437,-148.77857971191406,-298.85064697265625
1699734751,-6.355034637451173,2.930456085205078,1.8263520812988283,2.0042872428894043,-0.2074448019266128,0.263751208782196,-27.76669311523437,-149.19970703125,-299.1837463378906
1699734751,-6.127507781982422,2.3896307373046874,1.342558135986328,2.154383659362793,-0.3397197425365448,0.2100546956062317,-28.21333312988281,-149.7715301513672,-299.7761535644531
1699734751,-5.569917297363282,2.080224151611328,0.5399272155761718,1.96241307258606,-0.4448600113391876,0.0157696418464183,-27.92247009277344,-150.80897521972656,-300.23895263671875
1699734751,-4.857548675537109,2.2742207336425784,0.0800834655761718,1.5404903888702393,-0.4618049263954162,-0.242065891623497,-28.297409057617188,-151.5323486328125,-299.8106384277344
1699734751,-5.064268798828126,3.0361363220214845,-0.2255809020996093,1.044162392616272,-0.5265242457389832,-0.5383968949317932,-28.50067138671875,-152.12245178222656,-300.3676452636719
1699734751,-6.11972396850586,5.767057342529297,-0.7325765991210937,0.4885816574096679,-0.7110850214958191,-0.7656486630439758,-28.74447631835937,-153.00985717773438,-300.4775390625
1699734751,-7.742050323486328,9.13699951171875,-0.0404159545898437,0.0988472178578376,-0.3690052032470703,-0.7393004298210144,-28.902862548828125,-153.64112854003906,-300.7034606933594
1699734751,-9.21079605102539,10.154284057617188,1.2615765380859376,0.1843160390853881,0.1618733257055282,-0.4258024394512176,-29.093658447265625,-154.05795288085938,-300.6097106933594
1699734751,-10.011630706787107,10.498418426513672,0.1133143615722656,0.274691492319107,0.3915637731552124,-0.0596888959407806,-28.956024169921875,-154.53041076660156,-300.6871337890625
1699734751,-9.528585205078125,11.656410369873049,-1.0371931457519532,0.1668552905321121,0.3972573578357696,0.1640155613422393,-28.646011352539062,-155.03579711914062,-301.090087890625
1699734751,-8.229436798095703,12.778776397705078,-1.983076171875,-0.1319662928581237,0.0254441071301698,0.2720983624458313,-28.649810791015625,-154.94100952148438,-301.500732421875
1699734751,-7.451205139160157,13.523328094482425,-3.221001892089844,-0.4910280406475067,-0.3428969085216522,0.2378008365631103,-28.369918823242188,-154.93887329101562,-301.8881225585937
1699734751,-7.200326843261719,13.94949188232422,-3.010838928222656,-0.8511627912521362,-0.3384789824485779,0.0422832742333412,-28.347137451171875,-154.83619689941406,-301.4972839355469
1699734751,-6.789730682373047,12.824431457519532,-1.83742904663086,-1.124194860458374,0.0079961409792304,-0.1440927237272262,-28.59141540527344,-154.62689208984375,-301.1456298828125
1699734751,-6.523434448242188,10.355166320800782,-0.2171983337402344,-1.2760645151138306,0.6312008500099182,-0.2677552700042724,-28.609939575195312,-154.3732452392578,-301.0533447265625
1699734751,-8.340805206298828,10.610235900878909,1.5837066650390623,-1.5032854080200195,1.1183196306228638,-0.4219826757907867,-28.60556030273437,-154.171630859375,-301.93853759765625
1699734751,-11.711944885253908,13.277838592529298,1.1070977783203126,-2.0330848693847656,1.0026873350143433,-0.4763886630535126,-28.3660888671875,-153.79786682128906,-301.7299194335937
1699734751,-14.053525543212892,12.886851654052736,-0.6086343383789062,-2.392611026763916,0.740456759929657,-0.2412432432174682,-27.80938720703125,-153.5294189453125,-302.96514892578125
1699734751,-14.48118621826172,10.1309326171875,-0.3267704772949218,-2.2096948623657227,0.8482292890548706,0.0937110483646392,-27.6705322265625,-152.43907165527344,-302.2529602050781
1699734751,-11.997401275634768,7.59026596069336,1.2516970825195313,-1.6514586210250854,0.9215142130851746,0.2051741927862167,-27.391189575195312,-152.18861389160156,-302.60382080078125
1699734751,-9.08430908203125,5.800138549804688,0.8387059020996094,-1.0412908792495728,0.6578860282897949,0.2511797547340393,-27.18402099609375,-151.1407012939453,-302.8407897949219
1699734751,-7.268435211181641,4.653373260498047,-0.5453160095214844,-0.5530107021331787,0.2063611596822738,0.3610676527023315,-26.664810180664062,-150.79225158691406,-303.5043334960937
1699734751,-6.195616149902344,3.672163696289063,-1.2172686767578125,-0.2174271345138549,-0.3226760625839233,0.526093602180481,-26.0865478515625,-150.59376525878906,-303.4259033203125
1699734751,-5.462291107177735,2.8455825805664063,-1.5187417602539064,0.0247050803154706,-0.8901277780532837,0.6662715077400208,-26.53594970703125,-150.43789672851562,-303.6327514648437
1699734751,-5.3121533203125,2.382745056152344,-1.3394146728515626,0.1230018213391304,-1.3146647214889526,0.7214633822441101,-26.466842651367188,-150.1537322998047,-303.16033935546875
1699734751,-5.83950668334961,2.94347900390625,-0.4343966674804688,-0.0500586405396461,-1.375840187072754,0.5130957961082458,-26.904525756835938,-150.0888671875,-303.02392578125
1699734751,-7.015311584472657,5.075196075439453,1.1202703857421876,-0.4039301574230194,-0.9338579177856444,0.0958106815814971,-27.421417236328125,-149.83737182617188,-302.586181640625
1699734751,-8.573122100830078,6.05984848022461,2.1647982788085938,-0.6324296593666077,-0.3160359859466553,-0.1967380940914154,-27.470779418945312,-149.42433166503906,-302.0663146972656
1699734751,-9.662706298828123,5.267546081542969,1.5700849914550783,-0.6414540410041809,0.0442380346357822,-0.2575899958610534,-27.406723022460938,-149.40737915039062,-302.3670349121094
1699734751,-10.02076171875,3.9353164672851566,0.316142578125,-0.5700850486755371,0.1634485870599746,-0.1221999451518058,-27.8973388671875,-149.2147674560547,-301.77783203125
1699734751,-9.549841003417969,3.267106018066406,-0.4114942932128906,-0.5737154483795166,0.1647742986679077,-0.033464215695858,-27.527603149414062,-149.32931518554688,-301.29180908203125
1699734751,-8.447832641601563,3.507206726074219,-0.5516029357910156,-0.770715594291687,0.1818930953741073,-0.0869351625442504,-27.965301513671875,-149.042724609375,-301.6441650390625
1699734751,-7.365433502197266,3.606600036621094,-0.3198847961425781,-1.189014554023743,0.2858501374721527,-0.1872772127389907,-27.466049194335938,-148.85939025878906,-301.8957824707031
1699734751,-6.633455657958985,3.5383419799804687,0.0740959167480468,-1.6900914907455444,0.4354233741760254,-0.236049547791481,-27.570602416992188,-148.78614807128906,-301.9140014648437
1699734751,-5.945336608886719,3.771856384277344,0.6474037170410156,-2.000936985015869,0.6911797523498535,-0.2734113037586212,-27.41766357421875,-148.4720458984375,-301.45294189453125
1699734751,-5.140460357666016,4.741839294433594,1.357826385498047,-1.9698140621185305,1.018837571144104,-0.3660981059074402,-26.970916748046875,-147.56088256835938,-301.6905822753906
1699734751,-4.551135864257812,5.913602600097657,1.658700714111328,-1.8448797464370728,1.23455548286438,-0.4857267439365387,-27.09042358398437,-146.9840545654297,-301.52447509765625
1699734751,-4.650379486083985,6.527176666259766,1.5000306701660158,-1.8640409708023071,1.162325143814087,-0.5462108850479126,-26.473709106445312,-146.72813415527344,-301.8725280761719
1699734751,-5.362897796630859,6.4815216064453125,1.306333465576172,-2.01137113571167,0.8451563119888306,-0.5508687496185303,-26.220001220703125,-146.20565795898438,-302.22216796875
1699734751,-6.068680114746094,5.932313690185548,1.7763560485839844,-2.1201889514923096,0.5551881194114685,-0.6074020862579346,-26.248214721679688,-145.5574188232422,-301.78631591796875
1699734751,-6.7720674133300784,5.3792138671875005,3.2922537231445315,-2.0908358097076416,0.4908557534217834,-0.8144308924674988,-25.831710815429688,-145.3174591064453,-301.688232421875
1699734751,-7.78620849609375,5.378764801025391,5.25512191772461,-2.0060458183288574,0.538704514503479,-1.1741539239883425,-26.164535522460938,-144.88613891601562,-301.9722900390625
1699734751,-9.304800567626952,6.132896575927735,5.889203338623047,-1.918865323066712,0.3519361913204193,-1.603570818901062,-25.72021484375,-144.108154296875,-301.89727783203125
1699734751,-10.841355285644532,7.222031707763672,5.20482650756836,-1.739854335784912,-0.0132090123370289,-1.8516671657562256,-25.74214172363281,-143.809814453125,-301.1695556640625
1699734751,-11.855945434570312,7.686964874267579,4.437372436523438,-1.5135082006454468,-0.4939061105251312,-1.8564568758010864,-26.008773803710938,-144.54473876953125,-301.1807861328125
1699734751,-12.372221832275391,7.988437957763672,3.886068878173828,-1.3272336721420288,-0.9048771262168884,-1.7222169637680054,-26.574722290039062,-144.34474182128906,-300.7626953125
1699734751,-12.412039031982422,8.526119842529297,4.005969543457032,-1.0818519592285156,-1.1943817138671875,-1.5360503196716309,-27.393798828125,-144.67535400390625,-299.7332763671875
1699734751,-11.971954193115234,9.382938079833986,3.875890045166016,-0.7401238679885864,-1.5075381994247437,-1.3404667377471924,-27.980682373046875,-144.49325561523438,-298.5784912109375
1699734751,-11.15166000366211,10.081385650634768,3.3885035705566406,-0.4036854207515716,-1.7994472980499268,-1.125544548034668,-28.63336181640625,-144.9241180419922,-298.38531494140625
1699734751,-9.887688446044924,10.045460357666016,2.974464569091797,-0.1247882694005966,-2.017838954925537,-0.8692006468772888,-29.77035522460937,-145.0581512451172,-297.4253845214844
1699734751,-8.545579376220704,9.344318389892578,2.836750946044922,0.0321667231619358,-2.040564775466919,-0.5930162072181702,-30.278778076171875,-145.4652557373047,-296.5804443359375
1699734751,-7.398963775634766,8.846603393554688,3.516637115478516,0.0633201152086258,-1.7495814561843872,-0.3823524415493011,-30.88568115234375,-145.51113891601562,-295.4361572265625
1699734751,-7.124135284423828,9.15092056274414,4.693190460205078,-0.0051841093227267,-1.188668966293335,-0.2082898169755935,-31.64222717285156,-145.22955322265625,-295.3014221191406
1699734751,-8.338410186767579,10.214159545898438,5.642366638183594,-0.0984197780489921,-0.4826830327510834,-0.0456439182162284,-32.001495361328125,-145.78379821777344,-294.52313232421875
1699734751,-9.638157348632811,11.039393463134768,5.707630920410157,-0.1839426755905151,0.0908055379986763,0.0542573779821395,-32.23338317871094,-145.71121215820312,-293.9791259765625
1699734751,-9.739646301269532,10.75797866821289,4.749174041748047,-0.2267745584249496,0.3425227403640747,0.0040866206400096,-32.12562561035156,-145.7241973876953,-294.34930419921875
