timestamp,acc-x,acc-y,acc-z,gyr-x,gyr-y,gyr-z,mag-x,mag-y,mag-z
1699734634,1.063089294433594,-5.392835540771484,-7.531737670898438,0.6143534183502197,0.6015745401382446,-1.0930813550949097,46.33610534667969,-167.63746643066406,-298.4307861328125
1699734634,1.7404307556152343,-5.566324768066407,-8.78732666015625,0.337195873260498,-0.0246741864830255,-1.2835988998413086,46.33283996582031,-167.61538696289062,-298.356689453125
1699734634,1.6717236328125,-5.720055084228516,-10.058483276367188,0.2679254412651062,-0.7868770360946655,-1.414974808692932,46.35711669921875,-167.06634521484375,-298.57281494140625
1699734634,0.4942721557617188,-4.742288360595704,-9.769584045410156,0.4165210425853729,-1.5295729637145996,-1.534554362297058,46.13893127441406,-166.6291961669922,-298.72296142578125
1699734634,-0.075443115234375,-2.8994705200195314,-8.566386108398438,0.2049891054630279,-1.778565764427185,-1.6653478145599363,45.30726623535156,-166.47694396972656,-299.4925231933594
1699734634,0.7673043823242188,-2.458188171386719,-8.722810821533203,0.0280518736690282,-1.4358326196670532,-1.9613124132156368,45.006103515625,-165.86216735839844,-300.13983154296875
1699734634,1.9080821228027345,-1.460063781738281,-7.479795684814453,-0.1851711869239807,-0.8019358515739441,-2.1520028114318848,44.74128723144531,-164.69146728515625,-300.52362060546875
1699734634,0.7322772216796876,-1.098116455078125,-6.5184947204589845,-0.2985382378101349,-0.396634429693222,-2.178903341293335,44.87684631347656,-164.17727661132812,-301.6207275390625
1699734634,-1.1151809692382812,-3.446133728027344,-7.610324249267578,-0.3875495791435241,-0.2972995936870575,-2.05179762840271,44.82272338867188,-163.1383819580078,-301.0309753417969
1699734634,-1.6233741760253908,-6.325845336914063,-8.782835998535157,-0.6791644096374512,-0.3396507799625397,-1.8854022026062007,44.36012268066406,-162.38046264648438,-301.55389404296875
1699734634,-0.331710205078125,-7.9203295898437505,-9.251212005615235,-1.1535927057266235,-0.3976309895515442,-1.8109279870986936,44.65061950683594,-161.20535278320312,-301.50592041015625
1699734634,1.6265176391601563,-7.3832464599609375,-8.544381866455078,-1.589389443397522,-0.2619509100914001,-1.7044217586517334,44.45979309082031,-160.53842163085938,-301.85467529296875
1699734634,1.5413447570800782,-5.957760772705078,-7.328011322021485,-1.8238208293914795,0.1515834033489227,-1.4750999212265017,44.479248046875,-159.2032470703125,-302.389892578125
1699734634,-0.1651066589355468,-5.31260238647461,-6.157744903564454,-1.7743488550186155,0.6606540679931641,-1.1109768152236938,44.43034362792969,-157.92514038085938,-301.16827392578125
1699734634,-1.1642788696289064,-5.666316833496094,-6.447841644287109,-1.3884395360946655,1.3570510149002075,-0.6985093355178833,44.42811584472656,-157.20408630371094,-301.19647216796875
1699734634,-1.4412030029296876,-5.950426025390625,-5.924529876708984,-0.7804777026176453,2.161712646484375,-0.3069410324096679,44.90153503417969,-156.84898376464844,-300.1688842773437
1699734634,-1.5416441345214844,-5.658383331298828,-4.663701782226563,-0.575107753276825,1.0942071676254272,-0.266623705625534,45.80914306640625,-156.48757934570312,-299.5236511230469
1699734634,2.949915618896485,-5.254074096679688,-10.197843475341797,-0.8508008718490601,-1.544869899749756,-0.4224567115306854,45.57960510253906,-156.19473266601562,-299.32086181640625
1699734634,7.034920806884766,-5.258864135742188,-15.698305206298828,-0.7601314187049866,-2.112843036651612,-0.1823184043169021,44.92083740234375,-156.00132751464844,-299.81256103515625
1699734634,1.325643310546875,-5.0445098876953125,-5.927523651123047,-0.7035893201828003,-2.1821300983428955,0.0659742206335067,44.29283142089844,-155.72683715820312,-301.15869140625
1699734634,0.5634283447265626,-4.481829986572266,-4.943619689941406,-0.9325562119483948,-2.77111554145813,0.113652266561985,43.20964050292969,-155.4341583251953,-301.658447265625
1699734634,2.8633955383300784,-3.9014868164062495,-7.843988342285157,-1.4770735502243042,-3.5354764461517334,0.0405873730778694,42.054718017578125,-155.19749450683594,-302.54052734375
1699734634,4.046984252929688,-3.789968719482422,-9.471404113769532,-2.1665072441101074,-3.7080140113830566,-0.0086954869329929,40.61152648925781,-154.59336853027344,-303.9715576171875
1699734634,3.966900787353516,-4.483925628662109,-9.35255126953125,-2.655351161956787,-2.206866979598999,0.0899213701486587,39.58370971679688,-153.81788635253906,-305.14422607421875
1699734634,3.942800903320313,-5.973777465820313,-8.071964263916016,-2.773506164550781,0.5494726896286011,0.3325121700763702,39.50764465332031,-152.66566467285156,-304.8975830078125
1699734635,3.1989976501464845,-6.678661651611328,-7.313790893554688,-2.471470355987549,1.6258776187896729,0.5697396397590637,39.92669677734375,-151.6929931640625,-304.406494140625
1699734635,0.4640350341796875,-5.136867828369141,-8.089477844238282,-1.9099712371826167,1.4931148290634155,0.7246602177619934,40.68901062011719,-151.0118865966797,-303.7664794921875
1699734635,-1.896556091308594,-2.4530987548828125,-9.558822326660156,-1.0880110263824463,1.012791633605957,0.7036671042442322,40.99737548828125,-150.70384216308594,-303.07232666015625
1699734635,-1.0723699951171874,0.0016465759277343,-8.111033020019532,-0.2026620358228683,0.1757968664169311,0.6092199087142944,40.91743469238281,-150.9852294921875,-302.072021484375
1699734635,0.2052232360839843,-0.0113763427734375,-7.610024871826172,0.6344168782234192,-0.9032883048057556,0.558142364025116,41.2491455078125,-151.02609252929688,-303.15679931640625
1699734635,1.117276611328125,-0.6753955078125,-7.791896667480469,1.4433270692825315,-1.9375149011611936,0.6913249492645264,40.98838806152344,-151.79095458984375,-303.9143371582031
1699734635,1.315913543701172,-0.8023315429687501,-7.349865875244141,2.174344778060913,-2.398975133895874,0.8518543839454651,39.95196533203125,-152.5518341064453,-304.611328125
1699734635,2.1869522094726563,-2.1260289001464843,-6.911577301025391,2.6795971393585205,-2.537871122360229,0.9679914116859436,39.46066284179688,-153.81149291992188,-305.9967956542969
1699734635,2.263143768310547,-3.692521362304688,-7.997568969726563,2.6249542236328125,-2.918172836303711,0.782433807849884,38.12033081054688,-154.93821716308594,-306.9346618652344
1699734635,1.565145263671875,-3.222798156738281,-11.417207794189451,1.659635066986084,-2.3152475357055664,0.3843197226524353,37.50439453125,-156.05465698242188,-307.64111328125
1699734635,0.3849993896484375,-2.944227447509766,-12.855866088867188,0.6532859206199646,-0.3945156335830688,0.1184129267930984,37.1845703125,-156.09603881835938,-308.13055419921875
1699734635,-0.5309458923339844,-3.8817279052734377,-9.97660354614258,-0.0598795786499977,0.7784504890441895,0.2457397282123565,37.1529541015625,-156.47837829589844,-308.5412292480469
1699734635,-1.9971469116210936,-4.307592315673828,-8.882229309082032,-0.5829159021377563,0.7936334609985352,0.3689782917499542,37.223419189453125,-156.69264221191406,-307.47296142578125
1699734635,-1.9261944580078123,-3.366199951171875,-9.668544158935548,-0.6811020970344543,0.2354317009449005,0.376201331615448,37.56892395019531,-156.40650939941406,-308.10723876953125
1699734635,-0.5727090454101563,-2.964136047363281,-8.80169677734375,-0.5509912371635437,-0.3255642354488373,0.4365882277488708,37.78631591796875,-156.4350128173828,-307.5497436523437
1699734635,-0.8020321655273438,-3.491788787841797,-8.167315979003906,-0.4198952913284302,-0.7381560802459717,0.574586033821106,37.52583312988281,-156.49087524414062,-307.6725158691406
1699734635,-1.0594967651367189,-3.760779418945313,-8.23497528076172,-0.5011752247810364,-0.594903290271759,0.6402997970581055,37.2093505859375,-156.44654846191406,-307.9695739746094
1699734635,0.0528401184082031,-3.3473391723632813,-8.368497619628906,-0.6780291199684143,-0.3006314635276794,0.7438086271286011,36.99412536621094,-156.4004669189453,-307.6702880859375
1699734635,0.1561253356933593,-3.472628631591797,-9.111702117919924,-0.5299525260925293,-0.3114319145679474,0.800227701663971,36.986358642578125,-156.47544860839844,-307.2572021484375
1699734635,-0.6113287353515625,-3.0991552734375003,-9.367669830322264,-0.126064196228981,-0.4923769235610962,0.5934774279594421,37.0081787109375,-156.4391632080078,-308.4345092773437
1699734635,-0.3284170532226562,-3.1963032531738285,-9.0052734375,0.2979864180088043,-0.733048677444458,0.3442780077457428,36.50151062011719,-156.29212951660156,-308.1390075683594
1699734635,0.1019380187988281,-3.0897248840332034,-8.225694580078125,0.5040109753608704,-1.0611191987991333,0.2714008688926697,36.088897705078125,-156.79769897460938,-308.622314453125
1699734635,-0.6469546508789062,-2.9530590820312503,-8.148455200195313,0.5107953548431396,-1.322717547416687,0.2978402078151703,36.00990295410156,-157.1416015625,-309.1391906738281
1699734635,-1.282682647705078,-2.57943603515625,-7.678582305908203,0.4032148420810699,-1.465890884399414,0.2800391018390655,35.30628967285156,-157.55609130859375,-309.5224914550781
1699734635,-1.9778370666503908,-2.490670623779297,-6.869814147949219,0.3536683320999145,-1.6880097389221191,0.2615668773651123,34.68232727050781,-157.7261962890625,-309.9674072265625
1699734635,-3.0552964782714844,-2.5129742431640625,-6.176156616210938,0.3709517121315002,-1.939314365386963,0.3164066970348358,34.09814453125,-157.63514709472656,-310.5848693847656
1699734635,-4.284390563964844,-2.102378082275391,-5.812712402343751,0.5084725618362427,-2.343787908554077,0.4609199464321136,33.251220703125,-157.9550018310547,-310.68359375
1699734635,-5.465584259033204,-1.6378939819335938,-5.3721784973144535,0.7013272047042847,-2.7658934593200684,0.6008616089820862,31.72154235839844,-158.38497924804688,-311.6866455078125
1699734635,-6.317313079833984,-1.2762460327148435,-4.608167266845704,0.7533592581748962,-2.976783514022827,0.6663391590118408,30.523956298828125,-158.40084838867188,-312.5503845214844
1699734635,-6.269113311767579,-1.0987152099609376,-3.663930816650391,0.6632538437843323,-3.3609776496887207,0.5488551259040833,29.067169189453125,-159.18173217773438,-313.08966064453125
1699734635,-6.41476043701172,-0.4572990417480469,-2.921624450683594,0.5950881242752075,-3.197760343551636,0.7506633400917053,27.428878784179688,-159.71287536621094,-313.97784423828125
1699734635,-4.974605255126954,1.5823594665527343,-0.868194580078125,0.2316097915172577,-2.886464834213257,1.3376286029815674,25.566192626953125,-160.053466796875,-314.4652099609375
1699734635,-5.635331268310547,1.9764898681640624,0.211959228515625,0.1057663783431053,-3.939509153366089,2.416398525238037,24.239715576171875,-160.60655212402344,-314.9901123046875
1699734635,-4.857548675537109,-2.4312442016601565,-3.048410797119141,0.3844443559646606,-4.57944393157959,3.3440535068511963,21.91387939453125,-161.4265899658203,-315.85308837890625
1699734635,-4.558320922851562,-1.9261944580078123,-0.7212002563476563,0.7905892133712769,-5.203587532043457,3.501284122467041,19.34468078613281,-162.0628204345703,-316.777587890625
1699734635,-4.103416900634766,2.209405517578125,-0.0516426086425781,1.239185094833374,-6.10734748840332,3.0781590938568115,15.976272583007812,-162.63525390625,-317.5080871582031
1699734635,-4.272265777587891,5.589376831054688,-1.0565029907226564,1.73193359375,-6.9070000648498535,2.802069902420044,12.584075927734377,-164.31124877929688,-318.2441711425781
1699734635,-4.709506530761719,4.718038787841797,-1.0722203063964844,1.918168067932129,-7.499251842498779,2.941056966781616,8.448074340820312,-165.15513610839844,-318.20880126953125
1699734635,-4.792134704589844,2.329306182861328,-2.5568330383300784,1.646021842956543,-7.753929615020752,3.46644139289856,4.228271484375,-166.14761352539062,-317.60723876953125
1699734635,-5.105133819580078,2.2872436523437503,-3.803291015625,0.9006983637809753,-7.682953357696533,4.144797325134277,-0.2704315185546875,-166.89479064941406,-317.3316650390625
1699734635,-5.4558544921875,3.474873962402344,-5.355712738037109,-0.0127637321129441,-7.312979221343994,4.856584072113037,-4.4453887939453125,-166.5278778076172,-316.639892578125
1699734635,-6.025869140625001,4.246669006347656,-6.594087524414062,-0.7217376828193665,-6.74766731262207,5.444319725036621,-8.730224609375,-165.83932495117188,-315.9700927734375
1699734635,-7.017407226562501,4.41686508178711,-7.448061676025391,-1.0478957891464231,-6.223179817199707,5.7815656661987305,-12.334716796875,-164.29202270507812,-314.0965576171875
1699734635,-8.061785430908204,4.665198669433594,-8.416248321533203,-0.9904349446296692,-5.630703449249268,5.801700592041016,-16.116973876953125,-162.7235870361328,-312.8956298828125
1699734635,-9.150022430419924,5.140310668945313,-8.977281646728516,-0.6228369474411011,-4.738062381744385,5.524413585662842,-19.03744506835937,-160.85789489746094,-311.1268920898437
1699734635,-10.61712158203125,4.82162338256836,-8.258775787353516,-0.0684549584984779,-3.835283756256104,5.174761295318604,-21.297332763671875,-159.22683715820312,-309.51593017578125
1699734635,-11.366014251708984,3.919449462890625,-8.089926910400392,0.5420497059822083,-3.085705280303955,5.054046630859375,-23.3323974609375,-157.75743103027344,-308.7777099609375
1699734635,-12.359049224853516,2.777623901367188,-7.72199203491211,0.9294120669364928,-2.7980782985687256,5.230135917663574,-24.516815185546875,-156.05636596679688,-307.6988525390625
1699734635,-13.331427154541016,1.751956787109375,-8.623567199707031,1.050463080406189,-2.7861361503601074,5.561806201934815,-25.687820434570312,-154.5904083251953,-305.7922668457031
1699734635,-14.22926010131836,1.5667918395996094,-9.343569946289064,1.0289360284805298,-2.88673734664917,5.799901008605957,-26.561996459960938,-152.72348022460938,-305.13238525390625
1699734635,-14.368919677734375,1.7970130920410157,-9.228609008789062,1.0144883394241333,-3.0477092266082764,5.863570213317871,-27.52626037597656,-151.1733856201172,-303.9022216796875
1699734635,-14.749727783203124,1.8185682678222657,-9.117839355468751,1.112858533859253,-3.1286211013793945,5.606457710266113,-28.36347961425781,-149.42413330078125,-302.5582580566406
1699734635,-15.32617904663086,1.5907420349121095,-8.78777572631836,1.2513853311538696,-2.695379734039306,5.134495735168457,-28.6748046875,-147.2845458984375,-301.42840576171875
1699734635,-17.46582962036133,1.1181747436523437,-7.967032470703125,1.3312127590179443,-1.9209237098693848,4.5860772132873535,-29.26849365234375,-145.69857788085938,-299.83062744140625
1699734635,-18.73264526367188,1.2379257202148437,-7.346123657226562,1.3439346551895142,-0.8940703272819519,4.113667011260986,-28.671798706054688,-144.52940368652344,-300.236083984375
1699734635,-19.06375671386719,1.249002685546875,-6.649771728515625,1.3174433708190918,0.3847894966602325,3.787824869155884,-28.33164978027344,-143.41961669921875,-300.4742431640625
1699734635,-19.355949096679687,1.287472686767578,-5.633984069824219,1.3016974925994873,1.701829195022583,3.596839189529419,-27.277313232421875,-142.20892333984375,-300.5223388671875
1699734635,-19.330052947998045,1.7766554260253906,-4.901108093261719,1.3743120431900024,2.7602734565734863,3.5447335243225098,-25.864959716796875,-141.4770050048828,-301.4676513671875
1699734635,-19.33394485473633,2.27287353515625,-4.276307373046875,0.7261279225349426,3.434582233428955,3.439347982406616,-23.876510620117188,-140.755615234375,-302.3431396484375
1699734635,-20.11576904296875,2.3372396850585937,-3.326831817626953,-1.133455514907837,4.365704536437988,3.210171937942505,-21.633102416992188,-139.4327850341797,-303.9784545898437
1699734635,-21.75770462036133,2.0517832946777346,-0.0082328796386718,-3.084925889968872,4.837506294250488,2.756734609603882,-18.831817626953125,-137.79202270507812,-304.6863708496094
1699734635,-21.34156997680664,2.179318084716797,0.1978884887695312,-3.31613826751709,4.537971019744873,2.3854262828826904,-16.414825439453125,-135.5716094970703,-304.91534423828125
1699734635,-21.025726776123044,0.9310638427734376,-2.7569668579101565,-2.155949354171753,4.495367050170898,1.7996819019317627,-14.248199462890623,-134.17005920410156,-305.0348815917969
1699734635,-20.12579818725586,1.707199859619141,-2.283501434326172,-0.4388838708400726,3.7406084537506095,1.0656591653823853,-12.384078979492188,-133.4005584716797,-305.98565673828125
1699734635,-17.964891815185545,5.036277008056641,-2.7825636291503906,0.663267970085144,2.698260545730591,0.4916339218616485,-10.452301025390623,-133.33004760742188,-306.54376220703125
1699734635,-16.198564910888674,6.673422546386719,-3.4179922485351564,0.6421602964401245,2.145524263381958,0.3416404128074646,-9.2049560546875,-133.6448974609375,-307.225830078125
1699734635,-14.476246490478516,6.1363394165039065,-1.7179774475097658,0.4629170596599579,1.8033983707427976,0.4500686228275299,-8.318923950195312,-133.7161102294922,-307.69287109375
1699734635,-12.4972119140625,6.479276275634766,-0.7191046142578126,0.6894665956497192,1.124767184257507,0.5786721706390381,-7.530120849609375,-133.64566040039062,-307.8764038085937
1699734635,-11.288774871826172,6.918612670898438,-1.9654129028320315,0.9207610487937928,0.2706147134304046,0.6333218216896057,-6.8490142822265625,-134.26223754882812,-308.72027587890625
1699734635,-10.348280639648438,7.813302154541016,-3.2817755126953125,1.1909313201904297,-0.6329820156097412,0.5967177152633667,-6.7797393798828125,-134.6765594482422,-309.1497802734375
1699734635,-9.222022705078125,8.053552551269531,-3.2153137207031253,1.3537482023239136,-1.55964195728302,0.5209683775901794,-7.340255737304687,-135.27008056640625,-308.80828857421875
1699734635,-8.533753967285156,7.283104705810548,-3.500171356201172,1.431589126586914,-2.513826608657837,0.4840202033519745,-7.637893676757812,-135.48036193847656,-309.117431640625
1699734635,-8.519683227539064,6.562353515625,-3.9043309020996095,2.033742904663086,-3.314767837524414,0.4955559372901916,-9.099472045898438,-136.20428466796875,-308.7505187988281
1699734635,-7.4007600402832034,5.134772186279297,-4.521796875000001,2.814032554626465,-2.629513025283813,0.7649685144424438,-9.921432495117188,-137.2191162109375,-308.46710205078125
1699734635,-7.5787399291992195,2.6361680603027344,-1.263223114013672,3.282675743103028,-2.1645314693450928,0.6153689026832581,-11.014663696289062,-139.03746032714844,-309.4353332519531
1699734635,-7.8782670593261726,6.314618682861329,-3.208128662109375,3.591558694839477,-1.942721962928772,0.4334651529788971,-11.648284912109377,-140.08892822265625,-309.18865966796875
1699734635,-8.511749725341797,5.241799621582032,-6.293512573242188,3.2332417964935303,-0.9145566821098328,0.255269855260849,-11.981307983398438,-141.6173553466797,-310.1183776855469
1699734635,-7.982450408935548,2.4243585205078126,-3.626209259033203,2.717398405075073,-0.6339266300201416,-0.2712384164333343,-11.989547729492188,-143.27322387695312,-310.6558837890625
1699734635,-6.065536651611328,1.6377442932128907,-4.006568298339844,2.560963630676269,-1.025398015975952,-0.7259622812271118,-12.376022338867188,-144.3800048828125,-310.82568359375
1699734635,-5.028343505859375,-0.1984872436523437,-3.076851654052734,2.359299421310425,-1.5352226495742798,-1.1198389530181885,-13.44549560546875,-145.4203643798828,-311.1210327148437
1699734635,-3.8544845581054688,-0.6426136779785157,-2.536175994873047,2.0020127296447754,-2.129855394363404,-1.4004615545272827,-14.000106811523438,-146.9336395263672,-310.551513671875
1699734635,-2.540966033935547,-0.7530839538574219,-1.5516732788085938,1.6169238090515137,-2.89324951171875,-1.5460374355316162,-15.328857421875,-148.2846221923828,-311.05523681640625
1699734635,-0.9117539978027344,-0.8893006896972657,-0.9288185119628908,1.5582916736602783,-3.669976234436035,-2.027169942855835,-16.578079223632812,-149.4168701171875,-310.155517578125
1699734635,-0.9717791748046876,0.4284091186523437,-0.8303233337402344,1.4472326040267944,-4.094913005828857,-2.450267553329468,-18.84434509277344,-150.61904907226562,-309.36492919921875
1699734635,-2.50998046875,-0.1670526123046875,-0.6444099426269532,0.8876965641975403,-3.7838385105133057,-2.6018612384796143,-20.6162109375,-151.67222595214844,-308.3402404785156
1699734635,-3.400478668212891,-0.2139051818847656,-0.4712200927734375,0.353334903717041,-3.034223794937134,-2.5837109088897705,-22.23419189453125,-152.86312866210938,-307.790771484375
1699734635,-4.744384002685547,0.4516108703613281,-0.6707551574707031,0.0067758806981146,-2.269986391067505,-2.3791825771331787,-23.762359619140625,-153.9230499267578,-306.51629638671875
1699734635,-6.258186035156251,0.0002993774414062,-0.4188290405273437,-0.3153257369995117,-1.93580174446106,-2.152045249938965,-24.787277221679688,-154.4274139404297,-306.072509765625
1699734635,-6.640790405273438,0.1993853759765625,-0.8379574584960938,-0.510246992111206,-2.0743916034698486,-2.3621766567230225,-25.43711853027344,-154.90724182128906,-305.0373840332031
1699734635,-6.067332916259766,-0.2122586059570312,-1.2117301940917968,-0.4757923781871795,-2.411172151565552,-3.1157116889953613,-26.867111206054688,-155.65292358398438,-304.7764587402344
1699734635,-6.79946044921875,-3.795806579589844,-0.6141728210449219,0.0880148112773895,-2.2227203845977783,-4.103189468383789,-28.17138671875,-156.49349975585938,-303.5145263671875
1699734635,-9.336833953857424,-8.096662902832032,0.6950047302246094,-0.1352457106113433,-2.507000207901001,-3.809684038162232,-29.398941040039062,-157.83663940429688,-302.7130432128906
1699734635,-13.074112243652344,-6.213578796386719,-4.3507026672363285,-0.1467122137546539,-2.418259620666504,-3.107893466949463,-30.354568481445312,-159.4508819580078,-301.3922119140625
1699734635,-10.91260711669922,-5.378764801025391,-5.526208190917969,0.2120973467826843,-2.062939643859864,-2.378773927688598,-31.73931884765625,-160.57040405273438,-301.02862548828125
1699734635,-10.402168579101565,-2.76190658569336,-5.541326751708985,0.4744088649749756,-1.293275237083435,-1.8881601095199585,-31.99578857421875,-161.67520141601562,-300.2529296875
1699734635,-10.563682708740236,-1.7476158142089844,-5.2401530456542975,0.5293232202529907,-0.7509751915931702,-1.4405304193496704,-32.82740783691406,-162.62901306152344,-300.2623291015625
1699734635,-11.02861587524414,-2.729723510742188,-5.1977911376953125,0.4126141965389251,-0.54289311170578,-1.1284217834472656,-32.95845031738281,-163.24789428710938,-299.90185546875
1699734635,-10.95287338256836,-1.4641053771972656,-4.2751098632812505,0.1542750597000122,0.1212710365653038,-0.9377679824829102,-33.31425476074219,-164.02017211914062,-299.6586608886719
1699734635,-9.951455841064451,0.7532336425781251,-0.8485853576660156,-0.3110550940036773,0.7209264636039734,-0.6303358674049377,-33.04594421386719,-164.53916931152344,-300.2512512207031
1699734636,-8.975335693359375,2.062860260009766,1.2439132690429688,-0.7196646928787231,1.2519389390945437,-0.4151303470134735,-32.61213684082031,-164.72369384765625,-300.54150390625
1699734636,-9.25285858154297,5.284760284423829,1.3560301208496095,-1.1227737665176392,1.5411031246185305,-0.1213501319289207,-32.28977966308594,-164.9138641357422,-301.2517395019531
1699734636,-9.360185394287113,8.362061004638672,0.2534230041503906,-1.7050329446792605,1.5554043054580688,0.5537399053573608,-31.794021606445312,-164.05148315429688,-301.9552001953125
1699734636,-9.046587524414065,7.264992370605469,-0.9196875,-2.156257390975952,1.214968204498291,1.4166544675827026,-31.235824584960938,-162.92498779296875,-302.1317138671875
1699734636,-8.106392669677735,6.302194519042969,-1.828298034667969,-1.7369067668914795,0.0049273804761469,2.1441919803619385,-31.300552368164062,-161.99449157714844,-303.1363525390625
1699734636,-6.284231872558594,7.00064208984375,-3.9326220703125,-0.6036701798439026,-0.2356442213058471,2.410426616668701,-31.4290771484375,-160.30938720703125,-302.1187744140625
1699734636,-6.120622100830079,8.889414367675782,-3.132535858154297,0.0003491404058877,0.6745970845222473,3.0621259212493896,-31.463943481445312,-159.44139099121094,-302.33905029296875
1699734636,-11.503428497314454,6.68779266357422,0.5743556213378906,0.1092412695288658,1.0613386631011963,3.5202949047088623,-31.15576171875,-158.20242309570312,-303.2996826171875
1699734636,-11.329041137695311,7.518565063476563,-1.948947143554688,-0.2753274440765381,0.892491340637207,3.606343746185303,-30.74873352050781,-156.8267059326172,-303.436767578125
1699734636,-11.888876953125,6.23947494506836,-3.351829833984376,-1.0667613744735718,0.3136514127254486,3.5310633182525635,-30.299713134765625,-155.04244995117188,-303.21258544921875
1699734636,-13.706696777343751,4.7373486328125,-4.870571594238282,-1.9082289934158323,-0.1539445519447326,3.412251234054565,-29.97480773925781,-153.47877502441406,-303.52490234375
1699734636,-13.99215316772461,4.06958724975586,-4.9740065002441405,-2.6946420669555664,-1.031607151031494,3.5679738521575928,-29.708816528320312,-151.204833984375,-303.6012268066406
1699734636,-14.476695556640626,2.079775085449219,-5.688770141601562,-3.3000717163085938,-2.4574532508850098,3.82089638710022,-29.666534423828125,-148.84124755859375,-301.9200439453125
1699734636,-14.139446868896483,2.0315753173828126,-6.340215454101563,-3.670745611190796,-4.292585849761963,4.007116794586182,-30.48384094238281,-145.96835327148438,-300.6991882324219
1699734636,-12.78027328491211,3.5206787109375,-5.994434509277344,-3.844471693038941,-5.388965129852295,4.120988845825195,-31.410232543945312,-143.25164794921875,-297.5368957519531
1699734636,-10.77369598388672,4.686454467773438,-5.097948760986329,-3.5038318634033203,-6.251287937164307,4.102691173553467,-32.084320068359375,-140.53611755371094,-294.6088256835937
1699734636,-8.778495025634767,5.233716430664063,-3.0816416931152344,-2.602712631225586,-5.99444580078125,3.905564308166504,-32.92828369140625,-137.8706817626953,-290.8560791015625
1699734636,-7.147636413574219,6.000422058105469,2.847378845214844,-0.8684355020523071,-3.702672719955444,3.6549489498138414,-33.09344482421875,-136.13330078125,-287.72296142578125
1699734636,-6.711892547607422,7.043303375244141,12.374167785644532,0.9350752830505372,-2.456989288330078,3.221747875213623,-32.5400390625,-134.43260192871094,-286.4442138671875
1699734636,-7.098987579345703,7.753276977539063,15.32423309326172,2.01694393157959,-1.7588673830032349,2.7367959022521973,-32.11027526855469,-133.56243896484375,-286.09332275390625
1699734636,-5.960904235839844,6.973548431396485,10.445877685546876,2.4579195976257324,-1.5960819721221924,2.1623921394348145,-31.899627685546875,-132.89019775390625,-285.75396728515625
1699734636,-5.099894714355469,6.6382456970214845,4.767286376953125,2.5644078254699707,-1.9771203994750977,1.6609504222869873,-31.48638916015625,-132.6871795654297,-285.8646240234375
1699734636,-5.612279205322266,6.121819610595703,1.6088543701171876,2.664241313934326,-2.788817882537842,1.2945787906646729,-31.313995361328125,-132.56907653808594,-286.317138671875
1699734636,-6.249803466796875,5.766608276367188,0.4836442565917969,2.8209965229034424,-3.1027419567108154,1.058160662651062,-31.762283325195312,-132.8634490966797,-285.5709228515625
1699734636,-7.092550964355469,5.451064453125,0.9975256347656252,2.9031994342803955,-2.851824998855591,0.9813474416732788,-32.03662109375,-132.89047241210938,-285.4230041503906
1699734636,-7.977510681152344,4.838388519287109,1.4973362731933595,2.798714399337769,-2.698624610900879,1.020419716835022,-32.59434509277344,-133.37014770507812,-284.9217529296875
1699734636,-8.615633697509766,4.28184585571289,1.204545135498047,2.5466630458831787,-2.852917432785034,1.1840072870254517,-32.717132568359375,-133.46438598632812,-284.29541015625
1699734636,-9.114695892333986,3.7206628417968752,0.9690847778320312,2.2349119186401367,-2.852702140808105,1.4306365251541138,-32.82139587402344,-133.47296142578125,-283.7344970703125
1699734636,-9.564061431884763,3.143163757324219,1.8155744934082032,2.009990692138672,-2.823927164077759,1.596415638923645,-32.835968017578125,-133.3504638671875,-283.6224975585937
1699734636,-8.89794662475586,2.8168423461914065,2.7403514099121096,1.8701428174972528,-2.7391953468322754,1.672406554222107,-33.14404296875,-133.08901977539062,-282.7950439453125
1699734636,-8.051905975341798,2.9731173706054688,3.2988400268554687,1.7462669610977173,-2.7115488052368164,1.647583246231079,-33.001373291015625,-132.95350646972656,-282.75
1699734636,-7.835905151367188,3.45601318359375,3.521427154541016,1.5874693393707275,-3.0598981380462646,1.5005533695220947,-32.94160461425781,-132.8457794189453,-282.0519104003906
1699734636,-8.017028503417968,4.1433837890625,3.482208709716797,1.352528691291809,-3.651543855667114,1.3025190830230713,-33.12214660644531,-132.4984130859375,-280.49530029296875
1699734636,-8.64078140258789,4.925207977294922,3.4910403442382814,1.078550934791565,-3.9973552227020255,1.1526424884796145,-33.68272399902344,-132.33460998535156,-279.2574462890625
1699734636,-9.518855438232425,5.736820220947266,3.8715490722656254,0.790204644203186,-4.098316192626953,1.120883226394653,-33.704010009765625,-131.85377502441406,-278.42315673828125
1699734636,-10.53419403076172,6.574927368164063,4.103716278076172,0.5138584971427917,-3.96329665184021,1.1928178071975708,-34.13188171386719,-132.10675048828125,-276.65789794921875
1699734636,-10.54811508178711,7.227719879150391,4.11224853515625,0.2875721156597137,-3.698627233505249,1.358603596687317,-34.15765380859375,-131.81326293945312,-275.1918334960937
1699734636,-9.76539276123047,7.5730517578125,3.780089263916016,0.1078657433390617,-3.4274725914001465,1.6070775985717771,-33.808380126953125,-131.4752655029297,-273.9473571777344
1699734636,-8.894204406738282,7.863148498535157,3.211272125244141,-0.0537899956107139,-3.133915901184082,1.9134093523025515,-33.87091064453125,-130.86679077148438,-272.39849853515625
1699734636,-8.209827575683594,8.174800415039062,2.823877716064453,-0.2231265604496002,-2.759185075759888,2.2655038833618164,-33.48797607421875,-130.67538452148438,-271.0853271484375
1699734636,-7.217990112304688,7.879464569091797,2.6033862304687503,-0.4028273522853851,-2.028559446334839,2.6915271282196045,-33.036895751953125,-129.66221618652344,-269.9301147460937
1699734636,-5.767805786132813,7.64490234375,2.548899536132813,-0.6546491980552673,-0.9816054701805116,3.1804230213165283,-32.24684143066406,-129.05679321289062,-268.73077392578125
1699734636,-4.642895050048828,8.118218078613282,2.2776635742187503,-0.9210090041160583,0.2155466675758361,3.6317739486694336,-31.615264892578125,-128.01170349121094,-267.9532775878906
1699734636,-3.0704150390625,8.287965087890626,2.0719912719726565,-1.1616495847702026,1.299543023109436,3.96955132484436,-30.37657165527344,-126.72956848144533,-268.6368103027344
1699734636,-1.508712615966797,7.739804992675782,2.004331970214844,-1.2674643993377686,1.9484754800796509,4.142238140106201,-28.912841796875,-125.4349365234375,-268.2550964355469
1699734636,-0.18920654296875,6.708300018310547,1.4084211730957032,-1.254417061805725,2.0764918327331543,4.111934185028076,-27.413299560546875,-124.03634643554688,-268.81793212890625
1699734636,0.7123686218261719,6.034850463867188,0.7966433715820312,-1.1999127864837646,2.3308305740356445,3.993887901306152,-25.51425170898437,-123.43376159667967,-269.2524108886719
1699734636,0.9565109252929688,4.652325439453125,1.0400372314453126,-1.0226200819015503,2.7134580612182617,3.913319826126098,-24.121597290039062,-121.62637329101562,-269.2193603515625
1699734636,0.4285588073730469,2.384840698242188,1.0792556762695311,-0.8686999678611755,2.991483449935913,3.915296792984009,-22.2257080078125,-120.84881591796876,-270.205322265625
1699734636,0.63468017578125,2.811902618408203,0.5987548828125,-0.7770398259162903,2.9991071224212646,3.73835825920105,-20.438644409179688,-120.11213684082033,-270.5993957519531
1699734636,1.233285369873047,5.121150512695313,0.0785865783691406,-0.6989242434501648,2.808051347732544,3.373355865478516,-19.12469482421875,-118.76856994628906,-270.5492553710937
1699734636,1.7579443359375,6.290967864990234,-0.3528163146972656,-0.5460505485534668,2.5260846614837646,2.9585201740264893,-17.50079345703125,-118.14671325683594,-271.134521484375
1699734636,2.0079244995117187,8.839118957519531,-0.6524931335449219,-0.6606642007827759,1.6126198768615725,2.432214975357056,-16.085311889648438,-117.21861267089844,-271.20458984375
1699734636,3.5452276611328126,14.677877197265628,-2.5304878234863284,-0.9977287650108336,0.4294483065605163,1.837450623512268,-15.14703369140625,-116.8824462890625,-270.5334167480469
1699734636,5.234614562988281,20.293599243164063,-4.119583282470703,-1.409846544265747,-0.5719116926193237,1.2110629081726074,-14.8829345703125,-116.76754760742188,-270.2858581542969
1699734636,6.901847534179688,24.79039810180664,-3.633993072509766,-1.7180159091949463,-0.9691152572631836,0.6026443243026733,-14.665374755859377,-116.20011901855467,-269.444091796875
1699734636,8.10324920654297,26.376200408935546,-0.8463400268554688,-1.661187767982483,1.4199281930923462,-0.2253508269786834,-14.595535278320312,-116.39982604980467,-269.229736328125
1699734636,9.9584912109375,25.190965118408204,10.372979278564454,-0.7173647880554199,3.1278417110443115,-1.0495837926864624,-15.011932373046877,-116.80535888671876,-268.78875732421875
1699734636,9.995913391113282,19.035465545654297,14.008319549560548,0.1649564653635025,3.649326801300049,-1.3883380889892578,-15.490524291992188,-117.72941589355467,-269.4164428710937
1699734636,6.02631820678711,11.479178924560548,9.09388916015625,0.8322450518608093,3.4564194679260254,-1.419534683227539,-15.837020874023438,-117.58560180664062,-270.2138061523437
1699734636,3.2768357849121097,7.242539062500001,6.34201171875,1.1999669075012207,2.8363499641418457,-1.333545446395874,-16.629287719726562,-118.31802368164062,-272.12274169921875
1699734636,1.9205062866210936,4.719086608886719,4.441713409423828,1.2417454719543457,1.9673689603805544,-1.2314413785934448,-17.103652954101562,-118.81672668457033,-273.41357421875
1699734636,1.122366027832031,3.2024404907226565,2.96742919921875,1.0188138484954834,0.8914809226989746,-1.0902022123336792,-17.633621215820312,-119.29830932617188,-274.02667236328125
1699734636,0.6767427062988282,2.4376808166503907,1.448687438964844,0.727592408657074,-0.2110211551189422,-0.8855668306350708,-17.9415283203125,-119.94529724121094,-274.6405029296875
1699734636,0.4680766296386719,2.3664289855957032,0.4508624267578125,0.4789516627788543,-1.1376878023147583,-0.6197540760040283,-18.41561889648437,-120.08419799804688,-274.9307556152344
1699734636,0.4254153442382812,2.477647705078125,0.08382568359375,0.3445371389389038,-1.7452019453048706,-0.3135573863983154,-19.14244079589844,-120.98165893554688,-274.5599975585937
1699734636,0.5284011840820313,2.853665771484375,0.1799258422851562,0.3156285285949707,-1.9940497875213623,-0.072498969733715,-19.25581359863281,-120.91734313964844,-274.0489501953125
1699734636,0.8978329467773438,4.219275970458985,0.6487509155273438,0.3965020775794983,-1.9882159233093264,0.0877753943204879,-19.56451416015625,-121.12834167480467,-273.01318359375
1699734636,1.299298095703125,5.883964233398438,1.1741583251953125,0.5775219202041626,-1.7348982095718384,0.2089731842279434,-19.496871948242188,-120.90464782714844,-273.19989013671875
1699734636,1.3947994995117188,7.165299682617188,2.022593994140625,0.8420763611793518,-1.2250503301620483,0.2839976251125335,-19.978973388671875,-121.07415771484376,-272.9930419921875
1699734636,1.133892059326172,7.994724884033204,3.2540830993652343,1.1302481889724731,-0.5314308404922485,0.304357498884201,-19.667739868164062,-121.14421081542967,-272.6139221191406
1699734636,0.5544470214843751,8.423134002685547,4.362079010009766,1.361420750617981,0.1643894761800766,0.2869356274604797,-19.66767883300781,-121.23664855957033,-273.14898681640625
1699734636,-0.1290316772460937,8.412955169677735,4.660109252929688,1.4987186193466189,0.7823584079742432,0.2510439455509186,-19.750213623046875,-121.19850158691406,-274.061767578125
1699734636,-0.5528004455566407,8.245303802490234,4.268822937011719,1.512203812599182,1.266399621963501,0.2208160012960434,-19.55537414550781,-121.32911682128906,-274.6204833984375
1699734636,-0.7448510742187501,7.998018035888672,3.490591278076172,1.4245719909667969,1.502881407737732,0.1934158056974411,-19.68031311035156,-121.56179809570312,-275.3377685546875
1699734636,-0.9181906127929688,7.93035873413086,2.6063800048828125,1.2771614789962769,1.52156400680542,0.1412636488676071,-19.484771728515625,-122.05622863769533,-276.1212158203125
1699734636,-1.064735870361328,8.024363250732423,1.8410215759277344,1.084519863128662,1.3713606595993042,0.041696049273014,-18.93373107910156,-122.02256774902344,-276.7977600097656
1699734636,-1.2419673156738282,8.052205352783204,1.3977932739257812,0.8836725354194641,1.1691434383392334,-0.0973097756505012,-19.07588195800781,-121.9090576171875,-277.43280029296875
1699734636,-1.469045104980469,7.931855621337891,1.490899658203125,0.7206202149391174,1.0399318933486938,-0.2164952903985977,-19.013351440429688,-122.22286987304688,-278.0047607421875
1699734636,-1.7024098205566407,7.542664947509766,2.118245086669922,0.584367036819458,1.010685920715332,-0.2896528542041778,-19.083526611328125,-122.51708984375,-278.675048828125
1699734636,-1.85853515625,7.142546997070313,2.7857070922851563,0.4500787556171417,1.007933497428894,-0.3050262331962585,-19.11390686035156,-122.6226043701172,-279.4428100585937
1699734636,-1.941163330078125,6.723568267822266,3.041824493408204,0.353749543428421,0.8715623617172241,-0.2841313183307647,-19.64488220214844,-122.81755065917967,-279.3275756835937
1699734636,-1.8639239501953129,6.465953979492188,2.7267297363281253,0.3110769093036651,0.531320333480835,-0.2324124723672866,-19.48858642578125,-122.77449035644533,-279.4325561523437
1699734636,-1.633553009033203,6.395600280761719,2.0513342285156253,0.3322935402393341,0.01755316182971,-0.1566737592220306,-19.40791320800781,-123.27464294433594,-279.79522705078125
1699734636,-1.2840298461914064,6.309678955078125,1.4340179443359375,0.410460501909256,-0.5233279466629028,-0.063719056546688,-19.80868530273437,-123.44659423828124,-279.8936767578125
1699734636,-0.8283773803710938,6.287375335693359,1.136287078857422,0.5356189608573914,-0.9527022242546082,0.0325627364218235,-19.856689453125,-123.6714324951172,-279.1833190917969
1699734636,-0.4013154602050781,6.371350708007813,1.0569520568847657,0.6603217124938965,-1.2701143026351929,0.0962128192186355,-20.194488525390625,-123.64608764648438,-279.2471923828125
1699734636,-0.0932560729980468,6.642137603759766,0.9246272277832032,0.7452400922775269,-1.5283524990081787,0.1120130866765976,-20.510055541992188,-123.804443359375,-278.685791015625
1699734636,-0.0097297668457031,6.871909790039063,0.6158193969726563,0.790881872177124,-1.6882622241973877,0.148704782128334,-20.55389404296875,-123.8565673828125,-278.139404296875
1699734636,-0.3261717224121094,6.647376708984376,0.5719606018066407,0.8010213375091553,-1.7184518575668335,0.2039619237184524,-20.87828063964844,-123.971435546875,-277.5951538085937
1699734636,-0.6836283874511719,6.232589263916016,0.89813232421875,0.7777511477470398,-1.569667100906372,0.2360905557870865,-20.73628234863281,-124.1543426513672,-277.0719299316406
1699734636,-0.9918374633789064,5.74086181640625,1.7140855407714846,0.7586533427238464,-1.153845191001892,0.2293879091739654,-21.25917053222656,-124.08941650390624,-277.11456298828125
1699734636,-1.456022186279297,5.385949859619141,3.325035552978516,0.7592887878417969,-0.5203819274902344,0.1655114591121673,-20.947799682617188,-124.22171020507812,-276.6749572753906
1699734636,-2.0901036071777344,5.652545471191407,5.186115417480469,0.7957738041877747,0.0681462958455085,0.0152149051427841,-21.351394653320312,-124.1552734375,-276.2855224609375
1699734636,-2.3966661071777344,6.644083557128907,6.074068908691406,0.9178198575973512,0.3889205753803253,-0.2319157868623733,-21.520538330078125,-124.29986572265624,-276.4921875
1699734636,-1.9917581176757813,7.709567871093751,6.028413848876953,1.0912342071533203,0.3266289830207824,-0.4958374500274658,-21.55426025390625,-124.78506469726562,-277.0242919921875
1699734636,-1.2698094177246095,8.444539489746095,5.105133819580078,1.1970006227493286,-0.0604708008468151,-0.7180761098861694,-22.16734313964844,-124.68405151367188,-277.0545654296875
1699734636,-0.7438032531738281,8.670120391845703,3.396736450195313,1.1531332731246948,-0.5582622289657593,-0.8993145823478699,-22.341766357421875,-125.23558044433594,-276.7690124511719
1699734636,-0.5200186157226563,8.601562957763672,1.5141014099121095,0.9609041810035706,-0.9624035358428956,-1.0312060117721558,-22.620361328125,-125.57562255859376,-276.966796875
1699734636,-0.3863465881347656,8.478967895507813,0.1175056457519531,0.7122349739074707,-1.1252273321151731,-1.096786379814148,-23.403228759765625,-126.09573364257812,-276.4721069335937
1699734637,-0.1826202392578125,8.422535247802735,-0.4397854614257813,0.4660614430904388,-1.1666176319122314,-1.171202540397644,-23.779296875,-126.56788635253906,-275.4581298828125
1699734637,0.5182223510742188,9.290280761718751,-0.9927355957031252,0.3346469700336456,-1.2108440399169922,-1.3396453857421875,-24.3648681640625,-126.93220520019533,-274.6125793457031
1699734637,1.46335693359375,11.302845611572266,-1.5551161193847658,0.2841627597808838,-1.1254470348358154,-1.5285242795944214,-25.313522338867188,-127.72477722167967,-274.0453186035156
1699734637,1.3726455688476564,13.768069152832032,-1.1984078979492188,0.1650763005018234,-0.8277688026428223,-1.6127384901046753,-25.692840576171875,-128.47100830078125,-273.1253662109375
1699734637,0.4543052673339844,16.231795806884765,-0.664617919921875,-0.0479890964925289,-0.2860027253627777,-1.5073163509368896,-26.135498046875,-128.85125732421875,-273.17333984375
1699734637,-0.8723858642578125,17.797539825439454,-0.2272274780273437,-0.1623201966285705,0.5063782334327698,-1.174264430999756,-26.961898803710938,-129.41250610351562,-272.18341064453125
1699734637,-2.1646485900878907,17.913398895263672,0.6361770629882812,-0.2019229978322982,1.182938814163208,-0.6736345887184143,-27.112472534179688,-129.74549865722656,-272.0150756835937
1699734637,-2.566113739013672,16.83983139038086,-0.0943038940429687,-0.2574501633644104,1.4949451684951782,-0.2782356142997741,-27.55572509765625,-130.18861389160156,-272.798583984375
1699734637,-1.659598846435547,16.276702423095703,-2.079775085449219,-0.2452419847249984,1.5751417875289917,-0.121553860604763,-27.497543334960938,-130.24514770507812,-272.55157470703125
1699734637,-1.2070898437500002,18.22729614257813,-2.529140625,0.0496538393199443,2.5439934730529785,-0.221159279346466,-27.153610229492188,-130.34829711914062,-272.88824462890625
1699734637,-1.3117222595214844,22.44178207397461,2.810705108642578,0.0328162685036659,5.606715679168701,-0.4708341062068939,-27.241363525390625,-130.7028350830078,-274.1777038574219
1699734637,-3.933370513916016,26.74383590698242,14.348262634277344,-1.1397335529327393,6.799464702606201,-0.7037339210510254,-26.835693359375,-130.62127685546875,-275.66851806640625
1699734637,-7.024292907714844,22.51468048095704,9.631271667480467,-2.1696889400482178,4.692323684692383,-0.6379618048667908,-25.882644653320312,-130.82418823242188,-277.94049072265625
1699734637,-5.520370330810547,14.425202636718751,-4.043840789794922,-2.390676021575928,1.50832200050354,-0.2403265833854675,-25.949432373046875,-130.94944763183594,-278.4376220703125
1699734637,-3.159928894042969,10.175090789794922,-10.337053985595704,-2.0499751567840576,-1.130659103393555,0.1311766654253006,-25.508804321289062,-131.29148864746094,-277.999755859375
1699734637,-1.670226745605469,8.701255645751953,-9.51496353149414,-1.387292504310608,-2.916423082351685,0.269202172756195,-25.970046997070312,-131.18505859375,-276.9683532714844
1699734637,-0.8499325561523438,7.952961730957032,-6.39275619506836,-0.509348452091217,-3.926285743713379,0.2507440745830536,-25.94374084472656,-131.2779541015625,-275.8551025390625
1699734637,-0.6026467895507813,7.225175170898438,-3.534899139404297,0.5207390785217285,-4.340789794921875,0.2330606877803802,-26.085861206054688,-131.3961639404297,-274.1591796875
1699734637,-0.9553134155273438,6.586603088378906,-1.4115646362304688,1.6351308822631836,-4.140537261962891,0.2922238707542419,-26.292648315429688,-131.49362182617188,-273.15924072265625
1699734637,-2.009271697998047,6.146817626953125,0.9503736877441408,2.5953469276428223,-3.251339673995972,0.4038465321063995,-26.825668334960938,-131.3030548095703,-272.1866455078125
1699734637,-3.2822245788574222,6.736591186523438,3.0204190063476566,3.0938706398010254,-1.4055509567260742,0.461525022983551,-26.610626220703125,-131.538330078125,-272.01617431640625
1699734637,-3.982019348144532,9.118887176513674,5.090015258789062,2.900709390640259,0.7885183095932007,0.3283560276031494,-26.551742553710938,-131.80934143066406,-272.3421630859375
1699734637,-4.004921722412109,11.717633056640626,4.718338165283203,2.1984639167785645,2.709760904312134,0.1575912237167358,-25.992935180664062,-131.62277221679688,-273.4002685546875
1699734637,-4.4298880004882815,12.058923339843751,2.631078643798828,1.3756399154663086,3.622512102127075,0.0731160193681716,-25.926025390625,-131.60879516601562,-274.9108581542969
1699734637,-4.6572651672363286,10.66936294555664,-0.6411167907714844,0.6665987968444824,3.524866342544556,0.0526664070785045,-25.57997131347656,-131.79379272460938,-277.3157958984375
1699734637,-4.328848114013672,9.209149475097655,-3.188968505859376,0.208886370062828,2.998647451400757,0.0796857774257659,-24.943603515625,-131.8101806640625,-278.33740234375
1699734637,-3.957919464111328,7.768545227050781,-3.3190480041503907,0.0729833990335464,2.4182560443878174,0.0964341312646865,-24.376144409179688,-131.76971435546875,-279.19989013671875
1699734637,-3.7818855285644535,6.82820068359375,-2.0047810363769534,0.213257148861885,2.037647008895874,0.0814748853445053,-23.84295654296875,-131.9228973388672,-279.7713928222656
1699734637,-4.024231567382813,6.418502655029298,0.0474513244628906,0.4378497898578644,2.044339418411255,0.0229322127997875,-23.813262939453125,-132.11941528320312,-280.6454467773437
1699734637,-4.571194152832032,6.351591796875001,2.953807525634766,0.3010461330413818,2.145608901977539,-0.092272937297821,-23.225860595703125,-132.123291015625,-281.6889038085937
1699734637,-4.758155364990235,6.491401062011719,4.991370391845703,-0.3234624862670898,1.5023466348648071,-0.222209632396698,-23.002960205078125,-132.2809600830078,-282.4044189453125
1699734637,-2.3797512817382813,6.115083618164062,3.859873352050781,-0.960488498210907,0.2274166494607925,-0.3488900661468506,-23.198287963867188,-132.32196044921875,-283.091064453125
1699734637,1.2985496520996094,6.0131455993652345,1.5858023071289062,-1.2615114450454712,-0.7688021659851074,-0.3728193938732147,-23.020904541015625,-132.4651336669922,-282.19781494140625
1699734637,2.6842181396484377,5.835165710449219,1.4425502014160156,-1.2783827781677246,-1.1376051902770996,-0.2951677143573761,-23.171371459960938,-132.63084411621094,-281.5366516113281
1699734637,2.865191802978516,6.008205871582032,2.420167236328125,-1.1779392957687378,-0.9941977262496948,-0.1601808816194534,-23.44837951660156,-132.82925415039062,-280.8380126953125
1699734637,2.6165588378906253,6.975344696044922,2.807861022949219,-1.0919791460037231,-0.7856460809707642,0.0348685011267662,-23.825515747070312,-132.7110137939453,-280.102294921875
1699734637,1.7592915344238282,8.016729125976562,1.3383668518066407,-1.0426517724990845,-0.8042373657226562,0.2617509067058563,-23.413604736328125,-132.61166381835938,-278.8988037109375
1699734637,0.6578819274902344,8.291407928466798,-0.9216334533691408,-0.9940571188926696,-0.9177801609039308,0.4339924454689026,-23.6441650390625,-132.58609008789062,-277.97479248046875
1699734637,-0.2085163879394531,7.859555969238282,-2.209555206298828,-0.9394649267196656,-0.9689839482307434,0.4998223483562469,-23.44566345214844,-132.6336212158203,-277.512451171875
1699734637,-0.7857160949707032,7.382647705078125,-2.369422760009766,-0.898481547832489,-0.8492170572280884,0.4713624715805053,-22.98544311523437,-132.14366149902344,-276.503662109375
1699734637,-1.340911560058594,7.1896989440917976,-1.8748512268066408,-0.9171900153160096,-0.4315319657325744,0.3887099325656891,-23.3199462890625,-132.31924438476562,-275.83843994140625
1699734637,-2.12483139038086,7.265441436767579,-0.8114625549316407,-0.962951362133026,0.3056001365184784,0.2671946883201599,-23.462066650390625,-132.16891479492188,-275.16510009765625
1699734637,-3.019820251464844,7.346872100830079,0.5057981872558595,-0.9989125728607178,1.257205605506897,0.0606774613261222,-22.95172119140625,-131.78599548339844,-275.24169921875
1699734637,-3.618724822998047,7.356003112792969,1.5280224609375002,-1.0303924083709717,2.247823476791382,-0.2273226380348205,-23.01475524902344,-132.05474853515625,-275.0146179199219
1699734637,-3.916904754638672,7.447163543701172,1.9600241088867187,-1.0303088426589966,2.967865467071533,-0.5276259779930115,-22.824966430664062,-131.72015380859375,-275.2172546386719
1699734637,-4.132606201171876,7.61376708984375,1.3971945190429689,-0.9447236061096193,3.0981225967407227,-0.7527685761451721,-22.710205078125,-132.13711547851562,-275.6415405273437
1699734637,-4.339925079345703,7.727979583740235,-0.2399510192871093,-0.7956952452659607,2.740107536315918,-0.837657630443573,-22.906814575195312,-131.76174926757812,-276.2049560546875
1699734637,-4.646038513183594,7.55673568725586,-1.5263758850097655,-0.6844702363014221,2.2864749431610107,-0.8272180557250977,-23.003982543945312,-132.303466796875,-276.48126220703125
1699734637,-5.0921109008789065,7.261848907470703,-1.4108161926269531,-0.7190697193145752,1.9451669454574585,-0.8292327523231506,-22.97235107421875,-132.5782012939453,-276.1370849609375
1699734637,-5.609435119628906,6.864724731445313,-0.57719970703125,-0.8672064542770386,1.708471655845642,-0.8929648399353027,-22.96205139160156,-132.93930053710938,-277.0744934082031
1699734637,-6.097570037841797,6.357878723144531,0.3441343688964844,-1.1052567958831787,1.6157286167144775,-1.0434129238128662,-23.362350463867188,-133.2255859375,-277.2376403808594
1699734637,-6.635102233886719,5.979315948486328,1.8027012634277344,-1.3002042770385742,1.4900811910629272,-1.2348697185516355,-22.848403930664062,-133.08604431152344,-277.26934814453125
1699734637,-7.3920780944824225,6.334527282714844,3.3570689392089847,-1.1196773052215576,0.8675923347473145,-1.3635225296020508,-23.009078979492188,-133.31527709960938,-277.0572509765625
1699734637,-8.10085418701172,8.260721740722657,3.37173843383789,-0.7228740453720093,-0.3352203369140625,-1.394299864768982,-23.4908447265625,-133.98292541503906,-276.8234558105469
1699734637,-7.978558502197266,10.914702758789064,1.755249938964844,-0.5438896417617798,-1.58161461353302,-1.3695135116577148,-24.16119384765625,-134.30038452148438,-276.3337097167969
1699734637,-7.205715637207032,12.824281768798828,0.583187255859375,-0.6274505853652954,-2.4890899658203125,-1.33317232131958,-24.478179931640625,-134.9674530029297,-276.0097045898437
1699734637,-6.227948913574219,13.710738372802735,0.5969586181640625,-0.7879372239112854,-2.877671718597412,-1.383525252342224,-24.83798217773437,-135.57386779785156,-274.3243408203125
1699734637,-4.783153381347656,14.088103637695314,1.5621514892578126,-0.970220983028412,-2.7017831802368164,-1.5244966745376587,-25.163864135742188,-136.0433807373047,-272.84967041015625
1699734637,-3.5534605407714848,14.651831359863282,2.895129547119141,-1.1150051355361938,-2.048901557922364,-1.6513103246688845,-25.82073974609375,-136.42449951171875,-271.8612976074219
1699734637,-3.0593380737304687,15.343992004394533,4.198319549560547,-1.1680781841278076,-1.0355161428451538,-1.699909806251526,-26.190185546875,-137.2219696044922,-270.7301330566406
1699734637,-2.874921569824219,16.169076232910157,5.400769042968751,-1.1422404050827026,-0.0679236575961113,-1.6846059560775757,-26.73870849609375,-137.64402770996094,-270.01519775390625
1699734637,-2.6873616027832035,16.832047576904298,5.935756530761719,-1.021069049835205,0.671707272529602,-1.5772364139556885,-27.26483154296875,-138.51849365234375,-270.1862487792969
1699734637,-2.368824005126953,16.978892211914065,5.660029907226563,-0.8288260698318481,1.0870922803878784,-1.3575706481933594,-27.453277587890625,-139.0274658203125,-270.4789733886719
1699734637,-2.2529649353027343,16.988023223876954,4.605472869873047,-0.6285749673843384,1.2057090997695925,-1.0217819213867188,-27.618667602539062,-139.42283630371094,-270.88623046875
1699734637,-2.3932232666015625,17.071699218750002,3.454665985107422,-0.4915734529495239,1.0052671432495115,-0.6186041235923767,-28.02354431152344,-139.7740936279297,-270.8066711425781
1699734637,-2.606829071044922,16.659157104492188,2.6602679443359376,-0.4099598228931427,0.6295997500419617,-0.2973818778991699,-27.5787353515625,-139.90280151367188,-270.9185485839844
1699734637,-2.9264144897460938,14.69673797607422,2.595003662109375,-0.3918159604072571,0.3932130634784698,-0.0808229446411132,-28.038604736328125,-139.95887756347656,-270.9184875488281
1699734637,-4.305047607421876,11.661050720214844,3.08478515625,-0.3922032117843628,0.1995946019887924,-0.008758071810007,-27.60382080078125,-140.1185760498047,-270.77880859375
1699734637,-5.672753448486328,9.947713623046877,2.741249542236328,-0.3647297620773315,-0.1040228083729744,-0.0548994690179824,-27.561264038085938,-140.21705627441406,-271.358154296875
1699734637,-6.046077117919922,9.14268768310547,1.6175363159179688,-0.3182365596294403,-0.4315753579139709,-0.1142216473817825,-27.203155517578125,-140.22706604003906,-270.83624267578125
1699734637,-5.867348785400391,8.324489135742187,1.0005194091796876,-0.2389499992132187,-0.659676730632782,-0.1467417776584625,-27.26622009277344,-140.23341369628906,-271.1971130371094
1699734637,-5.404660949707032,7.44416976928711,1.2606784057617189,-0.1427965611219406,-0.7622973918914795,-0.2078368216753006,-27.28228759765625,-140.6231231689453,-270.8876953125
1699734637,-4.431684265136719,6.779551849365235,1.858235778808594,-0.074567973613739,-0.8147038221359253,-0.2927098870277405,-27.112350463867188,-140.91441345214844,-270.2130432128906
1699734637,-3.205284576416016,6.518794097900391,2.085762634277344,-0.0266073755919933,-0.8160732388496399,-0.3104611933231354,-27.078109741210938,-140.65716552734375,-270.2269897460937
1699734637,-2.255958709716797,6.396348724365235,2.0778291320800784,0.0152063835412263,-0.7313264012336731,-0.2303000539541244,-27.50962829589844,-140.725341796875,-270.09893798828125
1699734637,-1.639690246582031,6.179300079345704,2.1478834533691407,0.0606055557727813,-0.551704466342926,-0.075291022658348,-27.653152465820312,-140.9976043701172,-269.73455810546875
1699734637,-1.2184661865234376,5.8704922485351565,2.2841001892089845,0.107447899878025,-0.3223804533481598,0.1086836010217666,-27.336822509765625,-140.94146728515625,-269.4090576171875
1699734637,-0.860859832763672,5.561834106445313,2.4873774719238284,0.1449289619922638,-0.0975870117545127,0.2921250760555267,-27.08930969238281,-140.98065185546875,-269.3708801269531
1699734637,-0.4818479919433594,5.320236511230469,2.6864634704589845,0.1840734332799911,0.0834139361977577,0.4574277400970459,-27.196853637695312,-140.6396942138672,-269.9483642578125
1699734637,-0.068258056640625,5.368286590576172,2.8431875610351565,0.2335312664508819,0.1643806844949722,0.5658037662506104,-26.869369506835938,-140.8491668701172,-270.0141296386719
1699734637,0.2293231201171875,5.684728546142578,2.9388386535644533,0.3059575259685516,0.1290410757064819,0.6003063321113586,-26.47651672363281,-140.42124938964844,-269.9384155273437
1699734637,0.2183958435058594,6.113736419677735,2.958597564697266,0.3716124296188354,-0.0182839315384626,0.6597342491149902,-26.326461791992188,-140.57888793945312,-269.83917236328125
1699734637,-0.6563850402832031,6.436016235351563,2.7761270141601564,0.4279894232749939,-0.2291013598442077,0.7390897870063782,-25.97470092773437,-140.15829467773438,-270.04443359375
1699734637,-1.9258950805664063,6.618786163330078,2.5635690307617187,0.4959463775157928,-0.3987015783786773,0.8103916645050049,-26.16206359863281,-139.86557006835938,-269.64703369140625
1699734637,-2.6601182556152345,6.697821807861328,2.584076385498047,0.5795312523841858,-0.4660787582397461,0.8910660147666931,-26.09332275390625,-139.8218231201172,-270.42828369140625
1699734637,-3.149151306152344,6.642137603759766,2.779420166015625,0.6797835826873779,-0.3982552289962768,0.9646302461624146,-25.75155639648437,-139.22251892089844,-269.8392333984375
1699734637,-3.420836334228516,6.48855697631836,3.1359786987304688,0.7841070294380188,-0.1765409409999847,1.0288691520690918,-25.866378784179688,-139.11325073242188,-269.3604431152344
1699734637,-3.5483711242675784,6.269861755371094,3.623963928222656,0.8517367243766785,0.0714092031121254,1.0689969062805176,-25.606353759765625,-138.5415496826172,-269.8810729980469
1699734637,-3.5691778564453127,6.051166534423828,3.820954284667969,0.9031157493591307,0.1967788338661193,1.0694786310195925,-25.119659423828125,-138.7255401611328,-270.036376953125
1699734637,-3.488046569824219,6.01194808959961,3.533551940917969,0.9609777331352234,0.0437530726194381,1.0146079063415527,-24.70204162597656,-138.1599578857422,-270.05303955078125
1699734637,-3.272345123291016,6.212530975341797,2.737207946777344,1.0462337732315063,-0.4202524125576019,0.8861886858940125,-24.91712951660156,-138.06053161621094,-270.34375
1699734637,-2.970872039794922,6.537654876708984,1.57352783203125,1.1549341678619385,-1.0865851640701294,0.6684070825576782,-24.154312133789062,-137.51829528808594,-270.3280029296875
1699734637,-2.725382537841797,6.898255004882813,0.4113446044921875,1.268791437149048,-1.755873441696167,0.4005524814128876,-24.09217834472656,-137.50047302246094,-270.2261962890625
1699734637,-2.611469421386719,7.139702911376953,-0.3406915283203125,1.393239140510559,-2.190343141555786,0.1593851298093795,-24.26405334472656,-137.72073364257812,-270.2528686523437
1699734637,-2.728226623535156,7.1132080078125,-0.3113525390625,1.5103644132614136,-2.229217052459717,-0.0028921929188072,-24.0389404296875,-137.58885192871094,-269.60015869140625
1699734637,-2.878963165283204,6.73045394897461,0.6628216552734375,1.6053258180618286,-1.791637659072876,-0.0722387731075286,-24.169708251953125,-137.44650268554688,-269.43865966796875
1699734637,-2.8770172119140627,6.441704406738282,2.3366409301757813,1.6264464855194092,-0.9564282298088074,-0.036384105682373,-24.36607360839844,-137.6239471435547,-268.9156188964844
1699734637,-2.707270202636719,6.382427673339844,3.7941600036621095,1.5020641088485718,0.0690198168158531,0.0319435521960258,-24.168426513671875,-137.62335205078125,-269.07843017578125
1699734637,-2.5051904296875,6.507567443847656,4.486919403076172,1.208641529083252,1.061443567276001,0.0270563848316669,-24.182693481445312,-137.87808227539062,-269.9169311523437
1699734638,-2.249073028564453,6.859785003662109,4.610711975097656,0.7787978053092957,1.8419194221496584,-0.0619094409048557,-24.211746215820312,-137.76499938964844,-269.909423828125
1699734638,-2.0866607666015624,7.324269104003907,4.753814392089844,0.3227221369743347,2.234451532363892,-0.1194462329149246,-23.722702026367188,-137.67767333984375,-271.2260131835937
1699734638,-2.506387939453125,7.543563079833984,4.813839569091797,-0.0147176934406161,2.113479852676392,-0.0873026773333549,-23.811203002929688,-137.7704315185547,-271.6624755859375
1699734638,-3.033142547607422,7.519463195800782,4.2995091247558594,-0.1043202802538871,1.5324361324310305,-0.0331212021410465,-23.664337158203125,-137.7962188720703,-272.00128173828125
1699734638,-3.2663575744628908,7.510182495117188,3.300187225341797,0.065465822815895,0.6434125304222107,-0.0058152787387371,-23.60273742675781,-137.86827087402344,-272.0584716796875
1699734638,-3.401376800537109,7.457641754150391,2.0264859008789062,0.3592590987682342,-0.3229682147502899,0.0207012835890054,-23.35639953613281,-137.88758850097656,-272.72418212890625
1699734638,-3.5832485961914062,7.16155746459961,0.9765692138671876,0.6972139477729797,-1.017796754837036,0.0297656189650297,-23.248825073242188,-138.01319885253906,-272.3049621582031
1699734638,-3.345542907714844,6.768025817871094,1.0853929138183591,1.01003098487854,-1.382493257522583,-0.0031854070257395,-23.47984313964844,-137.7173309326172,-272.193359375
1699734638,-2.716700592041016,6.739135894775391,1.6304095458984376,1.1795289516448977,-1.616891622543335,-0.0589695759117603,-23.323562622070312,-137.61129760742188,-271.41339111328125
1699734638,-2.128872985839844,6.956483917236328,1.680255889892578,1.1918655633926392,-1.6966394186019895,-0.072746641933918,-23.46430969238281,-138.0569305419922,-271.4771728515625
1699734638,-1.8187179565429688,7.043902130126954,1.919757843017578,1.0620622634887695,-1.5915346145629885,-0.0649742037057876,-23.06880187988281,-138.14732360839844,-271.7808837890625
1699734638,-1.6172369384765626,7.251670074462891,2.4565415954589844,0.8205114006996155,-1.238957166671753,-0.067374512553215,-23.282272338867188,-138.2793731689453,-271.1733093261719
1699734638,-1.3668077087402344,7.819439392089844,3.271446990966797,0.4176108241081238,-0.6293579339981079,-0.0915562808513641,-23.17828369140625,-138.306396484375,-270.9926147460937
1699734638,-1.0018666076660157,8.715476074218751,4.470004577636719,-0.1748671531677246,0.369768738746643,-0.1815945655107498,-23.197677612304688,-138.32286071777344,-270.10418701171875
1699734638,-1.0704240417480468,10.915301513671876,6.338419189453125,-0.5957086682319641,1.415513277053833,-0.5581037402153015,-23.093521118164062,-138.1634979248047,-270.220947265625
1699734638,-2.805765380859375,14.320869598388672,6.203998718261719,-0.4484182596206665,2.0141286849975586,-1.1041550636291504,-22.80389404296875,-138.71421813964844,-270.5154724121094
1699734638,-4.739444274902344,15.88421859741211,3.7889208984375,-0.0163336992263793,1.7126573324203491,-1.459001064300537,-22.941940307617188,-138.46922302246094,-270.7269897460937
1699734638,-6.155050506591797,15.803536376953126,-0.2571652221679688,0.2501328885555267,0.7842657566070557,-1.464590549468994,-23.039276123046875,-139.05894470214844,-271.6839294433594
1699734638,-7.0078271484375,15.086377716064456,-3.8490957641601566,0.3071455657482147,-0.0786716416478157,-1.173494815826416,-23.497146606445312,-139.5333251953125,-271.6732177734375
1699734638,-7.045249328613282,14.47025894165039,-4.546345825195313,0.2687659561634063,-0.5184588432312012,-0.6556561589241028,-23.61083984375,-140.0492401123047,-271.8946838378906
1699734638,-5.933810577392578,13.19131851196289,-3.627107391357422,0.2519584596157074,-0.4679568111896515,-0.1004837304353714,-23.372772216796875,-140.3014678955078,-271.80224609375
1699734638,-4.088148651123047,11.622281341552736,-2.233355712890625,0.2611173391342163,-0.1368332207202911,0.2187363356351852,-23.544219970703125,-139.9644317626953,-271.4600830078125
1699734638,-2.5797354125976564,11.554622039794925,-1.086291046142578,0.2272352874279022,0.5018226504325867,0.212811067700386,-23.494674682617188,-140.17665100097656,-270.8226928710937
1699734638,-2.0904029846191405,14.520404663085936,0.5442681884765626,-0.101828895509243,2.0329997539520264,-0.2286939024925232,-23.18994140625,-139.94850158691406,-271.66412353515625
1699734638,-3.6826419067382816,20.24554916381836,4.535119171142578,-1.3067470788955688,4.319828987121582,-0.9855802655220032,-23.032470703125,-140.2228240966797,-271.8756103515625
1699734638,-7.273973693847656,23.18648345947265,8.847501525878906,-2.7039389610290527,4.8980326652526855,-1.4188930988311768,-23.254119873046875,-139.9250946044922,-272.757568359375
1699734638,-10.459798736572266,18.28926727294922,5.289250946044922,-2.7393815517425537,3.327988624572754,-1.1000051498413086,-23.201187133789062,-140.78128051757812,-274.0403747558594
1699734638,-9.314829711914063,11.438164215087893,-1.0163864135742189,-1.8132169246673584,0.7831986546516418,-0.4151226282119751,-22.8125,-140.90289306640625,-275.1171264648437
1699734638,-6.588399353027344,7.853867797851563,-4.9088919067382815,-0.8132801055908203,-1.3486692905426023,0.1637239456176757,-22.80258178710937,-140.95327758789062,-274.66705322265625
1699734638,-4.236939239501953,6.7174310302734375,-5.4214260864257815,-0.04101587459445,-2.704162120819092,0.4324853718280792,-22.760711669921875,-140.56910705566406,-273.6752319335937
1699734638,-2.775378570556641,7.1244346618652346,-4.3894720458984375,0.5556203722953796,-3.3652615547180176,0.4973591864109039,-22.22601318359375,-140.58131408691406,-272.96551513671875
1699734638,-2.267784118652344,7.232509918212891,-3.057242431640625,1.0631070137023926,-3.5396981239318848,0.4486568868160248,-22.40975952148437,-140.31382751464844,-272.22802734375
1699734638,-2.231409759521485,7.209008789062499,-1.9957997131347656,1.4767630100250244,-3.4556918144226074,0.3911182284355163,-22.45668029785156,-140.59075927734375,-270.8930053710937
1699734638,-2.8409422302246097,7.347171478271485,-1.49209716796875,1.7282533645629885,-2.789987087249756,0.414908230304718,-22.36849975585937,-140.3196258544922,-269.9398803710937
1699734638,-3.983366546630859,8.12630126953125,0.1686991882324219,1.7425092458724976,-0.9236364364624025,0.4225776195526123,-22.147293090820312,-140.1426544189453,-270.0376892089844
1699734638,-4.5285328674316405,10.317893829345705,4.807552642822266,1.493826150894165,0.3039130270481109,0.3396702110767364,-22.1339111328125,-140.18531799316406,-270.0384216308594
1699734638,-4.850662994384765,11.799363098144532,2.202070770263672,1.1137670278549194,0.8868741989135742,0.319526344537735,-22.013641357421875,-139.87786865234375,-269.609375
1699734638,-5.740263061523438,11.050769805908203,-0.4676275634765625,0.7805905938148499,0.9619287252426147,0.3535932302474975,-21.538864135742188,-139.46746826171875,-271.065185546875
1699734638,-6.458768920898438,9.92675720214844,-1.6784596252441406,0.5742946863174438,0.8729690313339233,0.3710076212882995,-21.85078430175781,-139.4999542236328,-271.473876953125
1699734638,-6.456523590087891,9.28025161743164,-1.6374449157714843,0.5500322580337524,1.050689697265625,0.3416111171245575,-21.661300659179688,-139.65829467773438,-271.2528076171875
1699734638,-5.721252593994141,8.652756500244141,-0.1710942077636718,0.6605715155601501,1.3042237758636477,0.2906312942504883,-21.74935913085937,-139.52459716796875,-272.4317626953125
1699734638,-5.069058837890625,8.387957153320313,0.5189707946777344,0.7447987794876099,1.3683111667633057,0.246211364865303,-21.63681030273437,-139.5116424560547,-272.87225341796875
1699734638,-4.800666961669922,8.128845977783204,-0.1396595764160156,0.7385867238044739,1.2852429151535034,0.1955718994140625,-21.272628784179688,-139.8285369873047,-273.2655639648437
1699734638,-4.744982757568359,7.942184143066407,-0.6149212646484375,0.6142889857292175,1.1965960264205933,0.1065051406621933,-20.879119873046875,-139.49754333496094,-273.777099609375
1699734638,-4.849465484619141,7.909701690673828,-0.1833686828613281,0.4044457376003265,1.1020309925079346,0.0150631051510572,-21.08296203613281,-139.46388244628906,-274.5064697265625
1699734638,-5.062622222900391,7.870183868408204,0.9671388244628908,0.1730902940034866,0.8206877112388611,-0.0070003853179514,-21.0408935546875,-139.30615234375,-275.4482421875
1699734638,-4.52943099975586,7.60942611694336,1.8447637939453123,0.0401527471840381,0.239580363035202,-0.0953243896365165,-20.788818359375,-139.31166076660156,-275.8669128417969
1699734638,-2.052681427001953,7.669900360107422,2.118245086669922,0.0086629968136549,-0.3775717914104461,-0.1835274845361709,-20.70416259765625,-139.55877685546875,-275.693603515625
1699734638,0.0136216735839843,7.753576354980469,2.2830523681640624,0.0220267381519079,-0.7609833478927612,-0.1689472049474716,-20.590545654296875,-139.15492248535156,-275.78131103515625
1699734638,0.6641688537597656,7.43174560546875,2.3342459106445315,-0.0013076120521873,-0.8028296232223511,-0.0477880276739597,-20.896209716796875,-139.4111328125,-275.78619384765625
1699734638,0.7361691284179688,7.345824279785156,2.276316375732422,-0.0884742066264152,-0.5926904678344727,0.1190899014472961,-21.0208740234375,-139.14849853515625,-275.17706298828125
1699734638,0.67300048828125,7.653284912109376,2.019300842285156,-0.2165996879339218,-0.3924649953842163,0.2578360736370086,-20.778823852539062,-139.2789306640625,-275.1090393066406
1699734638,0.3852987670898438,8.300688629150391,0.9201365661621094,-0.3385815024375915,-0.3983218073844909,0.2972809374332428,-20.37733459472656,-139.42886352539062,-274.75665283203125
1699734638,-0.3995191955566406,8.966953125,-0.8321195983886719,-0.4031192362308502,-0.4644776582717895,0.2944252490997314,-20.520065307617188,-139.0574493408203,-274.6453552246094
1699734638,-1.8821859741210936,9.072783050537112,-1.773212585449219,-0.4671346843242645,-0.3709626197814941,0.2778971195220947,-20.363296508789062,-138.97821044921875,-274.0917053222656
1699734638,-3.42966796875,8.78448257446289,-1.4662010192871096,-0.5847915410995483,0.0532317943871021,0.2391412109136581,-20.50115966796875,-138.9856414794922,-274.1175537109375
1699734638,-4.659959564208985,8.604706420898438,-0.1657054138183593,-0.7368055582046509,0.940097987651825,0.1772885024547577,-20.51313781738281,-138.77708435058594,-274.16217041015625
1699734638,-5.694009246826172,8.269852752685548,2.0924986267089847,-0.8353018164634705,1.813696026802063,0.132840871810913,-19.94444274902344,-138.3943328857422,-273.6424560546875
1699734638,-6.231391754150391,7.5803865051269534,2.963686981201172,-0.8475552797317505,2.0138421058654785,0.1529280245304107,-19.798065185546875,-138.50718688964844,-273.7704162597656
1699734638,-5.628146209716797,6.570287017822266,1.3582754516601565,-0.8028120398521423,1.5884543657302856,0.1919217705726623,-19.563003540039062,-138.2884979248047,-274.7113647460937
1699734638,-4.270768890380859,6.1891795349121095,-0.1282832336425781,-0.7320260405540466,0.9742623567581176,0.209134042263031,-19.506271362304688,-138.0599822998047,-274.7909545898437
1699734638,-3.526815948486328,6.578819274902344,-0.2832110595703125,-0.6217532753944397,0.5049305558204651,0.1812430173158645,-18.919647216796875,-138.01358032226562,-275.17071533203125
1699734638,-3.615880737304688,7.622299346923828,0.3347039794921875,-0.4494150876998901,0.2635943591594696,0.1560061126947403,-18.77325439453125,-138.1205291748047,-274.6283569335937
1699734638,-4.729265441894532,8.744515686035157,0.8232879638671875,-0.2759879231452942,0.1947974562644958,0.1140781044960022,-18.80551147460937,-137.73812866210938,-274.27996826171875
1699734638,-5.826184387207031,9.197922821044925,0.890797576904297,-0.1938357800245285,0.1506853848695755,0.0657164305448532,-18.59295654296875,-137.34133911132812,-274.6141967773437
1699734638,-6.577621765136719,8.906927947998048,0.4581971740722656,-0.2479855716228485,0.0236874856054782,-0.0142029039561748,-18.248992919921875,-137.74130249023438,-274.38446044921875
1699734638,-6.760541381835938,8.060887298583985,-0.2445913696289062,-0.360473483800888,-0.1671117544174194,-0.133913055062294,-18.416732788085938,-137.55345153808594,-274.63604736328125
1699734638,-6.348298645019532,6.8548452758789065,-0.4553530883789062,-0.4275819659233093,-0.3994488716125488,-0.2306443899869918,-18.60311889648437,-137.5019989013672,-274.68426513671875
1699734638,-5.691165161132813,5.595663757324219,-0.3115022277832031,-0.440119594335556,-0.6520131826400757,-0.2730736136436462,-18.40687561035156,-137.47537231445312,-274.08160400390625
1699734638,-4.995561676025391,4.621040496826172,-0.1279838562011719,-0.4127034246921539,-0.890709638595581,-0.2489387094974517,-18.646224975585938,-137.20472717285156,-273.9364624023437
1699734638,-4.239034881591797,4.156706085205078,-0.0672102355957031,-0.3563088476657867,-1.0828518867492676,-0.2158476114273071,-18.72943115234375,-137.27415466308594,-273.69989013671875
1699734638,-3.423530731201172,4.747228088378907,-0.1106199645996093,-0.3064014613628387,-1.1331439018249512,-0.2569537758827209,-18.66493225097656,-137.2051239013672,-273.5661315917969
1699734638,-2.8735743713378907,6.450086975097657,0.0110769653320312,-0.2629466652870178,-0.956378698348999,-0.3404039144515991,-18.9398193359375,-136.88426208496094,-272.6740417480469
1699734638,-2.8436366271972657,8.364456024169922,0.3384461975097656,-0.2325059473514557,-0.6366454362869263,-0.389983981847763,-18.74105834960937,-137.0792236328125,-272.5145263671875
1699734638,-3.2021411132812503,9.653275909423828,0.32811767578125,-0.2747151851654053,-0.3240989744663238,-0.4089374244213104,-18.849578857421875,-137.0531768798828,-272.4960632324219
1699734638,-3.690575408935547,10.261012115478517,0.0878672790527343,-0.4622541964054107,-0.0455507077276706,-0.4228604435920715,-19.01885986328125,-136.87075805664062,-272.2955322265625
1699734638,-4.172573089599609,10.30861312866211,0.0673599243164062,-0.7229099869728088,0.1947545707225799,-0.4130999445915222,-19.231964111328125,-136.97433471679688,-272.37860107421875
1699734638,-4.547094268798828,9.559870147705077,0.3047662353515625,-0.9341031908988952,0.3242816627025604,-0.414977490901947,-19.23056030273437,-137.21629333496094,-272.59539794921875
1699734638,-4.508923645019531,8.285869445800781,0.5969586181640625,-1.0724546909332275,0.3657947480678558,-0.4766009151935577,-19.393112182617188,-136.97569274902344,-272.501953125
1699734638,-4.029470672607422,7.381001129150391,1.0343490600585938,-1.1575688123703003,0.4335522353649139,-0.5577759146690369,-19.72274780273437,-136.7631072998047,-272.0686340332031
1699734638,-3.739673309326172,7.107669525146485,1.8160235595703127,-1.13652241230011,0.539689838886261,-0.6147446632385254,-19.90740966796875,-136.71983337402344,-271.6473388671875
1699734638,-4.143533477783203,7.897726593017579,2.528990936279297,-1.0228477716445925,0.5758041739463806,-0.6340616345405579,-19.667510986328125,-136.43234252929688,-272.4506530761719
1699734638,-4.850513305664062,9.427245941162113,2.478994903564453,-0.9189213514328004,0.4395970702171325,-0.6400574445724487,-19.9345703125,-136.65887451171875,-272.18572998046875
1699734638,-5.205125885009766,10.381810913085936,1.8778450012207035,-0.9135244488716124,0.181877389550209,-0.7069374322891235,-20.021774291992188,-136.7915802001953,-272.51568603515625
1699734638,-5.258265380859375,10.722652130126953,1.3192066955566406,-1.0131951570510864,-0.0905405506491661,-0.8472205400466919,-20.06166076660156,-136.66798400878906,-272.3222045898437
1699734638,-5.429209899902344,10.965746612548829,1.3397140502929688,-1.192628264427185,-0.3072078824043274,-1.0435985326766968,-20.403488159179688,-136.52890014648438,-272.214599609375
1699734638,-5.8634568786621095,11.432176666259766,1.8910176086425785,-1.3828998804092407,-0.409641295671463,-1.2645652294158936,-20.704605102539062,-136.75152587890625,-271.4312744140625
1699734638,-6.291566619873048,12.040811004638671,2.763702850341797,-1.5388938188552856,-0.4017519652843475,-1.4974284172058103,-20.736053466796875,-137.0065460205078,-271.2427673339844
1699734638,-6.670728149414063,12.55319549560547,3.611988830566408,-1.6122037172317505,-0.3790437281131744,-1.7045516967773438,-21.39208984375,-137.3518829345703,-270.9257507324219
1699734638,-6.882687377929688,12.49332000732422,3.979324951171875,-1.5935746431350708,-0.4347301423549652,-1.8430110216140747,-21.66961669921875,-137.78639221191406,-270.852783203125
1699734638,-6.766678619384766,11.686797180175782,3.809727630615235,-1.4795126914978027,-0.5224325656890869,-1.8985984325408936,-22.295822143554688,-137.8441162109375,-269.5924377441406
1699734638,-6.278693389892578,10.62565383911133,3.951931915283204,-1.3244640827178955,-0.5435266494750977,-1.8745402097702024,-22.728256225585938,-138.34732055664062,-269.6459655761719
1699734638,-5.658982086181641,10.420580291748047,4.997956695556641,-1.043804168701172,-0.5096768140792847,-1.7563259601593018,-23.26425170898437,-138.78073120117188,-269.15057373046875
1699734638,-5.004842376708985,11.680360565185548,5.946534118652344,-0.6123997569084167,-0.6262947916984558,-1.561825156211853,-23.8331298828125,-139.0459442138672,-268.6434326171875
1699734638,-4.359384613037109,13.19985076904297,5.229824523925782,-0.2744970619678497,-0.9070923924446106,-1.290894627571106,-24.068878173828125,-139.8715057373047,-268.6176147460937
1699734638,-4.095184020996094,13.508209533691408,3.601510620117188,-0.1917076557874679,-1.0882952213287354,-0.9965218305587769,-24.529998779296875,-140.14576721191406,-268.3292236328125
1699734638,-3.884571990966797,13.076956329345704,2.6536816406250003,-0.2810545861721039,-0.950550377368927,-0.7075427770614624,-24.860504150390625,-140.1474151611328,-267.50103759765625
1699734638,-3.531306610107422,12.037068786621097,2.47166015625,-0.3840384781360626,-0.4912605285644531,-0.486778974533081,-25.08709716796875,-140.5560302734375,-267.40301513671875
1699734638,-3.1232551574707035,10.593321075439452,2.501298522949219,-0.4538601636886596,0.0897048488259315,-0.3205820024013519,-24.93159484863281,-140.9589080810547,-267.2172241210937
1699734638,-2.93868896484375,9.079818420410156,2.325414276123047,-0.4870167970657348,0.5371214747428894,-0.1850548088550567,-25.1922607421875,-140.8059539794922,-267.5751953125
1699734639,-3.2961456298828127,7.813302154541016,1.9946022033691408,-0.4859605729579925,0.7980542778968811,-0.0490863211452961,-25.193817138671875,-140.6131134033203,-267.5814208984375
1699734639,-4.094585266113281,7.17832260131836,1.9423608398437504,-0.4140328764915466,0.9631436467170716,0.0879224017262458,-25.249496459960938,-140.73873901367188,-267.71112060546875
1699734639,-4.9581394958496094,7.132218475341797,2.4408242797851565,-0.253221333026886,1.0637820959091189,0.2336239367723465,-24.915283203125,-140.7736053466797,-268.2413635253906
1699734639,-5.519172821044922,7.204967193603516,3.204236755371094,-0.0434553325176239,1.0392885208129885,0.3752942681312561,-24.74766540527344,-140.85638427734375,-268.4945678710937
1699734639,-5.501659240722656,7.167245635986329,3.63369369506836,0.1719927936792373,0.8310204744338989,0.4506100416183471,-24.634841918945312,-140.47544860839844,-269.1116943359375
1699734639,-4.6994773864746096,7.2546638488769535,3.4158966064453127,0.3427674770355224,0.4952835142612457,0.4926683008670807,-25.01458740234375,-140.28480529785156,-268.7889404296875
1699734639,-3.974385223388672,7.23101303100586,2.891537017822266,0.4458169043064117,0.1787313967943191,0.5742230415344238,-24.77577209472656,-140.18148803710938,-269.6802978515625
1699734639,-3.776796112060547,6.634503479003906,2.5643174743652346,0.494515985250473,-0.0414401181042194,0.6917020082473755,-24.480499267578125,-139.96958923339844,-269.537841796875
1699734639,-3.7175193786621095,5.838608551025391,2.417622528076172,0.5208773016929626,-0.1618589460849762,0.7990822792053223,-24.38427734375,-139.7099151611328,-269.59979248046875
1699734639,-3.626209259033203,5.253774719238281,2.424508209228516,0.5528661012649536,-0.2060002982616424,0.8846757411956787,-24.208465576171875,-139.47145080566406,-269.469482421875
1699734639,-3.620371398925781,5.014272766113281,2.60862533569336,0.6176011562347412,-0.21356101334095,0.963847517967224,-24.204833984375,-139.0696258544922,-270.2469177246094
1699734639,-3.8742434692382814,4.908442840576172,3.000660095214844,0.7237294912338257,-0.2267090380191803,1.0262227058410645,-23.8758544921875,-138.83689880371094,-270.07373046875
1699734639,-4.243824920654297,5.127138061523437,3.499273223876953,0.8720571398735046,-0.2385497242212295,1.0577561855316162,-23.631820678710938,-138.52316284179688,-269.8759155273437
1699734639,-4.6128076171875,5.492677917480469,4.034111022949219,1.0543595552444458,-0.2164577394723892,1.0520710945129397,-23.145660400390625,-138.0002899169922,-270.091796875
1699734639,-4.850812683105469,5.769003295898438,4.588857421875001,1.2395238876342771,-0.1473870575428009,1.0155916213989258,-23.18212890625,-137.52981567382812,-270.0111083984375
1699734639,-5.030139770507812,5.831872558593751,4.694387969970704,1.4006041288375854,-0.0790809690952301,0.948986291885376,-22.89508056640625,-137.61488342285156,-271.0547180175781
1699734639,-5.038372650146485,5.598657531738281,3.925287322998047,1.486067533493042,-0.0935286208987236,0.8959811329841614,-22.71888732910156,-137.050537109375,-271.0201721191406
1699734639,-4.782404937744141,5.1783316040039065,2.5765919494628906,1.4113086462020874,-0.3464215993881225,0.8681550621986389,-22.1181640625,-136.88272094726562,-271.7633056640625
1699734639,-4.490511932373047,5.279670867919922,0.9514215087890624,1.2640718221664429,-0.7482622265815735,0.8164862990379333,-22.358428955078125,-137.0087432861328,-271.8856811523437
1699734639,-4.131109313964844,5.815257110595703,-0.1067280578613281,1.117414474487305,-1.1574018001556396,0.7588448524475098,-22.052719116210938,-136.15646362304688,-272.021240234375
1699734639,-3.831881561279297,6.264173583984375,-0.3838018798828125,1.027141571044922,-1.4381331205368042,0.6973662972450256,-21.959213256835938,-135.80014038085938,-272.6246337890625
1699734639,-3.746109924316407,6.686445465087891,-0.0128732299804687,1.0246707201004028,-1.488972306251526,0.6161566972732544,-21.673416137695312,-135.79151916503906,-272.330078125
1699734639,-3.766018524169922,7.102879486083984,0.7932005310058594,1.097153902053833,-1.329892873764038,0.5227676033973694,-21.99815368652344,-135.7823028564453,-271.98638916015625
1699734639,-3.861968994140625,7.525899810791016,1.6428337097167969,1.2395318746566772,-1.0070536136627195,0.4357650578022003,-21.776107788085938,-135.49009704589844,-271.8773193359375
1699734639,-3.878135375976562,7.8321629333496094,2.5033941650390625,1.431370496749878,-0.5248904228210449,0.3761523365974426,-21.759201049804688,-135.20111083984375,-271.6405639648437
1699734639,-3.749852142333985,8.046068115234375,3.450175323486328,1.5847795009613037,0.1214462667703628,0.344856709241867,-22.244461059570312,-135.6779022216797,-272.2895202636719
1699734639,-3.4982254028320314,8.023614807128906,4.6201423645019535,1.5745806694030762,0.8659332394599915,0.3418444097042084,-21.649078369140625,-135.3270721435547,-272.78045654296875
1699734639,-3.0886770629882814,7.780670013427735,5.6396722412109375,1.307399868965149,1.4718109369277954,0.3373759090900421,-21.66326904296875,-135.44435119628906,-273.388916015625
1699734639,-2.698288879394531,7.582033081054688,5.608686676025391,0.8302471041679382,1.6507017612457275,0.3095333576202392,-21.398178100585938,-135.15467834472656,-274.6217041015625
1699734639,-2.4444168090820315,7.436236267089844,4.587061157226563,0.2999614179134369,1.4398380517959597,0.2704461514949798,-21.117843627929688,-134.70899963378906,-275.2416381835937
1699734639,-2.264341278076172,7.2019734191894536,3.955973510742188,-0.0811901912093162,0.9111585021018982,0.2174303233623504,-20.99859619140625,-134.8562774658203,-275.2233581542969
1699734639,-2.3465203857421875,6.721173248291016,3.28357177734375,-0.2319661229848861,0.1696652024984359,0.1452421396970749,-20.91548156738281,-134.70010375976562,-276.232666015625
1699734639,-2.77582763671875,6.168073425292969,2.1582119750976565,-0.1948339343070984,-0.6656491160392761,0.09562798589468,-20.612274169921875,-134.4026336669922,-276.6105041503906
1699734639,-3.3317715454101564,5.835465087890626,1.012943572998047,-0.0342892631888389,-1.4932641983032229,0.1035069525241851,-20.78480529785156,-133.90579223632812,-276.58721923828125
1699734639,-3.7440142822265625,5.650898895263672,0.1178050231933593,0.2332404404878616,-2.141377687454224,0.1315447092056274,-20.989425659179688,-134.01658630371094,-276.661376953125
1699734639,-3.857029266357422,5.543572082519532,-0.1487905883789062,0.5866184830665588,-2.489271402359009,0.1468490958213806,-21.176681518554688,-133.95184326171875,-275.6434631347656
1699734639,-3.730841674804688,5.445525970458984,0.3020718383789063,0.9956232905387878,-2.517018318176269,0.1538089960813522,-21.554443359375,-133.78118896484375,-275.4683837890625
1699734639,-3.4952316284179688,5.358856201171875,1.0594967651367189,1.393783450126648,-2.2862741947174072,0.1009942591190338,-21.526275634765625,-133.63186645507812,-275.3187255859375
1699734639,-3.037483520507813,5.616021423339844,1.7380357360839844,1.6933515071868896,-1.904354333877564,-0.0248342435806989,-22.067886352539062,-133.24588012695312,-274.7066955566406
1699734639,-2.480641479492188,6.445746002197266,2.170636138916016,1.7665681838989258,-1.4030784368515017,-0.1626440435647964,-22.073562622070312,-133.50454711914062,-274.90509033203125
1699734639,-2.027084655761719,7.567962341308594,2.558479614257813,1.496819257736206,-0.8545972108840942,-0.2409143447875976,-22.57612609863281,-133.47889709472656,-275.1029663085937
1699734639,-1.6699273681640625,8.569978637695312,2.8253746032714844,0.8813920617103577,-0.4232612550258636,-0.2493381947278976,-22.615982055664062,-133.8471221923828,-275.50262451171875
1699734639,-1.4108161926269531,9.150321807861328,2.511477355957032,0.1918240338563919,-0.048625860363245,-0.305663526058197,-22.70953369140625,-134.00100708007812,-275.46649169921875
1699734639,-1.184337158203125,9.426048431396486,2.4601341247558595,-0.3575884997844696,0.5385257601737976,-0.5238078236579895,-23.176422119140625,-133.88357543945312,-275.96759033203125
1699734639,-0.9557624816894532,9.896819458007814,3.753893737792969,-0.526227593421936,1.4003037214279177,-0.8309214115142822,-23.32383728027344,-133.7259979248047,-276.1278686523437
1699734639,-1.3810281372070312,11.114387512207031,5.435047760009766,-0.3874326646327972,2.086155891418457,-1.0108270645141602,-23.61737060546875,-134.0247802734375,-276.59161376953125
1699734639,-3.134032745361328,12.563374328613282,4.896916809082032,-0.2208950966596603,2.275951385498047,-1.0020726919174194,-24.00010681152344,-134.13381958007812,-277.263427734375
1699734639,-5.114564208984375,13.56583969116211,2.875819702148437,-0.1722995936870575,1.971696615219116,-0.8554731011390686,-23.979507446289062,-134.3638153076172,-279.017333984375
1699734639,-6.575675811767579,14.165642395019532,0.7758366394042969,-0.2060500979423523,1.4337269067764282,-0.6248987317085266,-24.34722900390625,-134.6405487060547,-279.31036376953125
1699734639,-7.332951049804688,14.69973175048828,-0.7080276489257813,-0.2759706079959869,0.9053333401679992,-0.3101381659507751,-23.971923828125,-134.5682373046875,-280.15582275390625
1699734639,-7.195387115478516,14.92336669921875,-1.4431489562988282,-0.3672259449958801,0.456820011138916,0.0478785745799541,-24.262619018554688,-134.3600311279297,-280.5486755371094
1699734639,-6.157146148681641,13.934523010253908,-2.1880000305175784,-0.4138190150260925,0.1573171913623809,0.3015372157096863,-24.02352905273437,-134.59292602539062,-280.92236328125
1699734639,-4.770579528808594,12.411290588378908,-2.49800537109375,-0.3539466261863708,-0.1839402765035629,0.3866534233093261,-24.4404296875,-134.11473083496094,-280.67999267578125
1699734639,-3.796255645751953,11.503129119873048,-2.808908843994141,-0.2106733471155166,-0.6509698033332825,0.3776889741420746,-24.03207397460937,-133.8919219970703,-280.6152648925781
1699734639,-3.853287048339844,12.140952758789064,-3.054697723388672,-0.1143002063035965,-0.8824424147605896,0.3149385154247284,-23.985092163085938,-133.60531616210938,-281.2354736328125
1699734639,-5.485343170166016,15.168856201171875,-1.861977996826172,-0.2670199871063232,0.4396205246448517,-0.1141454800963401,-24.256668090820312,-133.5368194580078,-281.498291015625
1699734639,-7.676187286376954,19.55174194335937,4.306544494628906,-0.5751897692680359,2.686983346939087,-0.690678060054779,-23.9698486328125,-133.4351043701172,-280.64361572265625
1699734639,-10.71905960083008,20.44523391723633,8.494385833740235,-0.77728271484375,3.3969242572784424,-0.8979252576828003,-23.868392944335938,-133.40269470214844,-280.5012512207031
1699734639,-11.49654281616211,15.833623809814451,3.146157531738281,-0.7894336581230164,2.289268732070923,-0.7309991121292114,-23.77532958984375,-133.21189880371094,-282.5738830566406
1699734639,-9.661359100341798,11.547586669921875,-3.358266448974609,-0.5740483403205872,0.4896759688854217,-0.3277597725391388,-23.850372314453125,-133.4011993408203,-282.9088134765625
1699734639,-7.597600708007813,8.452772369384766,-5.942791900634766,-0.1838585138320922,-1.1004942655563354,0.0738550499081611,-23.749832153320312,-133.3477783203125,-283.109130859375
1699734639,-5.464835815429688,6.397845611572266,-5.403613128662109,0.2748270332813263,-2.2382030487060547,0.338429182767868,-23.45663452148437,-133.2194061279297,-283.20977783203125
1699734639,-3.778891754150391,5.514831848144532,-4.166435852050782,0.7068786025047302,-2.952877998352051,0.4589534699916839,-23.950225830078125,-133.03573608398438,-282.4496459960937
1699734639,-2.911894683837891,4.983885955810547,-2.977608032226563,1.0700708627700806,-3.2325775623321533,0.4774392545223236,-24.229782104492188,-132.861572265625,-281.84033203125
1699734639,-2.5665628051757814,4.522096252441407,-1.5711328125,1.2684404850006104,-2.6270322799682617,0.4792222380638122,-24.57012939453125,-133.072998046875,-281.1454467773437
1699734639,-2.551743621826172,4.304149475097656,1.4772779846191406,1.1874417066574097,-0.8197633028030396,0.4660326838493347,-24.91621398925781,-132.83108520507812,-279.637939453125
1699734639,-2.969674530029297,5.9444384765625005,5.888005828857422,0.9762269854545592,0.7790622115135193,0.2242658585309982,-24.742355346679688,-132.80426025390625,-280.872802734375
1699734639,-3.755690002441407,9.964329071044922,5.108277282714844,0.8219878673553467,1.3695484399795532,-0.0102803343906998,-24.85546875,-132.79071044921875,-280.8558349609375
1699734639,-4.9211663818359375,11.457174682617188,1.135089569091797,0.689864993095398,1.3075354099273682,-0.0604462996125221,-24.597640991210938,-133.06959533691406,-281.4776611328125
1699734639,-6.24860595703125,11.188034362792967,-1.4841636657714845,0.5194991230964661,1.0064465999603271,0.1016882807016372,-24.42254638671875,-133.09353637695312,-282.2874755859375
1699734639,-7.111711120605469,10.399773559570312,-2.688559112548828,0.3119112849235534,0.771381676197052,0.3486067056655884,-24.109161376953125,-133.53395080566406,-283.1767578125
1699734639,-7.286098480224609,9.653575286865236,-2.580932922363281,0.1536468118429184,0.8760702610015869,0.4586056470870971,-24.301025390625,-133.26951599121094,-283.3709716796875
1699734639,-6.269113311767579,8.749156036376954,-0.9222322082519532,0.0848429873585701,1.1832027435302734,0.3965393602848053,-23.862808227539062,-133.03378295898438,-284.8365783691406
1699734639,-5.073549499511719,8.035739593505859,0.7967930603027344,0.0480777807533741,1.4414907693862915,0.2781959474086761,-23.40586853027344,-133.1276092529297,-284.7447814941406
1699734639,-4.509672088623047,7.414531402587891,1.5811619567871094,0.0182293374091386,1.4610567092895508,0.1544572114944458,-23.36312866210937,-133.1016082763672,-284.6986694335937
1699734639,-4.186793518066406,6.961423645019532,1.657353515625,-0.0536839999258518,1.1309784650802612,0.0495523735880851,-22.714263916015625,-132.7202911376953,-285.2178955078125
1699734639,-4.214186553955078,6.723119201660157,1.2070898437500002,-0.1545602828264236,0.5372543931007385,-0.0265360027551651,-22.69525146484375,-132.6767578125,-285.8653564453125
1699734639,-4.483027496337891,6.511758728027344,0.705333251953125,-0.2143423855304718,-0.1326523125171661,-0.040198553353548,-22.293960571289062,-132.82171630859375,-286.62274169921875
1699734639,-4.623884582519532,6.2331880187988284,0.5195695495605469,-0.2058066874742508,-0.7071424722671509,0.0161922853440046,-22.343063354492188,-133.09576416015625,-286.105224609375
1699734639,-4.400549011230469,5.765111389160157,0.7729925537109376,-0.206349179148674,-1.0271178483963013,0.0880718007683754,-22.429168701171875,-133.0701904296875,-286.06500244140625
1699734639,-3.736829223632813,5.170248413085938,1.7654287719726562,-0.3093354701995849,-0.9840750098228456,0.1332712322473526,-22.82064819335937,-132.79042053222656,-286.35498046875
1699734639,-2.510728912353516,4.740043029785157,3.567082214355469,-0.4494028389453888,-0.6173478960990906,0.1936722695827484,-23.22840881347656,-132.80052185058594,-285.85302734375
1699734639,-0.9650431823730468,5.128335571289063,5.241200866699219,-0.4796022772789001,-0.0641563460230827,0.2712796926498413,-23.02549743652344,-132.67581176757812,-285.642333984375
1699734639,-0.0740959167480468,6.640341339111329,5.512736206054687,-0.3873685002326965,0.4329098761081695,0.3221103847026825,-23.247344970703125,-132.60589599609375,-285.07342529296875
1699734639,-0.3320095825195313,8.410111083984376,3.754791870117188,-0.3088041841983795,0.6629865169525146,0.3648810386657715,-22.927276611328125,-132.0811767578125,-285.4505615234375
1699734639,-1.288071441650391,9.333690490722656,0.9870474243164064,-0.3161830008029938,0.4989165961742401,0.3882545232772827,-22.676025390625,-132.14324951171875,-285.8836669921875
1699734639,-2.3240670776367187,9.594747619628906,-1.6515156555175785,-0.371751457452774,0.0479518137872219,0.3767342269420624,-22.457061767578125,-131.7655487060547,-286.2883605957031
1699734639,-3.117866363525391,9.519154815673827,-3.333418121337891,-0.4453862607479095,-0.4012835025787353,0.3430359065532684,-22.240951538085938,-131.79159545898438,-286.31378173828125
1699734639,-3.823199615478516,8.778644714355469,-3.5387910461425784,-0.5102222561836243,-0.6419427394866943,0.2879606783390045,-22.3583984375,-131.59886169433594,-286.647216796875
1699734639,-4.355492706298828,7.478298797607422,-2.722688140869141,-0.6886764168739319,-0.4637942910194397,0.1291635781526565,-22.353973388671875,-130.86492919921875,-285.77667236328125
1699734639,-4.568350067138672,6.403384094238281,-1.1671229553222655,-1.1326807737350464,0.4509139060974121,-0.1676598340272903,-22.6732177734375,-131.32118225097656,-284.963134765625
1699734639,-4.8844926452636726,5.500012664794922,1.5093113708496095,-1.520638346672058,1.649675965309143,-0.476961225271225,-22.67999267578125,-130.76820373535156,-284.883544921875
1699734639,-5.2452424621582034,4.6482838439941405,3.0262568664550784,-1.5336498022079468,2.225419521331787,-0.7044620513916016,-22.686798095703125,-130.58961486816406,-285.5318298339844
1699734639,-5.093009033203125,4.228406982421875,1.535357208251953,-1.3127295970916748,2.137480974197388,-0.8091567754745483,-22.79656982421875,-130.74307250976562,-285.5345153808594
1699734639,-4.914729766845704,4.119134216308594,-0.1402583312988281,-1.0622625350952148,1.683146834373474,-0.7960643768310547,-22.46029663085937,-130.4095458984375,-286.32623291015625
1699734639,-5.122647399902344,4.352349243164063,-0.8336164855957031,-0.9461185932159424,1.1558140516281128,-0.7388319969177246,-22.421875,-130.7383270263672,-287.3067626953125
1699734639,-5.732479248046875,5.021757202148438,-0.6451583862304687,-1.012184977531433,0.702870786190033,-0.7578112483024597,-22.768325805664062,-130.7318878173828,-287.8460693359375
1699734639,-6.50247802734375,6.110742645263672,0.0871188354492187,-1.198514103889465,0.3503697216510772,-0.8786482214927673,-22.723556518554688,-130.36729431152344,-287.7220458984375
1699734639,-7.230863342285157,7.014563140869141,0.967587890625,-1.3722898960113523,0.0798562169075012,-1.0521944761276243,-23.00843811035156,-130.78660583496094,-287.66961669921875
1699734640,-7.636968841552735,7.121889953613282,1.8241067504882813,-1.3805522918701172,-0.1659128069877624,-1.2301963567733765,-23.453903198242188,-130.87986755371094,-288.6462097167969
1699734640,-7.721842346191407,6.591393127441407,2.3772065734863284,-1.308608889579773,-0.4715185165405273,-1.403190851211548,-23.666015625,-130.9055938720703,-287.8785400390625
1699734640,-7.630232849121094,6.084696807861328,2.473905487060547,-1.398791790008545,-0.7237257361412048,-1.5972005128860474,-24.77821350097656,-131.36215209960938,-287.32720947265625
1699734640,-7.794740753173828,6.583759002685548,2.575544128417969,-1.5667152404785156,-0.8087162375450134,-1.8164665699005127,-24.92596435546875,-131.8112030029297,-287.5570678710937
1699734640,-8.155490570068359,8.202792205810548,2.9452752685546875,-1.6615229845046997,-0.6910218596458435,-2.0240933895111084,-25.685791015625,-131.60562133789062,-287.4669189453125
1699734640,-8.344248046875,10.249336395263672,3.603157196044922,-1.7514950037002563,-0.4379096925258636,-2.1623780727386475,-26.528594970703125,-132.50067138671875,-286.4928283691406
1699734640,-8.278983764648437,11.79352523803711,4.243974609375,-1.861069917678833,-0.1453984677791595,-2.1910362243652344,-27.307174682617188,-132.72531127929688,-286.1788330078125
1699734640,-7.911797332763673,12.38898696899414,4.3294468688964844,-1.9147813320159912,0.0649230703711509,-2.119504451751709,-28.16415405273437,-133.54083251953125,-285.9197082519531
1699734640,-7.221582641601563,12.319830780029298,3.989952850341797,-1.8379489183425903,0.1846484094858169,-1.989790081977844,-28.900466918945312,-133.68312072753906,-285.6541442871094
1699734640,-6.296206970214844,12.130474548339844,3.823798370361328,-1.627277970314026,0.1777228564023971,-1.8011480569839478,-29.64584350585937,-134.28152465820312,-285.53204345703125
1699734640,-5.69820053100586,12.126133575439454,3.752247161865234,-1.3303896188735962,-0.0382363349199295,-1.5774803161621094,-29.95492553710937,-134.62124633789062,-285.0606384277344
1699734640,-5.412444763183594,12.300520935058596,3.406765594482422,-1.0370745658874512,-0.3724524080753326,-1.307626485824585,-30.39295959472656,-135.04270935058594,-284.6324157714844
1699734640,-5.052742767333984,12.267140350341798,2.8925848388671875,-0.8234310150146484,-0.516447901725769,-1.0113133192062378,-30.76719665527344,-135.65371704101562,-284.94488525390625
1699734640,-4.488565979003907,11.934232635498049,2.884801025390625,-0.6652123332023621,-0.405789315700531,-0.7505019307136536,-31.310348510742188,-135.9557647705078,-284.9283447265625
1699734640,-3.9749839782714846,11.819421386718751,3.336411895751953,-0.5403961539268494,-0.0460396632552146,-0.5631568431854248,-31.52265930175781,-135.9377899169922,-284.5370483398437
1699734640,-3.799548797607422,12.355307006835938,4.1077578735351565,-0.4237773716449737,0.481294721364975,-0.4088764488697052,-32.01866149902344,-136.40940856933594,-284.4013671875
1699734640,-4.504882049560547,13.37708221435547,4.806355133056641,-0.3110534846782684,0.9780037999153136,-0.2665150463581085,-31.997604370117188,-136.69598388671875,-284.64556884765625
1699734640,-5.871240692138672,13.827645263671876,4.814737701416016,-0.2137471735477447,1.1849732398986816,-0.2088751792907714,-32.03594970703125,-136.66249084472656,-284.2070007324219
1699734640,-6.759343872070313,12.2577099609375,3.756139068603516,-0.1368012577295303,1.0468367338180542,-0.2443543523550033,-32.05274963378906,-136.5085906982422,-285.3084716796875
1699734640,-6.796316986083985,9.561367034912111,2.305954742431641,-0.072158083319664,0.7323642373085022,-0.3207292854785919,-31.8648681640625,-136.5821990966797,-285.7523193359375
1699734640,-6.779402160644532,7.455396423339844,1.3558804321289064,-0.0299871936440467,0.3738718628883362,-0.3270636200904846,-31.66705322265625,-136.6188201904297,-286.4906616210937
1699734640,-6.983278198242187,6.001619567871094,0.9553134155273438,0.013816213235259,0.0848336666822433,-0.2534090876579284,-31.636016845703125,-136.8159637451172,-286.71826171875
1699734640,-7.294630737304688,5.154082031250001,1.0253677368164062,0.0938745662569999,-0.0725072249770164,-0.0851375311613082,-31.65365600585937,-136.86927795410156,-286.08111572265625
1699734640,-7.574398956298828,4.596641235351563,1.5311659240722657,0.2276443392038345,-0.0834339037537574,0.1594317406415939,-31.81561279296875,-137.01882934570312,-286.4760131835937
1699734640,-7.710615692138672,4.181853790283204,2.321672058105469,0.4240593910217285,0.0082382224500179,0.4285204708576202,-31.96356201171875,-136.7904052734375,-286.7797241210937
1699734640,-7.610773315429688,3.9616616821289066,3.1596295166015627,0.6542896628379822,0.1380215138196945,0.6384028792381287,-31.55921936035156,-136.9315643310547,-287.386474609375
1699734640,-7.247029724121094,4.217030639648438,3.673660583496094,0.8747072815895081,0.2018934488296508,0.7165759205818176,-31.504135131835938,-137.12576293945312,-287.18585205078125
1699734640,-6.659800872802735,5.069058837890625,3.647465057373047,1.0572733879089355,0.126922532916069,0.714830219745636,-31.650680541992188,-136.5830841064453,-287.81109619140625
1699734640,-6.045927429199219,5.742807769775391,3.100652160644531,1.188012719154358,-0.0593253746628761,0.7156209349632263,-31.44129943847656,-136.87693786621094,-288.1371459960937
1699734640,-5.598657531738281,5.876330108642579,2.3998095703125,1.285130739212036,-0.3050089180469513,0.7714735269546509,-31.03076171875,-136.86978149414062,-288.62615966796875
1699734640,-5.418731689453125,5.709876251220703,1.8302439880371093,1.390275239944458,-0.6036658883094788,0.8787291646003723,-30.920700073242188,-136.70606994628906,-289.3592529296875
1699734640,-5.364993438720704,5.432652740478516,1.4995816040039065,1.5230426788330078,-0.9004424810409546,0.993521511554718,-30.934783935546875,-136.66331481933594,-289.66619873046875
1699734640,-5.144501953125,5.277874603271485,1.538949737548828,1.6541370153427124,-1.0500545501708984,1.0823336839675903,-31.010086059570312,-136.70970153808594,-289.39471435546875
1699734640,-4.530778198242188,5.397475891113282,1.9752923583984376,1.7511043548583984,-0.9021705985069276,1.1089376211166382,-30.69224548339844,-137.1027069091797,-289.5071105957031
1699734640,-3.5920802307128907,5.898184661865234,2.618804168701172,1.813488841056824,-0.4249662160873413,1.0709010362625122,-30.727569580078125,-136.72276306152344,-289.98199462890625
1699734640,-2.5524920654296874,6.418352966308594,3.047362976074219,1.7779998779296875,0.1952549815177917,1.002711296081543,-30.822341918945312,-137.0030059814453,-290.04071044921875
1699734640,-1.676663360595703,6.939569091796876,2.925067291259766,1.6665118932724,0.7479476928710938,0.9404212832450868,-30.29365539550781,-137.1411590576172,-290.3201599121094
1699734640,-1.2507989501953125,7.361092529296875,2.4016058349609377,1.503752827644348,1.0548067092895508,0.8572558164596558,-29.949951171875,-137.02365112304688,-290.9761962890625
1699734640,-1.129251708984375,7.153174896240235,1.5497273254394532,1.3157328367233276,0.9376438856124878,0.8046080470085144,-29.78657531738281,-137.16082763671875,-292.43414306640625
1699734640,-1.4409036254882812,6.523434448242188,0.667012939453125,1.1990102529525757,0.571358323097229,0.7998119592666626,-29.39886474609375,-137.32608032226562,-293.1333312988281
1699734640,-2.0088226318359377,5.982459411621094,0.5360353088378906,1.1735661029815674,0.1294016689062118,0.8038269877433777,-28.820098876953125,-137.5904083251953,-293.4512939453125
1699734640,-2.5933570861816406,5.6203623962402345,0.7333250427246094,1.2315266132354736,-0.2539273500442505,0.7918283343315125,-28.5628662109375,-137.44879150390625,-294.2894897460937
1699734640,-3.234473876953125,5.365891571044922,1.0171348571777343,1.3118289709091189,-0.5084789395332336,0.7825091481208801,-28.192794799804688,-137.86634826660156,-294.2615966796875
1699734640,-4.035907287597657,5.383854217529297,1.3528866577148435,1.3332796096801758,-0.4771053194999695,0.6479111313819885,-28.30799865722656,-138.08096313476562,-295.19677734375
1699734640,-5.241200866699219,5.962700500488282,2.1459375,1.2450940608978271,-0.1443137675523758,0.3788335919380188,-28.347381591796875,-138.62127685546875,-295.485107421875
1699734640,-6.368057556152344,6.448889465332032,2.9424311828613283,1.0204285383224487,0.3425339162349701,0.0442385673522949,-28.257568359375,-138.57644653320312,-295.59967041015625
1699734640,-6.964567108154297,6.581064605712891,3.2251931762695314,0.7138752341270447,0.8379322290420532,-0.3115730583667755,-28.17762756347656,-138.7554473876953,-296.0478515625
1699734640,-7.232809295654297,6.646478576660156,3.231929168701172,0.446210503578186,1.2777719497680664,-0.5691843628883362,-28.139373779296875,-139.6985626220703,-296.25799560546875
1699734640,-7.392527160644532,6.329587554931641,3.354224853515625,0.2845654189586639,1.5309642553329468,-0.6423134207725525,-28.14952087402344,-139.96409606933594,-297.6123352050781
1699734640,-7.371121673583985,5.827232208251953,3.2733929443359377,0.2232551872730255,1.45489501953125,-0.5761253833770752,-27.62945556640625,-140.5062255859375,-298.33935546875
1699734640,-6.798113250732422,5.700894927978516,2.699037322998047,0.2002947479486465,1.032836675643921,-0.5747439861297607,-26.9774169921875,-140.59378051757812,-298.91461181640625
1699734640,-5.021308135986328,6.538103942871094,1.7929714965820314,0.2094243317842483,0.3306857645511627,-0.6134431958198547,-26.834716796875,-141.67454528808594,-299.83331298828125
1699734640,-3.3956886291503907,7.525301055908203,0.7620652770996094,0.2181310057640075,-0.4115321636199951,-0.5384613275527954,-26.628143310546875,-141.70419311523438,-300.3670654296875
1699734640,-2.8464807128906253,7.937693481445313,0.0356259155273437,0.2710647881031036,-0.8417996764183044,-0.3293840289115906,-26.9820556640625,-142.2650146484375,-300.6454162597656
1699734640,-3.1255004882812503,7.863148498535157,0.4165837097167969,0.4234324991703033,-0.8266159296035767,-0.1183138564229011,-27.439117431640625,-142.72421264648438,-300.24468994140625
1699734640,-3.516487426757813,7.613916778564453,1.6552578735351564,0.6050880551338196,-0.5390546917915344,0.026235332712531,-27.69429016113281,-142.9918670654297,-300.5858764648437
1699734640,-3.6744090270996095,7.154971160888672,2.8309130859375,0.7029618620872498,-0.1449707746505737,0.1174648478627204,-28.300506591796875,-143.27294921875,-300.4794311523437
1699734640,-3.3426988220214846,6.525829467773438,3.6022590637207035,0.6510344743728638,0.2094395160675048,0.179110899567604,-28.302032470703125,-143.55734252929688,-300.21685791015625
1699734640,-2.921774139404297,5.8668997192382815,3.6889288330078127,0.5045505166053772,0.4131641387939453,0.1995642483234405,-28.151687622070312,-143.9795684814453,-301.3168334960937
1699734640,-2.994522857666016,5.367089080810548,2.861449584960938,0.3394896388053894,0.4504382610321045,0.1616983562707901,-28.005691528320312,-144.3184356689453,-301.3084716796875
1699734640,-3.726351013183594,5.444627838134766,1.5621514892578126,0.2294196039438247,0.2663672268390655,0.0181550346314907,-27.491867065429688,-144.64956665039062,-302.15924072265625
1699734640,-4.38093978881836,6.698270874023438,0.1874102783203125,0.2727018296718597,-0.2318156510591507,-0.2927730083465576,-27.692138671875,-144.3567352294922,-302.8334350585937
1699734640,-5.303920440673829,8.833879852294922,-1.6422349548339843,0.3686246275901794,-0.8335526585578918,-0.6352478265762329,-27.68421936035156,-144.94232177734375,-302.9727783203125
1699734640,-6.68494857788086,10.164462890625,-2.917732543945313,0.4234889447689056,-1.4338970184326172,-0.9532721042633056,-27.59442138671875,-145.45120239257812,-303.0588073730469
1699734640,-7.716004486083984,11.52198989868164,-3.556753692626953,0.399693876504898,-1.7759684324264526,-1.1406420469284058,-28.525421142578125,-146.1233367919922,-303.0296325683594
1699734640,-8.64796646118164,12.594509582519532,-3.353626098632813,0.3153555691242218,-1.5374926328659058,-1.092329025268555,-29.16436767578125,-146.75405883789062,-302.48663330078125
1699734640,-9.633367309570312,13.209131469726564,-2.2088067626953127,0.2304630279541015,-0.2639501690864563,-0.8269439935684204,-30.1392822265625,-147.6953887939453,-302.2947998046875
1699734640,-10.47431854248047,13.79336654663086,0.4293072509765625,0.1451039314270019,1.5909055471420288,-0.4451843798160553,-30.67494201660156,-148.17098999023438,-301.5084228515625
1699734640,-11.246862030029298,14.745237121582033,2.295626220703125,-0.014724351465702,2.5140373706817627,-0.0650269389152526,-30.527328491210938,-148.46292114257812,-302.0276184082031
1699734640,-11.32080825805664,14.994618530273438,-0.3225791931152343,-0.2421780079603195,2.125650644302368,0.2278704494237899,-30.22938537597656,-148.83824157714844,-302.8861694335937
1699734640,-9.841883697509768,13.37947723388672,-3.911965026855469,-0.359732061624527,1.2468640804290771,0.3230518102645874,-29.290313720703125,-148.84715270996094,-304.07354736328125
1699734640,-7.227719879150391,10.783874816894532,-4.427492980957031,-0.3793542385101318,0.5319661498069763,0.2728799879550934,-28.294174194335938,-148.85775756835938,-304.72711181640625
1699734640,-5.926625518798828,9.10017608642578,-2.57464599609375,-0.5275442600250244,0.5866624116897583,0.0034740935079753,-27.606369018554688,-148.61309814453125,-305.099609375
1699734640,-6.92205551147461,9.92211685180664,1.5238311767578123,-1.0676815509796145,1.2026022672653198,-0.4291148781776428,-27.75630187988281,-148.42782592773438,-305.8127746582031
1699734640,-9.565857696533202,12.413086853027345,4.979844360351563,-1.4217966794967651,1.239542007446289,-0.5860430002212524,-27.18516540527344,-148.5334014892578,-306.2298583984375
1699734640,-11.245814208984376,12.01237014770508,3.1659164428710938,-1.179037094116211,0.6347404718399048,-0.3273743987083435,-26.79669189453125,-148.15135192871094,-306.8856811523437
1699734640,-10.484048309326171,9.771080932617188,0.0818797302246093,-0.5849063396453857,-0.1929851621389389,-0.0909376293420791,-26.979782104492188,-147.98464965820312,-306.343505859375
1699734640,-7.957751770019532,9.213041381835938,-1.3665083312988282,-0.0069284797646105,-0.8732049465179443,0.0539537779986858,-26.647476196289062,-147.74525451660156,-306.46197509765625
1699734640,-6.05700439453125,9.434730377197264,-1.900298309326172,0.4525733292102813,-1.2802292108535769,0.2040085196495056,-26.89242553710937,-147.49693298339844,-306.22283935546875
1699734640,-5.209317169189453,8.998238067626952,-1.930236053466797,0.7966052889823914,-1.4460653066635132,0.3361745476722717,-27.53326416015625,-147.49171447753906,-306.243896484375
1699734640,-4.5779301452636725,8.454568634033203,-1.7920733642578126,1.0038723945617676,-1.4112045764923096,0.4546676278114319,-27.663009643554688,-147.54202270507812,-306.053466796875
1699734640,-4.115391998291016,7.871680755615235,-1.6085549926757814,1.101859211921692,-1.245226502418518,0.5506527423858643,-28.52117919921875,-147.90272521972656,-305.724853515625
1699734640,-3.8577777099609376,7.396119689941407,-1.520538024902344,1.1017686128616333,-0.9459021091461182,0.6417842507362366,-28.808425903320312,-148.3282470703125,-305.02899169921875
1699734640,-3.7344342041015626,7.149732055664063,-1.2808863830566406,0.9862524271011353,-0.504498302936554,0.6750958561897278,-29.3636474609375,-148.739013671875,-305.01776123046875
1699734640,-3.854634246826172,7.496261444091798,-0.7421566772460938,0.7493759989738464,0.0457512438297271,0.5706480145454407,-29.88447570800781,-148.48648071289062,-305.7705078125
1699734640,-4.500990142822266,8.464298400878906,-0.3637435913085938,0.4570945799350738,0.5749682188034058,0.4143337905406952,-29.76289367675781,-148.43505859375,-304.56695556640625
1699734640,-5.785618743896484,8.709338836669922,-0.235909423828125,0.1366119086742401,0.9804733991622924,0.3115842640399933,-29.327178955078125,-148.8085174560547,-305.22314453125
1699734640,-6.975195007324219,8.027207336425782,-0.2487826538085937,-0.1410777568817138,1.205920934677124,0.2337493747472763,-29.188262939453125,-148.61856079101562,-305.8007507324219
1699734640,-7.286697235107423,7.190148010253907,-0.3923341369628906,-0.3158279955387115,1.2721728086471558,0.1672893911600113,-28.36439514160156,-148.6498260498047,-306.1417541503906
1699734640,-6.968159637451172,6.423592071533204,-0.4948709106445312,-0.3793995082378387,1.2463985681533811,0.1208782196044921,-28.404205322265625,-148.69163513183594,-306.5523681640625
1699734640,-6.477779388427734,5.687722320556641,-0.3806584167480469,-0.3944828510284424,1.1885168552398682,0.0968858003616333,-27.748367309570312,-148.34136962890625,-306.80224609375
1699734640,-6.083349609375,5.134772186279297,-0.0913101196289062,-0.4350140392780304,1.0953576564788818,0.0656501129269599,-26.985382080078125,-148.36801147460938,-307.26397705078125
1699734640,-5.794300689697266,4.740492095947266,0.2076182556152344,-0.5765786170959473,0.9248663187026978,0.040925595909357,-26.760971069335938,-148.02821350097656,-307.7164611816406
1699734640,-5.463488616943359,4.446653137207031,0.47181884765625,-0.7866711616516113,0.6360251903533936,0.0377420522272586,-26.249923706054688,-147.95115661621094,-307.96612548828125
1699734640,-4.748874664306641,4.749174041748047,0.652642822265625,-0.9591689109802246,0.3953957855701446,-0.008847021497786,-25.9775390625,-147.80894470214844,-308.04022216796875
1699734640,-3.631598052978516,5.941295013427735,1.294208679199219,-1.0097202062606812,0.3160876631736755,-0.066557191312313,-25.67535400390625,-147.66893005371094,-308.41278076171875
1699734640,-3.041375427246094,6.888225860595703,2.0178039550781253,-0.9430122971534728,0.3391578197479248,-0.0966328009963035,-25.521697998046875,-147.4118194580078,-308.291015625
1699734640,-3.171155548095703,7.274572448730469,2.083517303466797,-0.8448305726051331,0.3151678144931793,-0.0619627051055431,-25.241867065429688,-147.1305389404297,-308.1250915527344
1699734640,-3.8468504333496094,7.410040740966798,1.2757969665527344,-0.7741833329200745,0.2514178454875946,0.0483480915427207,-25.445144653320312,-146.60211181640625,-307.98223876953125
1699734640,-4.76084976196289,7.397766265869141,0.3993695068359375,-0.7260754704475403,0.1647559255361557,0.1661908328533172,-25.191680908203125,-146.18870544433594,-308.130615234375
1699734641,-5.461542663574219,7.385791168212891,-0.2194436645507812,-0.6729562878608704,0.0949315726757049,0.2386498600244522,-25.058502197265625,-145.9215850830078,-308.52020263671875
1699734641,-5.805078277587891,6.976542205810548,-0.4550537109375,-0.6228185892105103,0.0338772721588611,0.2486396431922912,-25.146728515625,-145.97323608398438,-307.99615478515625
1699734641,-5.803880767822266,6.232738952636719,-0.4843927001953125,-0.6297457218170166,-0.0281397588551044,0.2020282000303268,-25.16810607910156,-145.32562255859375,-308.1001281738281
1699734641,-5.741161193847656,5.619613952636719,-0.4691244506835937,-0.7274685502052307,-0.0729128196835517,0.1186355724930763,-24.926498413085938,-145.5966033935547,-308.3763427734375
1699734641,-5.745352478027344,5.091212768554688,-0.374820556640625,-0.8794295787811279,-0.0831731855869293,0.0293504316359758,-25.13978576660156,-145.42874145507812,-308.6459655761719
1699734641,-5.835614776611329,4.558021545410156,-0.2188449096679687,-1.0125879049301147,-0.0887106955051422,-0.0428768917918205,-25.11279296875,-145.28289794921875,-307.7772827148437
1699734641,-5.9374031066894535,4.098327484130859,-0.0835263061523437,-1.0950947999954224,-0.0341553054749965,-0.0852011814713478,-25.26380920410156,-144.8640899658203,-308.1500244140625
1699734641,-6.018684082031251,3.708987121582032,0.2465373229980469,-1.108065128326416,0.0775318071246147,-0.0911557450890541,-25.043197631835938,-144.27467346191406,-307.735107421875
1699734641,-6.149362335205079,3.641926574707032,0.5638774108886719,-1.070686936378479,0.1299073994159698,-0.1305641382932663,-25.395660400390625,-144.22581481933594,-307.4606628417969
1699734641,-6.212081909179688,4.692442016601563,0.3267704772949218,-1.059999942779541,0.1530843526124954,-0.2269729673862457,-25.361099243164062,-143.6129913330078,-307.16656494140625
1699734641,-6.438710632324219,6.247109069824219,0.0609233093261718,-1.09714937210083,0.2130840420722961,-0.2569074332714081,-25.515701293945312,-143.12037658691406,-306.9036865234375
1699734641,-7.141050109863282,6.715335388183594,0.2612068176269531,-1.157576560974121,0.3461787104606628,-0.1948613673448562,-25.261749267578125,-143.13278198242188,-307.46307373046875
1699734641,-7.809260559082031,6.664441223144531,0.8300239562988282,-1.1450114250183103,0.4159247875213623,-0.0956508889794349,-25.48226928710937,-142.9606170654297,-306.92266845703125
1699734641,-7.957153015136719,6.379134521484375,1.0397378540039064,-1.0728157758712769,0.2558434903621673,-0.0839755907654762,-24.958465576171875,-142.61309814453125,-306.87353515625
1699734641,-7.362439727783204,6.007307739257813,0.7458988952636719,-1.026391863822937,-0.0771046355366706,-0.2037848234176635,-25.15782165527344,-142.59805297851562,-306.4697265625
1699734641,-6.634353790283203,5.61392578125,0.583187255859375,-1.0561652183532717,-0.407621830701828,-0.4191051125526428,-25.42059326171875,-142.08291625976562,-306.5584411621094
1699734641,-6.44544662475586,5.653593292236328,1.0614427185058597,-1.0918257236480713,-0.6406090259552002,-0.7439071536064148,-24.963150024414062,-142.0499725341797,-306.338623046875
1699734641,-6.750362548828125,6.7141378784179695,1.7556990051269532,-1.1622841358184814,-0.7904733419418335,-1.151906967163086,-25.417694091796875,-141.8732452392578,-306.0855712890625
1699734641,-7.230563964843751,8.18662582397461,2.2505699157714845,-1.3167563676834106,-0.9085919857025146,-1.5554990768432615,-26.373077392578125,-141.7928924560547,-305.10821533203125
1699734641,-7.6826239013671875,9.262588348388674,2.4298970031738283,-1.5318588018417358,-0.9701032638549804,-1.851601839065552,-26.9564208984375,-142.08140563964844,-304.7601318359375
1699734641,-8.067024536132813,9.751471710205076,2.592159576416016,-1.752437710762024,-0.8837375044822693,-2.055431604385376,-28.09931945800781,-142.16250610351562,-304.12811279296875
1699734641,-8.28482162475586,10.118807830810548,3.114872589111328,-1.9418082237243648,-0.5761392116546631,-2.152843952178955,-28.354736328125,-141.99734497070312,-302.9967956542969
1699734641,-8.495733032226562,10.696905670166016,3.870052185058594,-2.035754442214966,-0.1939108818769455,-2.129166841506958,-29.039825439453125,-142.55845642089844,-302.34552001953125
1699734641,-8.762029266357422,11.518696746826173,4.501439208984375,-1.98911201953888,0.0651595592498779,-2.001023054122925,-29.65341186523437,-142.87252807617188,-301.6485900878906
1699734641,-8.676407318115235,12.420870666503909,4.891528015136719,-1.8218709230422967,0.2167893052101135,-1.7846167087554932,-30.50830078125,-142.92115783691406,-301.14599609375
1699734641,-8.258626098632813,13.27604232788086,5.089266815185547,-1.5424158573150637,0.1683274954557418,-1.5099942684173584,-30.743911743164062,-142.777587890625,-301.326171875
1699734641,-7.785310363769532,13.686189422607423,4.909490661621094,-1.1732069253921509,-0.1124881953001022,-1.194892406463623,-31.39544677734375,-142.9410858154297,-300.241943359375
1699734641,-7.160060577392579,13.323343963623048,4.615352325439454,-0.8070472478866577,-0.2824548482894897,-0.8831172585487366,-31.5386962890625,-142.8098602294922,-299.3851928710937
1699734641,-6.271508331298828,12.640464019775392,4.734654235839844,-0.5306321978569031,-0.183241456747055,-0.6026914715766907,-31.976043701171875,-142.82810974121094,-299.3994140625
1699734641,-5.541626129150391,12.232562255859376,4.894970855712891,-0.3957609236240387,0.076356291770935,-0.3443150222301483,-31.9849853515625,-143.1748504638672,-299.0032958984375
1699734641,-5.286706237792969,12.003688201904298,4.583019561767578,-0.4201328456401825,0.3709767460823059,-0.1464176625013351,-32.31492614746094,-143.14149475097656,-298.4608154296875
1699734641,-5.382207641601563,11.285032653808594,3.7293447875976566,-0.5249330401420593,0.5533449649810791,-0.0760817155241966,-32.58197021484375,-143.31405639648438,-298.6202392578125
1699734641,-5.575904846191406,9.96373031616211,2.6262886047363283,-0.6286303997039795,0.5825648903846741,-0.1269813776016235,-32.33900451660156,-143.25196838378906,-298.62408447265625
1699734641,-5.910758514404297,8.649762725830078,1.718576202392578,-0.6924402713775635,0.5184972286224365,-0.1974209249019622,-32.073211669921875,-143.11358642578125,-298.18682861328125
1699734641,-6.446644134521485,7.555388488769531,1.1430230712890626,-0.6939433217048645,0.4867885708808899,-0.1865099519491195,-32.17903137207031,-142.84414672851562,-298.5595703125
