timestamp,acc-x,acc-y,acc-z,gyr-x,gyr-y,gyr-z,mag-x,mag-y,mag-z
1699734314,-1.1690689086914063,-1.6301101684570314,-7.924071807861329,-1.1039825677871704,0.2009062021970749,1.6389018297195437,34.291290283203125,-167.56471252441406,-306.3219299316406
1699734314,-0.16046630859375,-1.1981085205078126,-6.40233627319336,-0.3169001936912536,0.4221594929695129,1.695264458656311,34.2935791015625,-167.72134399414062,-306.250732421875
1699734314,0.7743397521972657,-0.0221539306640625,-5.02759506225586,0.4500718116760254,0.6836374402046204,1.5807485580444336,34.63307189941406,-168.4122314453125,-306.53106689453125
1699734314,1.252445526123047,-0.0031434631347656,-4.022734680175781,1.224994421005249,0.8886534571647644,1.326970100402832,34.56443786621094,-168.77565002441406,-305.73809814453125
1699734314,1.4807208251953126,-0.6165678405761719,-3.5127452087402347,1.9729591608047483,1.1538158655166626,0.9596996307373048,35.22059631347656,-170.18667602539062,-305.4685974121094
1699734314,1.4174024963378906,-1.0722203063964844,-3.26007064819336,2.742570638656616,1.3628058433532717,0.61074298620224,35.69171142578125,-171.23641967773438,-304.359375
1699734314,0.8930429077148438,-1.356628875732422,-5.474715270996094,3.071356773376465,-0.5109317302703857,0.3210280835628509,35.37306213378906,-172.5159454345703,-304.8216552734375
1699734314,0.499361572265625,-2.6072781372070315,-18.817369079589845,2.5242068767547607,-2.825808525085449,-0.1988308131694793,34.61250305175781,-173.3913116455078,-305.3998718261719
1699734314,0.7282356262207031,-1.9782861328125,-14.329701232910155,2.4687626361846924,-2.286531925201416,-1.1125794649124146,33.43132019042969,-174.0263214111328,-305.80767822265625
1699734314,1.051114196777344,-0.5659730529785156,-6.0255697631835945,2.591942548751831,-1.1738574504852295,-1.9233804941177368,32.91546630859375,-174.32833862304688,-306.0106201171875
1699734314,0.7607180786132813,-0.9234297180175782,-7.103478240966798,2.534353017807007,-1.1189321279525757,-2.3962886333465576,33.55757141113281,-174.43704223632812,-305.7933959960937
1699734314,0.44307861328125,-2.612367553710937,-11.379935302734376,1.7404532432556152,-1.5800251960754397,-2.34443998336792,33.11634826660156,-174.50904846191406,-306.6147155761719
1699734314,-1.8371296691894528,-4.217030639648438,-13.72436004638672,0.7075883150100708,-1.5194638967514038,-1.8439197540283203,32.49932861328125,-174.63621520996094,-306.518798828125
1699734314,-1.9025436401367188,-3.8751416015625,-10.537786560058594,0.1568713784217834,-0.8573551774024963,-1.3640923500061035,32.26805114746094,-174.010009765625,-306.36041259765625
1699734314,-1.7630337524414064,-3.453169097900391,-9.051976318359376,-0.083692766726017,-0.3560800850391388,-1.0219841003417969,32.47370910644531,-174.05044555664062,-305.89306640625
1699734314,-1.380878448486328,-3.5344500732421875,-9.662107543945313,-0.2198724448680877,-0.0887469127774238,-0.898097038269043,32.40089416503906,-173.48289489746094,-306.6044311523437
1699734314,-1.1512559509277345,-3.304827575683594,-10.09500732421875,-0.2846032381057739,0.1510329246520996,-0.8558118939399719,32.70880126953125,-173.1536865234375,-306.349365234375
1699734314,-1.4347663879394532,-2.8074119567871096,-9.512418823242188,-0.1959830820560455,0.0927222147583961,-0.7969788908958435,32.690460205078125,-172.93856811523438,-306.7862548828125
1699734314,-1.3678555297851562,-2.6131159973144533,-9.279353485107425,-0.1551001071929931,-0.0884481072425842,-0.7487764954566956,32.632232666015625,-172.71990966796875,-306.1923217773437
1699734314,-1.0732681274414062,-2.964884490966797,-9.361233215332032,-0.19650799036026,-0.1624903827905655,-0.7560245394706726,32.62492370605469,-172.04319763183594,-306.6381530761719
1699734314,-1.201251983642578,-3.396886138916016,-8.91186767578125,-0.3371157050132751,0.0176612846553325,-0.8359095454216003,32.910858154296875,-172.2896728515625,-307.06500244140625
1699734314,-1.244212646484375,-3.374432830810547,-8.470585327148438,-0.5660900473594666,0.2643975615501404,-0.9616876840591432,33.022247314453125,-171.52374267578125,-306.94482421875
1699734314,-0.6439608764648438,-3.2356713867187503,-9.259295196533202,-0.7285053133964539,0.3240198791027069,-1.049038052558899,33.067962646484375,-171.0096435546875,-306.72967529296875
1699734314,-0.2059716796875,-3.100053405761719,-10.487940216064452,-0.6226984858512878,0.196991354227066,-1.086931586265564,33.11723327636719,-170.58273315429688,-306.9394836425781
1699734314,-0.4457730102539062,-3.20738021850586,-10.193801879882812,-0.29289311170578,0.1356867253780365,-1.126364827156067,32.993011474609375,-170.0189208984375,-306.7372436523437
1699734314,-0.844244384765625,-3.666325836181641,-9.157207489013674,0.0187257509678602,0.0181214790791273,-1.2338536977767944,33.401397705078125,-169.98406982421875,-307.203125
1699734314,-0.5096900939941407,-3.896098022460938,-9.044791259765626,0.1759225577116012,-0.2131322473287582,-1.3877527713775637,33.67338562011719,-170.04002380371094,-307.152099609375
1699734314,0.2603086853027344,-4.251758422851562,-8.790919189453126,0.1281537115573883,-0.0602670684456825,-1.2156978845596311,33.228607177734375,-169.62591552734375,-306.8861999511719
1699734314,1.687141571044922,-6.926396484375,-7.107968902587891,-0.1658401042222976,0.7358061075210571,-0.258004367351532,33.77845764160156,-169.19252014160156,-306.723876953125
1699734314,2.797532501220703,-7.537725219726563,-7.5443115234375,-0.6986667513847351,1.0902349948883057,0.2487927675247192,33.86970520019531,-169.23826599121094,-306.8310546875
1699734314,0.5264552307128907,-2.2543121337890626,-10.3033740234375,-1.0844557285308838,0.9864401817321776,0.302752137184143,34.52653503417969,-168.5946807861328,-307.08514404296875
1699734314,-1.97589111328125,-1.6950750732421875,-9.715995483398435,-1.1240524053573608,0.9024744629859924,0.2190980017185211,34.6263427734375,-168.48326110839844,-306.5697021484375
1699734314,-1.913470916748047,-2.6313780212402347,-9.750274200439453,-1.14130961894989,0.5754579901695251,0.0034405377227813,35.23399353027344,-168.01071166992188,-306.0565795898437
1699734314,-0.7696994018554688,-2.343526611328125,-10.407557373046876,-1.1437664031982422,0.5217114090919495,-0.0528751984238624,35.465911865234375,-167.58331298828125,-306.6148681640625
1699734314,-0.1344204711914062,-2.9729676818847657,-9.685159606933594,-1.011596918106079,0.6568942666053772,0.045740857720375,35.83967590332031,-167.1234893798828,-306.3719482421875
1699734314,-0.6035449218750001,-2.808160400390625,-9.438921661376952,-0.7658303380012512,0.6626277565956116,0.1289561241865158,36.19015502929688,-166.80726623535156,-305.96685791015625
1699734314,-0.929267578125,-1.9977456665039064,-9.56331298828125,-0.5032378435134888,0.4305678904056549,0.1754384040832519,36.26679992675781,-166.86085510253906,-305.87261962890625
1699734314,-0.5354365539550782,-1.8136285400390624,-9.949659576416016,-0.2352079898118972,0.0484844446182251,0.2075739651918411,36.2733154296875,-166.41693115234375,-305.98590087890625
1699734314,0.28500732421875,-2.255659332275391,-9.790540466308594,0.0516442842781543,-0.2640910446643829,0.2388211041688919,36.20187377929688,-166.79107666015625,-305.8192749023437
1699734314,0.8955876159667969,-2.443967742919922,-9.475296020507812,0.2852514386177063,-0.4484254717826843,0.1873890608549118,36.16819763183594,-166.80706787109375,-305.77056884765625
1699734314,1.1686198425292968,-2.242486724853516,-9.21992706298828,0.4091185331344604,-0.4726764559745788,0.0625922754406929,35.60395812988281,-167.11306762695312,-305.98394775390625
1699734314,1.044228515625,-2.501897277832031,-9.389823760986328,0.3140796422958374,-0.4017437100410461,-0.0250188000500202,35.52552795410156,-167.19615173339844,-306.11590576171875
1699734314,0.4875361633300781,-2.7873536682128908,-9.7573095703125,0.0976852774620056,-0.3231676816940307,-0.0550286322832107,35.396392822265625,-167.0913543701172,-306.244384765625
1699734314,-0.1263372802734375,-2.63736557006836,-9.879754943847656,-0.1038875132799148,-0.2531475722789764,-0.0084558026865124,35.3037109375,-167.21910095214844,-306.81884765625
1699734314,-0.4240681457519532,-2.628384246826172,-9.752818908691406,-0.1767651885747909,-0.0362376309931278,0.0598265826702117,35.39314270019531,-167.0338134765625,-306.730712890625
1699734314,-0.36643798828125,-2.668650512695313,-9.513616333007812,-0.1204952523112297,0.1459880918264389,0.112901784479618,35.37959289550781,-167.1403045654297,-306.67193603515625
1699734314,-0.7990383911132813,-2.171983337402344,-9.492659912109376,0.0115898102521896,0.1248362064361572,0.1311415135860443,35.28041076660156,-167.1728973388672,-305.89605712890625
1699734314,-0.8397537231445313,-1.9495458984375,-9.537117462158202,0.1518880724906921,-0.0102904541417956,0.0862310230731964,35.46549987792969,-167.10919189453125,-305.90771484375
1699734314,-0.18920654296875,-2.238894195556641,-9.491911468505862,0.1891257166862487,-0.0622572489082813,-0.0147499172016978,35.674560546875,-167.15625,-305.79400634765625
1699734314,0.4580474853515625,-2.7574159240722658,-9.099876708984375,0.1470435112714767,0.0624884106218814,-0.045615155249834,35.53839111328125,-167.2848358154297,-305.965576171875
1699734314,0.7488926696777344,-3.237018585205078,-8.943901062011719,0.0536496452987194,0.2453836649656295,-0.0259788706898689,35.380767822265625,-167.2000274658203,-305.87628173828125
1699734314,0.6426136779785157,-3.284170532226563,-9.150770874023438,-0.0246635340154171,0.3031473457813263,-0.0162042696028947,35.5140380859375,-167.1686553955078,-306.3890991210937
1699734314,0.2555186462402344,-2.810555419921875,-9.394314422607424,-0.0567090846598148,0.2496367245912552,-0.0180130880326032,35.8516845703125,-166.82534790039062,-306.3401794433594
1699734314,-0.16046630859375,-2.622097320556641,-9.505682830810548,0.002453570254147,0.2008153945207595,-0.0055665392428636,36.06455993652344,-167.0610809326172,-306.67388916015625
1699734314,-0.2281256103515625,-2.8136988830566407,-9.45838119506836,0.1213432028889656,0.1656864285469055,-0.0250078812241554,36.08265686035156,-167.32858276367188,-305.93182373046875
1699734314,-0.32332763671875,-2.482288055419922,-9.610015869140623,0.2512306272983551,0.1640358120203018,-0.026290725916624,35.85015869140625,-167.2853240966797,-306.1440124511719
1699734314,-0.3240760803222656,-2.3022125244140628,-9.726324005126951,0.3064435422420501,0.0799619406461715,-0.0382331386208534,35.980926513671875,-167.53111267089844,-306.2186889648437
1699734314,-0.4134402465820312,-2.2043161010742187,-10.0063916015625,0.2717023491859436,0.0146457878872752,-0.0301951859146356,36.12782287597656,-167.43484497070312,-305.52947998046875
1699734314,-0.286204833984375,-2.7857070922851563,-9.628726959228516,0.1996880769729614,0.0269746258854866,0.0031457259319722,36.45039367675781,-167.83551025390625,-305.4262084960937
1699734314,0.4228706359863281,-3.174598388671875,-9.170679473876952,0.1245001181960105,0.0947539359331131,-0.0066041066311299,36.337677001953125,-167.83221435546875,-305.5121459960937
1699734314,0.659827880859375,-3.147654418945313,-8.895252227783203,0.0627086535096168,0.1429371833801269,-0.0547836199402809,36.453399658203125,-167.60659790039062,-306.1532592773437
1699734314,-0.0038919067382812,-2.8825556945800783,-9.40479263305664,0.0347997918725013,0.1531780958175659,-0.0550115853548049,36.455963134765625,-167.5037841796875,-305.58355712890625
1699734314,-0.2624043273925781,-2.6589207458496094,-9.399104461669925,0.0152063835412263,0.2259644269943237,-0.0306564457714557,36.587188720703125,-167.7110137939453,-305.8338623046875
1699734314,-0.293389892578125,-2.638263702392578,-9.44790298461914,-0.0204456206411123,0.3609169125556946,0.0350306890904903,36.6357421875,-167.69003295898438,-305.7686767578125
1699734314,-0.3632945251464844,-2.4194187927246094,-9.647438049316406,-0.0575815364718437,0.4864601790904999,0.0461302101612091,36.64271545410156,-167.5394744873047,-305.345703125
1699734314,-0.2923420715332031,-2.206112365722656,-9.701026611328125,-0.0010804444318637,0.3405386805534363,0.0201617274433374,36.73188781738281,-167.65509033203125,-305.0868225097656
1699734314,0.2300715637207031,-2.716101837158204,-9.45748306274414,0.1181055977940559,0.0245066750794649,0.0079162465408444,36.93287658691406,-167.60546875,-305.69873046875
1699734314,0.156873779296875,-2.625091094970703,-9.474547576904298,0.2512639164924621,-0.2460654228925705,-0.0020160130225121,37.09675598144531,-168.19271850585938,-306.0526123046875
1699734314,-0.0291893005371093,-2.6878106689453127,-9.499395904541014,0.3700302541255951,-0.4147497713565826,-0.0206184592097997,36.66987609863281,-167.88006591796875,-305.4472045898437
1699734314,-0.1043330383300781,-2.900518341064453,-9.557924194335936,0.3799675703048706,-0.44557985663414,-0.0331172086298465,36.52655029296875,-168.43411254882812,-304.97332763671875
1699734314,-0.3986210632324219,-2.977608032226563,-9.715696105957033,0.2832381129264831,-0.2833392918109894,-0.0819798186421394,36.610748291015625,-168.19168090820312,-305.4912109375
1699734314,-0.4567002868652344,-2.968177642822266,-9.70551727294922,0.110221043229103,-0.0592641234397888,-0.1093067824840545,36.39117431640625,-168.0289764404297,-305.32281494140625
1699734314,-0.4951702880859375,-2.877915344238281,-9.583221588134766,-0.0236379504203796,0.1192574203014373,-0.1016217023134231,36.667388916015625,-168.44744873046875,-305.2489013671875
1699734314,-0.4067042541503906,-2.7761270141601564,-9.466165008544923,-0.0469272956252098,0.2504860162734985,-0.134602278470993,36.64947509765625,-168.11880493164062,-305.26959228515625
1699734314,-0.290994873046875,-2.6575735473632816,-9.366771697998049,0.011487279087305,0.3124593794345855,-0.1720380783081054,36.7081298828125,-167.46119689941406,-305.1848449707031
1699734314,-0.2653981018066406,-2.634671173095703,-9.497300262451173,0.0853766798973083,0.265016496181488,-0.2126297056674957,36.66334533691406,-168.55181884765625,-305.5132751464844
1699734314,0.0348774719238281,-2.4412733459472657,-9.349856872558597,0.1640576422214508,0.159216821193695,-0.307835042476654,37.2196044921875,-167.88389587402344,-305.4056396484375
1699734314,0.2360591125488281,-2.246079254150391,-9.078171844482425,0.2062027007341385,0.0203609317541122,-0.4043927490711212,36.87730407714844,-167.93170166015625,-305.39306640625
1699734314,0.1315763854980468,-2.543660430908204,-9.056916046142575,0.2128574103116989,-0.1080819964408874,-0.4791034758090973,36.70747375488281,-167.711181640625,-304.4964599609375
1699734314,0.0961001586914062,-2.8003765869140627,-9.054221649169923,0.1824760735034942,-0.2527771294116974,-0.558223307132721,37.0279541015625,-167.72793579101562,-304.918212890625
1699734314,0.010777587890625,-2.93389892578125,-8.939859466552736,0.0960048288106918,-0.3707559704780578,-0.5629544258117676,36.89347839355469,-167.5620574951172,-305.0137634277344
1699734314,-0.4390370178222657,-3.104095001220703,-8.989406433105469,0.0018857843242585,-0.3812562823295593,-0.4478816390037536,36.78179931640625,-167.6029052734375,-305.28228759765625
1699734314,-0.6703060913085938,-3.2811767578125,-9.103319549560547,-0.0459206216037273,-0.2369028180837631,-0.2578746974468231,36.593170166015625,-167.32485961914062,-305.0586242675781
1699734315,-0.6318360900878907,-3.436703338623047,-9.101223907470702,-0.1387938410043716,0.0558989532291889,-0.0030565098859369,36.64508056640625,-167.20364379882812,-305.2135009765625
1699734315,-0.2868035888671875,-3.0585896301269533,-8.940308532714845,-0.4995394945144653,0.6373839378356934,0.1911427974700927,37.121673583984375,-167.24017333984375,-305.0960693359375
1699734315,0.2170486450195312,-2.209405517578125,-8.938512268066408,-0.9252915978431702,0.7662652134895325,0.2595162689685821,37.09986877441406,-166.97764587402344,-305.0186462402344
1699734315,0.3504212951660156,-2.352058868408203,-10.12898666381836,-0.7883153557777405,0.784225583076477,0.2296667546033859,37.207611083984375,-166.46420288085938,-304.75506591796875
1699734315,-0.3839515686035156,-3.077300720214844,-9.65911376953125,-0.4712777733802795,0.5286902189254761,0.0726824626326561,37.34991455078125,-166.5645294189453,-304.4580993652344
1699734315,0.3811074829101563,-2.199675750732422,-9.653275909423828,-0.1306421607732772,0.1838206946849823,-0.0841913074254989,37.18772888183594,-166.35507202148438,-304.30303955078125
1699734315,0.7159611511230469,-2.046544189453125,-9.388626251220703,0.1160666868090629,-0.1590985804796219,-0.0239383559674024,37.48629760742188,-166.23329162597656,-304.6449584960937
1699734315,0.4668791198730469,-2.476899261474609,-9.388925628662111,0.2099191397428512,-0.268610417842865,0.0952543467283248,37.43724060058594,-166.65469360351562,-304.4098205566406
1699734315,0.4930746459960938,-2.461930389404297,-9.476194152832033,0.2180905193090438,-0.2256344556808471,0.1280186921358108,37.63606262207031,-166.76321411132812,-304.37841796875
1699734315,0.3514691162109375,-2.2784120178222658,-9.593101043701171,0.1833876669406891,-0.1792094409465789,0.131331130862236,37.24531555175781,-166.3193359375,-304.57537841796875
1699734315,0.3468287658691406,-2.4743545532226565,-9.461674346923829,0.1149260550737381,-0.1931625306606292,0.1579923033714294,37.09349060058594,-166.52488708496094,-304.6160888671875
1699734315,0.4074526977539062,-2.708467712402344,-9.240284729003909,0.0435360260307788,-0.2373840510845184,0.1995280236005783,37.54457092285156,-166.8627471923828,-304.74237060546875
1699734315,0.3778143310546875,-2.725083160400391,-9.062005462646486,-0.0215654801577329,-0.2669323682785034,0.2333032935857772,37.02362060546875,-166.88973999023438,-304.8056640625
1699734315,0.2683918762207031,-2.7116111755371097,-9.015452270507812,-0.0692879930138588,-0.1778293848037719,0.2158843576908111,36.98588562011719,-167.1116485595703,-305.1150817871094
1699734315,0.1474433898925781,-2.655926971435547,-9.013057250976562,-0.0961363837122917,-0.0733485147356987,0.0903253704309463,36.96549987792969,-166.8277130126953,-305.2989501953125
1699734315,0.025147705078125,-2.592458953857422,-9.15660873413086,-0.0927565693855285,-0.0478258468210697,-0.1001974418759346,37.08853149414063,-166.5995330810547,-304.98394775390625
1699734315,0.086220703125,-2.7080186462402347,-9.216783599853516,-0.0851085036993026,-0.0781278237700462,-0.2408357858657837,37.158782958984375,-166.94711303710938,-304.977783203125
1699734315,0.2291734313964843,-2.8298652648925784,-9.302555236816406,-0.117884024977684,-0.0812128335237503,-0.2949749231338501,36.634185791015625,-166.70790100097656,-305.29949951171875
1699734315,0.2896476745605469,-2.822081451416016,-9.231902160644532,-0.1679613143205642,-0.048964612185955,-0.2889766693115234,36.92408752441406,-166.4424591064453,-305.45196533203125
1699734315,0.2827619934082031,-2.7542724609375,-9.262738037109376,-0.202967494726181,-0.0545015931129455,-0.2266600430011749,36.718780517578125,-166.3895263671875,-305.7030639648437
1699734315,0.3794609069824219,-2.785258026123047,-9.317224731445313,-0.2201009392738342,-0.1062073931097984,-0.1457004696130752,36.93063354492188,-166.3372344970703,-305.5404052734375
1699734315,0.4659809875488281,-2.865191802978516,-9.202862548828126,-0.2179347276687622,-0.1828723400831222,-0.0979641154408454,36.95640563964844,-166.103759765625,-305.67999267578125
1699734315,0.4337979125976562,-2.811154174804688,-9.14657958984375,-0.2183288782835006,-0.2703720927238464,-0.0895623713731765,36.7730712890625,-166.0900421142578,-305.0233764648437
1699734315,0.3474275207519531,-2.754571838378906,-9.186696166992188,-0.2368397116661071,-0.355201780796051,-0.1144032776355743,36.542877197265625,-165.6728973388672,-304.8108825683594
1699734315,0.2924917602539063,-2.7990293884277344,-9.228309631347656,-0.2644050121307373,-0.370303213596344,-0.1842513382434845,36.293212890625,-165.86764526367188,-305.04278564453125
1699734315,0.2260299682617187,-2.7863058471679687,-9.354048156738282,-0.3021872937679291,-0.3272827863693237,-0.2477884888648986,36.19117736816406,-165.28817749023438,-305.3007202148437
1699734315,0.0947529602050781,-2.6902056884765626,-9.531878356933596,-0.3412792980670929,-0.2104509770870208,-0.2595325112342834,36.15411376953125,-165.43179321289062,-306.0096740722656
1699734315,-0.0961001586914062,-2.523751831054688,-9.652677154541015,-0.364174485206604,-0.0709716454148292,-0.2323749214410781,35.961822509765625,-164.96682739257812,-305.9887084960937
1699734315,-0.0799337768554687,-2.3068528747558594,-9.753417663574218,-0.3681785464286804,0.0576814040541648,-0.1986315995454788,36.10594177246094,-164.89248657226562,-305.7378845214844
1699734315,0.0868194580078125,-2.2387445068359377,-9.804461517333984,-0.3483830094337463,0.1169708296656608,-0.139998123049736,36.12080383300781,-164.55203247070312,-305.8490905761719
1699734315,0.1637594604492187,-2.255659332275391,-9.812544708251954,-0.2968598902225494,0.0835486873984336,-0.0688323304057121,35.92530822753906,-164.57106018066406,-305.9638671875
1699734315,0.2559677124023438,-2.249073028564453,-9.820777587890625,-0.2065071016550064,0.0040655815973877,-0.0135592184960842,36.20562744140625,-164.4830322265625,-305.8743896484375
1699734315,0.2320175170898437,-2.2468276977539063,-9.760902099609376,-0.0989425554871559,-0.1092386096715927,0.0320359617471694,36.11149597167969,-164.99005126953125,-305.7406616210937
1699734315,0.156873779296875,-2.2134471130371094,-9.733359375,0.0023635553661733,-0.2277242392301559,0.0502019189298152,35.95881652832031,-164.5753173828125,-305.7572326660156
1699734315,0.1342707824707031,-2.195035400390625,-9.675579528808594,0.0731535702943801,-0.3458516895771026,0.0601418986916542,36.1683349609375,-164.71693420410156,-306.135498046875
1699734315,0.0336799621582031,-2.227817230224609,-9.489666137695313,0.1002453789114952,-0.3778612911701202,0.070950873196125,35.874755859375,-164.88357543945312,-306.31689453125
1699734315,-0.0839753723144531,-2.2026695251464843,-9.310638427734377,0.0733820721507072,-0.2825592458248138,0.0893120393157005,35.74845886230469,-164.43826293945312,-306.1795959472656
1699734315,-0.2683918762207031,-2.1597088623046874,-9.36063446044922,0.0091932322829961,-0.146071195602417,0.1198297291994094,35.773101806640625,-164.81666564941406,-305.976318359375
1699734315,-0.475411376953125,-2.2043161010742187,-9.41482177734375,-0.0380312725901603,-0.0247250534594059,0.1700713336467743,35.24794006347656,-164.38536071777344,-306.3724975585937
1699734315,-0.5870791625976562,-2.243235168457032,-9.322763214111328,-0.0439070053398609,0.0213004946708679,0.2035696357488632,35.469482421875,-164.31613159179688,-306.0448913574219
1699734315,-0.7108717346191407,-2.259401550292969,-9.24567352294922,-0.0249919015914201,-0.0342328064143657,0.2070866078138351,35.704010009765625,-164.34434509277344,-306.5549621582031
1699734315,-0.8767268371582032,-2.194286956787109,-9.094188537597656,-0.0070693609304726,-0.1503932327032089,0.1949122250080108,35.58311462402344,-164.6765899658203,-306.342041015625
1699734315,-0.9550140380859377,-2.109712829589844,-8.879684600830078,0.0025939189363271,-0.3051511347293854,0.1912708878517151,35.58610534667969,-164.51416015625,-306.3876342773437
1699734315,-1.1560459899902344,-2.0820204162597657,-8.706494750976564,0.0021616879384964,-0.4969783425331116,0.2096898406744003,35.313323974609375,-164.7955780029297,-306.8533935546875
1699734315,-1.4784754943847658,-2.059567108154297,-8.469537506103515,-0.0065471152774989,-0.7483046054840088,0.2546530663967132,34.936920166015625,-164.60260009765625,-306.80615234375
1699734315,-2.031126251220704,-1.8925144958496087,-8.30832275390625,-0.0269381403923034,-1.0738472938537598,0.3320732712745666,34.485595703125,-165.00201416015625,-306.8702087402344
1699734315,-2.6840684509277346,-1.564995574951172,-8.091723175048829,-0.0213604159653186,-1.519067883491516,0.4645892381668091,33.74024963378906,-165.1988525390625,-307.1754455566406
1699734315,-3.560046844482422,-1.1079959106445314,-7.616461486816407,0.039034217596054,-2.037199020385742,0.6947622895240784,33.22685241699219,-164.74705505371094,-307.67987060546875
1699734315,-4.705315246582032,-0.8162525939941406,-6.857839050292969,0.137669175863266,-2.5358998775482178,0.9364622235298156,32.418975830078125,-165.2442626953125,-308.3336181640625
1699734315,-5.429808654785156,-0.6893165588378907,-6.103856964111328,0.2246610671281814,-3.1312992572784424,1.1108795404434204,30.650405883789062,-165.74266052246094,-308.82568359375
1699734315,-6.146218872070313,-0.4291575622558594,-5.727090454101563,0.2350207716226577,-3.869300603866577,1.300166130065918,29.513702392578125,-166.19778442382812,-309.8051147460937
1699734315,-7.392227783203126,-0.0953517150878906,-5.489235076904297,0.2729750871658325,-4.24716854095459,1.43428635597229,27.403396606445312,-166.5745391845703,-310.6073608398437
1699734315,-7.169041900634766,0.6123765563964844,-4.270469512939453,0.393503874540329,-4.63801383972168,1.3576675653457642,24.928054809570312,-166.39822387695312,-311.35186767578125
1699734315,-6.160888366699219,1.5702346801757814,-3.597019958496094,0.6454490423202515,-5.426779747009277,1.164008855819702,22.49261474609375,-167.164306640625,-312.3714294433594
1699734315,-5.81750244140625,2.086810455322266,-2.4863296508789063,1.112689971923828,-6.345400810241699,0.953250288963318,19.54414367675781,-167.82504272460938,-313.4237670898437
1699734315,-5.6979011535644535,2.507884826660157,-1.4802717590332033,1.7679908275604248,-7.328639984130859,0.7434149980545044,16.216033935546875,-168.5118408203125,-313.9562683105469
1699734315,-5.463338928222656,2.6375152587890627,-0.6869215393066407,2.567652702331543,-8.22617244720459,0.532954752445221,12.035675048828123,-169.71432495117188,-313.7570495605469
1699734315,-5.462889862060547,2.6505381774902346,0.2894979858398437,3.3462884426116943,-8.734715461730957,0.5491374135017395,7.80633544921875,-170.95652770996094,-314.15203857421875
1699734315,-5.820945281982422,2.3776556396484376,1.3138179016113285,3.902029514312744,-8.639557838439941,0.8188050985336304,3.320159912109375,-172.46534729003906,-313.25665283203125
1699734315,-6.329288177490235,2.020198974609375,1.1255094909667969,4.15323543548584,-8.362512588500977,1.3102201223373413,-0.6327362060546875,-174.45945739746094,-312.49285888671875
1699734315,-6.647676086425782,2.246079254150391,0.4040098571777344,4.045251369476318,-8.064120292663574,2.041562080383301,-5.0093994140625,-175.8784637451172,-310.6327514648437
1699734315,-6.778504028320313,2.5795857238769533,-0.7885601806640625,3.424360990524292,-7.570162296295166,2.952300548553467,-8.8382568359375,-176.97198486328125,-308.7929077148437
1699734315,-6.721622314453126,2.961291961669922,-1.7501605224609376,2.3542556762695312,-6.674950122833252,3.9663045406341553,-12.648971557617188,-177.35133361816406,-307.1405639648437
1699734315,-6.719676361083985,3.62126953125,-1.848805389404297,1.022376298904419,-5.627670764923096,4.887823104858398,-15.937347412109377,-176.5755157470703,-305.5935363769531
1699734315,-7.1877529907226565,4.23723861694336,-2.5893154907226563,-0.2389377504587173,-4.819712162017822,5.571119785308838,-18.863540649414062,-174.92062377929688,-303.81787109375
1699734315,-8.290509796142578,4.111799468994141,-3.318000183105469,-1.2192816734313965,-4.349636554718018,5.935166358947754,-21.280807495117188,-172.93626403808594,-302.3666381835937
1699734315,-9.276958465576174,3.4980757141113283,-3.988755340576172,-1.924729585647583,-4.259421825408936,5.906601905822754,-23.827438354492188,-170.2969970703125,-300.5044250488281
1699734315,-10.583291931152344,3.244203643798828,-4.999603271484375,-2.340355396270752,-4.370619773864746,5.548354148864746,-25.911209106445312,-167.20050048828125,-299.31890869140625
1699734315,-12.061617736816409,3.480562133789063,-5.730383605957032,-2.4570820331573486,-4.450809478759766,5.022443771362305,-28.448043823242188,-164.44464111328125,-297.6589660644531
1699734315,-13.079501037597655,3.8675074768066406,-6.303392028808594,-2.2983880043029785,-4.335752010345459,4.5359206199646,-29.66455078125,-161.7408905029297,-295.80914306640625
1699734315,-13.752950592041016,3.847598876953125,-6.68779266357422,-1.9240460395812988,-4.026712894439697,4.248604774475098,-31.326690673828125,-159.2977752685547,-294.1681823730469
1699734315,-13.931828613281253,3.701203308105469,-7.004084930419922,-1.3734749555587769,-3.574454069137573,4.147871971130371,-32.498321533203125,-157.2510223388672,-291.98883056640625
1699734315,-14.044544219970703,3.312461700439453,-6.7177304077148445,-0.597142219543457,-2.9982380867004395,4.219488143920898,-32.890380859375,-154.98834228515625,-290.70953369140625
1699734315,-13.894256744384766,3.428919525146485,-6.018684082031251,0.3448633849620819,-2.559356212615967,4.34032678604126,-33.47528076171875,-153.24154663085938,-289.01812744140625
1699734315,-14.034814453125,3.802991638183594,-5.698649597167969,1.3248614072799685,-2.424288511276245,4.4259467124938965,-33.448028564453125,-151.30433654785156,-287.50592041015625
1699734315,-15.006893005371095,3.5760635375976566,-5.690865783691407,2.194861888885498,-2.450653553009033,4.511723041534424,-33.48033142089844,-149.55984497070312,-286.4004821777344
1699734315,-16.35124740600586,3.2732432556152347,-5.504952392578125,2.833171129226685,-2.569765329360962,4.442587375640869,-32.832183837890625,-148.1722869873047,-285.52325439453125
1699734315,-17.152680816650392,2.951861572265625,-5.419180755615234,3.255633354187012,-2.681334972381592,4.103783130645752,-32.55455017089844,-147.25428771972656,-284.97998046875
1699734315,-17.966688079833986,2.151925048828125,-5.146896972656251,3.5055863857269287,-2.6138782501220703,3.572494506835937,-32.639892578125,-145.6870880126953,-284.3907775878906
1699734315,-18.70644973754883,1.3826747131347656,-4.529730377197266,3.5814297199249268,-2.2823917865753174,3.0230863094329834,-32.790496826171875,-145.15049743652344,-283.6146545410156
1699734315,-19.136505432128907,1.1163784790039064,-3.9534288024902335,3.5315043926239014,-1.7541842460632324,2.558218717575073,-32.48960876464844,-144.4752655029297,-283.49188232421875
1699734315,-19.34636901855469,1.0535092163085935,-3.476520538330078,3.399959087371826,-1.1283347606658936,2.20300841331482,-31.77851867675781,-143.7745819091797,-284.00506591796875
1699734315,-18.91272079467773,1.1560459899902344,-2.8972251892089846,3.2268667221069336,-0.4170126616954803,1.9050414562225344,-31.618408203125,-143.43426513671875,-283.6170349121094
1699734315,-18.278190307617187,1.2925621032714845,-2.0697459411621093,3.037740707397461,0.2497653663158416,1.5900208950042725,-31.03778076171875,-143.48988342285156,-284.3631896972656
1699734315,-17.95127014160156,1.3031900024414065,-1.3323793029785156,2.907496929168701,0.8437184691429138,1.0936614274978638,-30.67417907714844,-143.2575225830078,-285.03125
1699734315,-17.76281204223633,1.5175442504882812,-0.5809419250488281,2.727346658706665,1.4033730030059814,0.3869405388832092,-30.545913696289062,-143.76657104492188,-285.5508117675781
1699734315,-17.32976257324219,1.6694783020019532,0.7487429809570313,2.52466344833374,1.992801308631897,-0.3498299121856689,-30.575592041015625,-144.29983520507812,-287.6713562011719
1699734315,-16.665593719482423,2.034569091796876,1.820065155029297,2.155184507369995,2.445128917694092,-0.9020946621894836,-29.947280883789062,-145.054443359375,-288.65692138671875
1699734315,-16.093633117675783,3.1139744567871097,2.688259735107422,1.3907160758972168,2.86858868598938,-1.233138918876648,-29.35786437988281,-145.86837768554688,-290.002197265625
1699734315,-14.120286712646486,4.561614074707031,4.213587799072266,-0.4736740887165069,3.337331771850586,-1.1079695224761963,-28.69537353515625,-146.62249755859375,-290.9882202148437
1699734315,-12.521461486816406,5.167254638671875,5.016218719482422,-2.583137273788452,2.9814369678497314,-0.6555224657058716,-27.96356201171875,-146.7787628173828,-291.9863586425781
1699734315,-11.121123504638671,5.3334091186523445,4.674778747558594,-2.864953994750977,2.1526455879211426,-0.2916632890701294,-27.29669189453125,-146.07183837890625,-292.99188232421875
1699734315,-9.921368408203126,4.8084507751464844,9.478589172363282,-0.6675484776496887,1.9886598587036133,-0.0082131884992122,-27.086349487304688,-145.71554565429688,-293.893798828125
1699734315,-9.310189361572265,5.953719177246094,13.263019409179687,1.3499650955200195,0.7770752310752869,-0.1365876793861389,-26.848846435546875,-145.8871307373047,-294.4283447265625
1699734315,-6.869514770507813,9.589807891845702,7.955805816650391,2.3883464336395264,-0.4184238910675049,-0.5121580958366394,-26.584701538085938,-146.88502502441406,-294.46160888671875
1699734315,-6.960824890136719,8.525521087646485,6.300697631835938,2.693800926208496,-0.8673985004425049,-0.5249071717262268,-26.8603515625,-147.81082153320312,-294.65509033203125
1699734315,-8.229586486816407,6.662345581054688,4.235442352294922,2.701899766921997,-1.0322515964508057,-0.4197328388690948,-27.272872924804688,-148.56881713867188,-294.75927734375
1699734315,-8.52671859741211,5.978866882324219,0.2929408264160156,2.7831125259399414,-1.173131823539734,-0.2246983498334884,-27.46577453613281,-149.55776977539062,-294.4039306640625
1699734315,-10.15817596435547,4.207899627685547,-3.007845153808594,2.7958130836486816,-1.039844036102295,0.1842188388109207,-27.692657470703125,-150.36367797851562,-294.39129638671875
1699734316,-10.647658081054688,2.8098069763183595,-6.1981608581542975,2.006387948989868,-0.4501261413097381,0.0362203232944011,-28.029800415039062,-150.87985229492188,-294.79107666015625
1699734316,-8.606502685546875,3.795656890869141,-6.104006652832031,1.5888293981552124,-0.0510165803134441,0.0774575099349021,-28.427017211914062,-151.4230194091797,-294.2901611328125
1699734316,-10.28945297241211,2.963986358642578,-4.854105834960937,1.5739140510559082,0.1472352594137191,0.1477596312761306,-28.03413391113281,-152.22621154785156,-294.59283447265625
1699734316,-8.802594909667969,2.056124267578125,-4.1727227783203125,1.4387285709381104,0.1200438514351844,-0.1196899116039276,-28.082260131835938,-152.22445678710938,-295.1903686523437
1699734316,-8.130492553710939,1.175804901123047,-2.494412841796875,1.3171051740646362,-0.1119355857372284,-0.6664248704910278,-28.051345825195312,-153.0681610107422,-294.8901672363281
1699734316,-8.02047134399414,0.48618896484375,-0.8824150085449219,1.3086800575256348,-0.6943646669387817,-1.0182452201843262,-28.270904541015625,-153.84451293945312,-295.40020751953125
1699734316,-7.937394104003906,0.1314266967773437,-1.09452392578125,0.8632588386535645,-0.9189631342887878,-1.023407220840454,-28.38934326171875,-154.6621551513672,-294.82275390625
1699734316,-7.666756896972656,0.839304656982422,-1.230890350341797,0.3650847673416137,-0.7813437581062317,-1.0452773571014404,-28.89122009277344,-155.36778259277344,-294.4645080566406
1699734316,-7.037615203857422,1.8607804870605469,-0.5631289672851563,0.1092316806316375,-0.8158053159713745,-1.226120948791504,-29.567062377929688,-155.8408966064453,-294.19549560546875
1699734316,-6.120472412109375,2.334994354248047,-0.1679507446289062,0.0132990274578332,-1.1683080196380615,-1.4307124614715576,-29.191619873046875,-156.305419921875,-293.9783935546875
1699734316,-5.799390106201172,2.105521545410157,0.0570314025878906,-0.0436723791062831,-1.4464058876037598,-1.5505067110061646,-30.221939086914062,-156.903076171875,-293.610595703125
1699734316,-5.823489990234375,2.2098545837402344,0.2662962341308594,-0.1504148095846176,-1.6370322704315186,-1.6122153997421265,-30.640350341796875,-157.4315643310547,-292.46112060546875
1699734316,-5.641318817138672,2.574945373535156,-0.4092489624023437,-0.2528074979782104,-1.7489924430847168,-1.485977292060852,-31.158248901367188,-157.7439422607422,-291.9132385253906
1699734316,-5.487738189697266,2.831062774658203,-0.1619631958007812,-0.3638514578342438,-1.7547448873519895,-1.6633294820785522,-31.889801025390625,-158.5333709716797,-291.3365783691406
1699734316,-5.374573516845704,2.116748199462891,-0.0853225708007812,-0.6013060808181763,-1.7965748310089111,-1.7632006406784058,-32.1181640625,-159.0511932373047,-290.6875
1699734316,-5.893843688964844,1.1132350158691406,-0.2451901245117187,-0.8438452482223511,-1.7599323987960815,-1.7012640237808228,-32.24101257324219,-159.83782958984375,-289.60711669921875
1699734316,-6.52448226928711,1.6383430480957033,-0.3514691162109375,-1.074199914932251,-1.5666303634643557,-1.5964961051940918,-33.22981262207031,-160.09486389160156,-288.99591064453125
1699734316,-6.699917449951172,1.1067984008789062,-0.2260299682617187,-1.2810529470443726,-1.776047945022583,-1.676276683807373,-33.67680358886719,-160.627685546875,-287.92022705078125
1699734316,-6.616391143798828,-1.0056088256835938,0.1986369323730469,-1.2002192735671997,-1.76713764667511,-1.7491804361343384,-33.80682373046875,-160.8951873779297,-287.2793273925781
1699734316,-8.175399169921876,-0.996328125,0.5242098999023438,-1.189859390258789,-1.4963213205337524,-1.6712875366210938,-34.62828063964844,-161.55712890625,-287.0539245605469
1699734316,-8.123157806396485,-1.2201127624511718,-0.0471519470214843,-1.245459794998169,-1.1578923463821411,-1.4621195793151855,-34.706512451171875,-162.15292358398438,-286.3349609375
1699734316,-9.548044738769532,-1.1310479736328125,0.0200582885742187,-1.2476619482040403,-0.911168336868286,-1.0929222106933594,-34.97853088378906,-162.34988403320312,-286.09197998046875
1699734316,-9.07906997680664,-0.9801617431640626,-0.7875123596191407,-1.1697338819503784,-0.8310599327087402,-0.8444119691848755,-35.17915344238281,-162.43600463867188,-285.5507507324219
1699734316,-8.545729064941407,0.1920506286621094,-0.7342231750488282,-0.9961814880371094,-0.7744288444519043,-0.571137011051178,-35.5377197265625,-162.70962524414062,-285.4449462890625
1699734316,-8.301886138916016,1.3956976318359375,-0.4926255798339844,-0.8402613997459412,-0.8484445214271545,-0.4299489855766296,-35.5389404296875,-162.8047332763672,-285.13604736328125
1699734316,-7.022047576904297,2.7692413330078125,-0.3207829284667969,-0.861567497253418,-1.0637333393096924,-0.347025603055954,-35.72039794921875,-162.96295166015625,-284.60943603515625
1699734316,-7.77183837890625,3.0888267517089845,1.2350816345214843,-0.9620160460472108,-1.0212314128875732,-0.3433024883270263,-36.28752136230469,-163.0302734375,-284.4366149902344
1699734316,-8.908873901367189,2.6731411743164064,3.0826895141601565,-0.9184467792510986,-0.7585646510124207,-0.4705155789852142,-36.70243835449219,-162.73159790039062,-283.4349975585937
1699734316,-9.372908935546876,2.4962091064453125,4.066593475341797,-0.9801053404808044,-0.6781342625617981,-0.934863269329071,-36.48223876953125,-162.7704620361328,-283.8013610839844
1699734316,-9.088200988769533,3.916755065917969,2.985242156982422,-0.9981618523597716,-0.8214719891548157,-1.2210124731063845,-37.04920959472656,-163.5146026611328,-283.2873840332031
1699734316,-10.80827407836914,4.40009994506836,3.513194274902344,-0.8438444137573242,-0.6286264061927795,-1.158563256263733,-37.12425231933594,-164.2417449951172,-282.3797302246094
1699734316,-11.47408950805664,6.219266967773438,3.087479553222656,-0.7258922457695007,-0.5168567299842834,-0.7903138399124146,-37.16229248046875,-164.14683532714844,-282.41912841796875
1699734316,-11.582015075683596,7.142097930908204,2.5297393798828125,-0.9988832473754884,-0.2575468420982361,0.5265607237815857,-37.26054382324219,-164.09561157226562,-282.46990966796875
1699734316,-11.329190826416015,2.791694641113281,3.3423994445800784,-1.547688364982605,0.7299487590789795,2.323636531829834,-37.22882080078125,-163.12501525878906,-282.53564453125
1699734316,-11.530372467041015,6.80754364013672,5.087769927978516,-1.82638418674469,2.261069059371948,3.148341655731201,-37.14460754394531,-161.25559997558594,-282.87457275390625
1699734316,-10.509046325683594,7.536228332519531,4.228107604980469,-1.962358474731445,2.389068841934204,3.8945603370666495,-36.87396240234375,-159.2340850830078,-283.85308837890625
1699734316,-9.300908660888672,4.292324066162109,-0.8515791320800782,-1.5504180192947388,2.3369688987731934,4.142001628875732,-36.14805603027344,-157.04483032226562,-284.76531982421875
1699734316,-9.765542449951171,6.1469673156738285,1.450034637451172,-0.9852446913719176,2.0460596084594727,3.7947027683258057,-35.37281799316406,-154.8865509033203,-286.2286071777344
1699734316,-11.691138153076173,7.931855621337891,-0.5706134033203125,-0.6850611567497253,1.3994271755218506,3.0660228729248047,-34.93949890136719,-153.14456176757812,-286.5545654296875
1699734316,-12.45694564819336,8.308921508789062,-2.5270449829101564,-0.4821203052997589,1.0781724452972412,2.334174633026123,-34.23455810546875,-152.20416259765625,-287.5771484375
1699734316,-13.062286834716796,6.505920867919922,-3.742517395019532,-0.3324983119964599,1.103429913520813,1.76945161819458,-34.19502258300781,-150.9249725341797,-287.0521240234375
1699734316,-12.895832977294925,5.980663146972657,-4.40249496459961,-0.1014246270060539,1.0950844287872314,1.3671773672103882,-33.29579162597656,-150.1443328857422,-287.628173828125
1699734316,-12.395423583984376,5.007237396240234,-3.8579273986816407,-0.1454240381717682,1.012473702430725,1.2077232599258425,-33.06071472167969,-149.85040283203125,-288.34869384765625
1699734316,-12.661719818115236,3.951482849121094,-4.1570054626464845,-0.5655808448791504,0.4213962256908417,1.4063940048217771,-32.76715087890625,-149.1356658935547,-288.76812744140625
1699734316,-14.106215972900392,3.100053405761719,-7.247478790283203,-1.3727575540542605,-1.4934661388397217,2.0343525409698486,-32.589202880859375,-148.4257049560547,-288.5912475585937
1699734316,-13.848751373291016,2.0972886657714844,-10.020612030029298,-2.275443315505981,-4.075006008148193,2.5094997882843018,-32.68658447265625,-146.757080078125,-286.689208984375
1699734316,-10.418933715820312,1.525328063964844,-8.829688568115234,-3.3090124130249023,-6.021479606628418,3.00459098815918,-33.20770263671875,-145.21273803710938,-283.76568603515625
1699734316,-7.994126129150391,2.201921081542969,-7.315886535644531,-4.182541847229004,-7.517323017120361,3.61828088760376,-33.33283996582031,-143.20811462402344,-280.6707763671875
1699734316,-6.257437591552734,2.5487498474121093,-5.16126708984375,-4.293977737426758,-8.939583778381348,4.223297595977783,-33.5289306640625,-140.98318481445312,-276.0606384277344
1699734316,-4.353397064208985,2.238594818115234,-0.5896238708496094,-3.472085237503052,-8.882150650024414,4.5355072021484375,-33.450103759765625,-138.9854278564453,-271.2019958496094
1699734316,-1.839225311279297,3.5113980102539064,12.450509033203126,-1.2400332689285278,-2.581716537475586,3.9179024696350098,-32.506683349609375,-137.20587158203125,-268.00115966796875
1699734316,2.070045318603516,8.300838317871094,33.73325134277344,0.4413776695728302,1.9898585081100464,2.511129379272461,-31.393234252929688,-135.89028930664062,-268.50079345703125
1699734316,1.708696746826172,9.200018463134764,23.17241271972656,1.4533077478408811,1.749434232711792,1.5945234298706057,-30.99517822265625,-135.07894897460938,-269.2377319335937
1699734316,-0.8411009216308594,6.846612396240235,11.245814208984376,1.984008431434632,0.7098285555839539,1.3627989292144775,-30.591033935546875,-134.9345245361328,-270.311279296875
1699734316,-3.559897155761719,6.3468017578125,6.512656860351563,2.174006223678589,0.272307425737381,1.4420026540756226,-29.862548828125,-134.26220703125,-270.7332763671875
1699734316,-4.5920008850097656,5.849535827636719,3.0326934814453126,2.3277084827423096,-0.5020178556442261,1.513797163963318,-29.038055419921875,-133.7335968017578,-271.931396484375
1699734316,-5.622008972167969,5.417234802246094,1.227297821044922,2.432666778564453,-1.2737425565719604,1.6663899421691897,-28.950363159179688,-133.33961486816406,-271.85601806640625
1699734316,-5.519322509765625,5.036277008056641,0.9151968383789064,2.355238676071167,-2.1847567558288574,1.6617847681045532,-28.81015014648437,-132.67327880859375,-271.802734375
1699734316,-3.808230743408203,4.456532592773438,0.6741979980468751,1.9894015789031985,-3.117170572280884,1.674793004989624,-28.229476928710938,-132.51475524902344,-271.1546325683594
1699734316,-6.55082748413086,4.628075866699219,1.2783416748046876,1.4822981357574463,-3.179931402206421,2.0600547790527344,-27.79205322265625,-132.17198181152344,-271.3329467773437
1699734316,-8.464148712158204,5.196593627929688,2.638114013671875,1.0433905124664309,-2.939382314682007,2.1775553226470947,-26.947525024414062,-131.4153289794922,-270.4246826171875
1699734316,-8.603209533691407,5.714217224121094,3.6768040466308594,0.7047895789146423,-2.420778512954712,2.111883640289306,-26.614578247070312,-130.54638671875,-269.7821044921875
1699734316,-9.576934661865236,6.061944122314453,4.757406921386719,0.6241874098777771,-1.920853614807129,1.9915608167648315,-26.132583618164062,-129.71624755859375,-269.6380615234375
1699734316,-9.684860229492188,6.372997283935547,5.481002197265625,0.7344185709953308,-1.3982253074645996,1.84817123413086,-24.829910278320312,-128.98028564453125,-268.7265625
1699734316,-8.141868896484375,6.481222229003906,5.437592468261719,0.8327955007553101,-0.9829367995262146,1.5976969003677368,-24.6373291015625,-128.21908569335938,-268.76141357421875
1699734316,-6.51969223022461,6.590345306396484,4.62044174194336,0.8073407411575317,-0.8081128001213074,1.2942278385162354,-24.34051513671875,-128.1551055908203,-268.7861633300781
1699734316,-6.039640502929688,6.64138916015625,3.9139109802246095,0.7001191973686218,-0.8393362164497375,0.9834747314453124,-23.942306518554688,-127.45166015625,-268.70220947265625
1699734316,-5.654491424560547,6.379134521484375,3.61887451171875,0.5465163588523865,-0.9280090928077698,0.6609954833984375,-23.54820251464844,-127.32266235351562,-268.861328125
1699734316,-4.779710540771485,6.010451202392578,3.700155487060547,0.4574245512485504,-0.8917677402496338,0.3587248623371124,-23.41464233398437,-127.40370178222656,-268.09722900390625
1699734316,-4.612208862304688,5.70778060913086,4.126319274902344,0.4345951378345489,-0.6355130672454834,0.1567941457033157,-23.4571533203125,-127.26406860351562,-268.79449462890625
1699734316,-4.397704925537109,5.751340026855469,4.467310180664063,0.4900442659854889,-0.2910456955432892,0.0510935448110103,-23.28564453125,-127.20286560058594,-268.8402099609375
1699734316,-3.934118957519531,5.951324157714844,4.451293487548829,0.6255595088005066,0.0362783782184124,-0.0188344083726406,-23.6763916015625,-127.17153930664062,-269.1153869628906
1699734316,-3.730991363525391,6.199508056640625,4.144132232666016,0.8492165803909302,0.2932382822036743,-0.0862360820174217,-23.706085205078125,-127.26034545898438,-268.8665466308594
1699734316,-3.919000396728516,5.933511199951172,3.999532928466797,1.2605750560760498,0.5871612429618835,-0.0916633382439613,-23.94598388671875,-127.18338012695312,-269.1537170410156
1699734316,-4.994663543701172,4.599784698486328,4.720882873535157,1.8579466342926023,0.9545416235923768,0.2950175404548645,-23.17539978027344,-127.01113891601562,-270.4460754394531
1699734316,-6.924600219726563,3.3849110412597656,4.530478820800782,2.395181655883789,1.142674207687378,1.0032063722610474,-23.22412109375,-127.19450378417967,-271.50030517578125
1699734316,-7.342680816650391,2.714754638671875,2.944377136230469,2.717302083969116,1.2463202476501465,1.83688759803772,-22.789108276367188,-126.9061279296875,-272.6098022460937
1699734316,-6.384523315429687,2.325114898681641,1.1002120971679688,2.8493576049804688,1.095492959022522,2.544731855392456,-22.0010986328125,-126.1775360107422,-274.01812744140625
1699734316,-3.847149810791016,1.945953369140625,0.2088157653808593,2.88790225982666,0.9052609205245972,2.883542060852051,-21.252487182617188,-125.59262084960938,-275.10430908203125
1699734316,-0.6740483093261719,1.309027862548828,-0.1766326904296875,2.7802934646606445,0.5277418494224548,2.847974300384521,-19.865951538085938,-124.99510192871094,-276.4117431640625
1699734316,0.7253915405273438,1.3305830383300783,-0.3465293884277344,2.7320423126220703,0.4261220097541809,2.7852723598480225,-18.940017700195312,-124.09754943847656,-277.74615478515625
1699734316,0.6002517700195312,1.1898756408691409,0.9610015869140626,2.7145233154296875,0.5773272514343262,2.726607322692871,-17.621688842773438,-123.52772521972656,-279.35675048828125
1699734316,0.9168434143066406,1.397493896484375,1.0148895263671875,2.6703548431396484,0.7852242588996887,2.6494431495666504,-16.694808959960938,-123.42510986328124,-279.999755859375
1699734316,1.2337344360351563,1.7618362426757814,0.6240522766113281,2.578878164291382,0.9196302890777588,2.517597198486328,-15.678451538085938,-122.62692260742188,-281.9335021972656
1699734316,1.389111328125,3.124153289794922,-0.0109272766113281,2.365936040878296,0.9881352782249452,2.311740636825561,-14.433670043945312,-122.09620666503906,-282.39508056640625
1699734316,1.659598846435547,6.1469673156738285,-0.9553134155273438,1.7168244123458862,1.0149554014205933,1.8696810007095337,-13.6552734375,-121.78541564941406,-283.3582763671875
1699734316,1.789977722167969,10.3608544921875,-2.672392730712891,0.8772982358932495,0.3798844814300537,1.5102720260620115,-12.529434204101562,-121.481201171875,-284.64862060546875
1699734316,0.8622070312500001,13.667328643798829,-6.018833770751954,0.0037305559962987,-0.7779266834259033,1.2167497873306274,-11.591629028320312,-120.95066833496094,-284.97088623046875
1699734316,-0.2942880249023438,19.22332489013672,-6.196663970947266,-0.6780205965042114,-1.52169930934906,1.1121506690979004,-11.556610107421877,-120.76585388183594,-284.1110534667969
1699734316,-1.6289126586914062,23.30548599243164,-4.274660797119141,-0.9533243179321288,-1.6322005987167358,1.0899386405944824,-11.397964477539062,-120.2011260986328,-283.957275390625
1699734316,-2.2528152465820312,26.84517517089844,-2.274520111083985,-1.0244075059890747,-1.185768485069275,0.8188775777816772,-10.774688720703123,-119.81137084960938,-283.3505859375
1699734316,-2.284698944091797,27.98490509033203,0.3510200500488281,-0.8728331923484802,-0.12122842669487,0.3787614107131958,-10.879959106445312,-119.60833740234376,-282.8683776855469
1699734316,-1.998494110107422,24.816593627929688,2.7740313720703127,-0.6138796806335449,0.9701067805290222,0.1639599055051803,-10.790679931640623,-119.21348571777344,-282.255859375
1699734316,-1.975741424560547,17.210161285400392,3.68159408569336,-0.3632160127162933,1.7846918106079102,0.1840771585702896,-10.655975341796877,-119.01602172851562,-282.9356689453125
1699734316,-2.084116058349609,12.152179412841798,3.5473233032226563,-0.1540042161941528,2.281683444976806,0.2329925000667572,-10.426727294921877,-119.2539520263672,-282.6838073730469
1699734316,-2.404449920654297,9.762698364257814,3.0454170227050783,-0.016813600435853,2.5383965969085693,0.4663266837596893,-9.968353271484377,-119.06867980957033,-283.8214111328125
1699734316,-7.862998809814454,7.6211018371582036,2.384092254638672,0.183950126171112,2.116020679473877,1.8372293710708616,-8.8197021484375,-118.61149597167967,-283.5213623046875
1699734316,-16.34121826171875,4.620591430664063,2.2646406555175784,0.3760620355606079,1.646845817565918,3.3991408348083496,-7.6663055419921875,-118.5647430419922,-284.3720703125
1699734316,-16.135995025634767,4.681215362548828,2.7943890380859377,0.4335083067417145,1.1490024328231812,4.374360084533691,-5.56573486328125,-117.92822265625,-284.022216796875
1699734316,-9.284891967773438,7.905660095214844,2.765349426269532,0.2811781466007232,0.1261856257915496,4.629215240478516,-3.405380249023437,-117.05335998535156,-285.4096374511719
1699734317,-3.5489698791503907,10.44512924194336,1.4852114868164064,-0.051989696919918,-1.6332591772079468,4.326116561889648,-1.797119140625,-116.808349609375,-284.66705322265625
1699734317,0.6776408386230469,11.62587387084961,-1.508562927246094,-0.5386155247688293,-3.7876017093658447,3.4929311275482178,-0.7972564697265625,-116.40139770507812,-284.492919921875
1699734317,3.971092071533203,12.427606658935549,-3.8490957641601566,-1.0843361616134644,-5.804368495941162,2.3592300415039062,0.1408843994140625,-115.97079467773438,-283.62109375
1699734317,6.792574768066407,12.836855621337891,-4.634362792968751,-1.6698379516601562,-7.175349712371826,1.1169228553771973,-0.0289154052734375,-115.65281677246094,-282.206298828125
1699734317,9.53262680053711,12.136761474609376,-4.048930206298828,-2.1716561317443848,-7.649962425231934,-0.0546517930924892,-1.1632080078125,-115.33216857910156,-280.9254150390625
1699734317,10.57535842895508,10.260413360595704,-2.0469932556152344,-2.390936374664306,-7.185579299926758,-0.8970128297805786,-2.64129638671875,-114.858154296875,-278.936767578125
1699734317,9.807455291748049,8.060887298583985,0.5057981872558595,-2.183626174926758,-5.979344367980957,-1.2942200899124146,-4.089859008789063,-114.96658325195312,-276.59259033203125
1699734317,8.156239013671875,6.579867095947266,2.3742127990722657,-1.5228817462921145,-4.444648742675781,-1.344770908355713,-5.3212890625,-114.55305480957033,-275.3179931640625
1699734317,6.815028076171876,5.6452107238769536,3.245850219726562,-0.5480958819389343,-2.679067611694336,-1.2936546802520752,-6.5929107666015625,-115.0015869140625,-273.6971740722656
1699734317,6.508166198730469,4.934638366699219,3.442541198730469,0.5324133038520813,-0.8677952885627747,-1.2681957483291626,-7.0731353759765625,-114.70574951171876,-273.882080078125
1699734317,6.156098327636719,4.544699249267579,2.6888584899902344,1.455121636390686,0.5477251410484314,-1.0867830514907837,-8.119338989257812,-115.31040954589844,-273.93310546875
1699734317,5.7859181213378905,4.843328247070313,1.280437316894531,2.0193347930908203,1.1846307516098022,-0.8374890685081482,-8.647048950195312,-115.70240783691406,-275.2510986328125
1699734317,5.847739562988282,5.916446685791016,-0.0928070068359375,2.2061309814453125,1.2779412269592283,-0.7116547226905823,-8.692764282226562,-116.19956970214844,-276.20074462890625
1699734317,6.262227630615235,7.443571014404298,0.0760418701171875,2.047240257263184,1.5171655416488647,-0.7791453003883362,-8.962249755859375,-115.9282684326172,-277.533935546875
1699734317,5.853727111816407,8.54677688598633,0.9163943481445312,1.6461927890777588,2.0729033946990967,-1.0170665979385376,-9.157379150390623,-116.10118103027344,-278.684814453125
1699734317,5.055287475585938,9.015003204345703,1.016536102294922,1.1726630926132202,2.6760809421539307,-1.289841651916504,-9.549652099609377,-116.92507934570312,-279.94439697265625
1699734317,4.685855712890625,9.458680572509763,0.3022215270996093,0.7500907778739929,2.991550922393799,-1.4979945421218872,-9.569717407226562,-117.090087890625,-281.2125244140625
1699734317,3.675456848144532,9.128916320800782,-1.0199789428710937,0.4192478656768799,3.009727478027344,-1.5905654430389404,-10.027908325195312,-117.07589721679688,-281.509765625
1699734317,2.579136657714844,9.228908386230469,-1.6546591186523438,0.159569427371025,2.937229633331299,-1.5513110160827637,-10.006729125976562,-117.94093322753906,-282.3264465332031
1699734317,1.7161811828613285,9.894873504638673,-2.0441491699218752,-0.0315936133265495,2.7386720180511475,-1.4259605407714844,-10.198745727539062,-117.81948852539062,-283.00457763671875
1699734317,0.9258247375488282,10.655142517089844,-2.2936802673339844,-0.1298679858446121,2.506481409072876,-1.2984551191329956,-10.224075317382812,-117.78697204589844,-283.43951416015625
1699734317,0.4269122314453125,11.498638458251952,-1.6756155395507812,-0.0724483653903007,2.382940530776977,-1.1809500455856323,-10.450241088867188,-117.93362426757812,-283.7518310546875
1699734317,-0.0787362670898437,12.093651123046875,-0.5087919616699219,0.1382795721292495,2.363767623901367,-1.06994891166687,-10.853240966796877,-118.3075714111328,-283.74609375
1699734317,-0.6295907592773438,12.394824829101562,0.0904119873046875,0.3772681951522827,2.2684848308563232,-1.0105441808700562,-10.805709838867188,-118.81632995605467,-284.92779541015625
1699734317,-1.0904823303222655,12.270433502197266,-0.5230123901367187,0.52211993932724,1.911566972732544,-0.9995671510696412,-10.440231323242188,-118.94711303710938,-285.84979248046875
1699734317,-1.4721885681152345,11.850556640625,-1.7289047241210938,0.6057277321815491,1.416729211807251,-0.9370729327201844,-10.571609497070312,-119.4074249267578,-286.163818359375
1699734317,-1.79865966796875,11.21003860473633,-2.2769151306152344,0.675290584564209,1.0491623878479004,-0.8093833923339844,-10.690353393554688,-119.50503540039062,-286.4180908203125
1699734317,-2.1932391357421874,10.539283447265625,-2.525548095703125,0.6643622517585754,0.9301841259002686,-0.5771432518959045,-10.516632080078123,-119.62298583984376,-287.0140991210937
1699734317,-2.5102798461914064,9.736951904296877,-3.023861846923828,0.5984303951263428,0.8112508058547974,-0.2534317374229431,-10.748626708984377,-119.92251586914062,-287.36846923828125
1699734317,-2.734513549804688,8.948541412353515,-2.72358627319336,0.5629056692123413,0.844980776309967,0.0474972128868103,-10.9036865234375,-119.99690246582033,-287.7830810546875
1699734317,-2.9590466308593752,8.502469024658204,-1.4706916809082031,0.5330567359924316,1.0702991485595703,0.2163757085800171,-10.6534423828125,-120.3023681640625,-288.0482482910156
1699734317,-3.310515747070313,8.63539260864258,-0.4866380310058594,0.5128238797187805,1.3078986406326294,0.2261732220649719,-10.089569091796877,-120.3693389892578,-288.05059814453125
1699734317,-3.5375935363769533,9.358389129638674,-0.1279838562011719,0.4938661754131317,1.4005244970321655,0.0735008493065834,-9.721282958984377,-120.44305419921876,-289.0018920898437
1699734317,-3.5991156005859377,10.02405487060547,-0.4174818420410156,0.4701184928417206,1.2981091737747192,-0.1629287302494049,-9.240463256835938,-120.49212646484376,-289.41827392578125
1699734317,-3.682342529296875,10.365345153808594,-0.8132588195800782,0.4384628236293793,1.05809223651886,-0.4307532608509063,-9.197708129882812,-120.40647888183594,-290.20068359375
1699734317,-3.7077896118164064,10.25831771850586,-1.07296875,0.3752274215221405,0.7645517587661743,-0.6684675216674805,-9.30950927734375,-120.8127899169922,-290.33856201171875
1699734317,-3.706891479492188,9.73725128173828,-1.0788066101074218,0.2755575478076935,0.5093934535980225,-0.8394666910171509,-9.330230712890623,-121.00453186035156,-290.688720703125
1699734317,-3.595972137451172,9.235045623779298,-1.0662327575683594,0.1651929467916488,0.2997640669345855,-0.9269670248031616,-9.841400146484377,-121.11767578125,-291.1641540527344
1699734317,-3.284469909667969,9.035360870361329,-1.1749067687988282,0.0655984506011009,0.1062633246183395,-0.9481777548789978,-9.852493286132812,-121.26759338378906,-290.5495300292969
1699734317,-2.7396029663085937,9.148675231933597,-1.2870236206054688,-0.0485859103500843,-0.0427868776023387,-0.9309471249580384,-10.417800903320312,-121.2895965576172,-291.6615600585937
1699734317,-2.0387603759765627,9.248367919921876,-1.189127197265625,-0.1474256664514541,-0.0619515180587768,-0.8766345977783203,-10.622634887695312,-121.67233276367188,-290.8306884765625
1699734317,-1.5495776367187502,9.22366928100586,-0.9404942321777344,-0.1973644644021988,0.0267325453460216,-0.7636867165565491,-11.337127685546877,-121.88664245605467,-290.397705078125
1699734317,-1.3912069702148435,9.212292938232425,-0.8755293273925782,-0.2179504334926605,0.1444258838891983,-0.6307255029678345,-11.418212890625,-121.8997039794922,-290.56671142578125
1699734317,-1.1942166137695314,9.333540802001952,-0.8734336853027345,-0.1991216242313385,0.2885518968105316,-0.5075575113296509,-11.86846923828125,-122.17990112304688,-290.22125244140625
1699734317,-0.9610015869140626,9.5561279296875,-0.8560697937011719,-0.1529922187328338,0.4412900507450104,-0.4121281802654266,-11.97186279296875,-121.68360900878906,-290.7379150390625
1699734317,-0.7993377685546875,9.654473419189452,-0.8620573425292969,-0.0862091854214668,0.5619174242019653,-0.3335225880146026,-12.03076171875,-121.8552703857422,-290.56280517578125
1699734317,-0.7234455871582032,9.710007934570314,-0.918639678955078,-0.0044874264858663,0.6424844264984131,-0.2730989158153534,-12.125137329101562,-122.02996826171876,-290.288330078125
1699734317,-0.7502398681640625,9.686955871582033,-0.9421408081054689,0.0878704637289047,0.6959848999977112,-0.1895291805267334,-12.206283569335938,-121.89933776855467,-291.0728759765625
1699734317,-0.9857002258300782,9.502689056396486,-1.0313552856445314,0.1732181161642074,0.7033533453941345,-0.0738313496112823,-12.104400634765623,-121.88786315917967,-291.348388671875
1699734317,-1.2172686767578125,9.363927612304687,-1.149459686279297,0.2511241137981415,0.6526398658752441,0.042684081941843,-11.849472045898438,-122.2697296142578,-291.253173828125
1699734317,-1.4519805908203125,9.39521255493164,-1.2329859924316406,0.3167648911476135,0.5635091662406921,0.1227240562438964,-11.753677368164062,-122.142578125,-291.5765380859375
1699734317,-1.7161811828613285,9.4793376159668,-1.1618838500976565,0.3690363466739654,0.4922980964183807,0.1668156087398529,-11.202896118164062,-122.04542541503906,-291.598876953125
1699734317,-1.9260447692871088,9.573641510009764,-0.9746232604980468,0.4006648659706116,0.4649911224842071,0.1836039125919342,-11.491134643554688,-122.26383972167967,-291.9371643066406
1699734317,-2.165247344970703,9.674082641601563,-0.8126600646972657,0.4039791524410248,0.4852745532989502,0.1911395937204361,-11.262680053710938,-122.56324768066406,-292.364013671875
1699734317,-2.421215057373047,9.707612915039062,-0.7280859375000001,0.3708651661872864,0.5296912789344788,0.1940624117851257,-10.888763427734377,-122.49224853515624,-293.3995361328125
1699734317,-2.604733428955078,9.619595947265626,-0.7074288940429688,0.3126591145992279,0.5681204199790955,0.1917316168546676,-10.602279663085938,-122.35067749023438,-292.9760131835937
1699734317,-2.6864634704589845,9.416917419433592,-0.7418572998046875,0.2361427545547485,0.578467607498169,0.187425285577774,-10.886337280273438,-122.58160400390624,-293.10626220703125
1699734317,-2.698288879394531,9.250313873291017,-0.7885601806640625,0.1656587421894073,0.5548315048217773,0.1721035838127136,-10.915985107421877,-122.63783264160156,-293.5683898925781
1699734317,-2.675087127685547,9.218729553222657,-0.8313711547851563,0.1050230860710144,0.4943649768829345,0.1628658771514892,-10.408279418945312,-122.60734558105467,-293.6851806640625
1699734317,-2.629881134033204,9.30659683227539,-0.8349636840820313,0.0733415931463241,0.4150416553020477,0.1528630554676056,-10.428695678710938,-122.28396606445312,-293.4375
1699734317,-2.495011596679688,9.417965240478514,-0.8000862121582032,0.0627621859312057,0.3306282460689544,0.1506965607404709,-10.194686889648438,-122.46826171875,-293.43768310546875
1699734317,-2.368824005126953,9.427994384765626,-0.7485932922363282,0.063662864267826,0.2639927566051483,0.1668345183134079,-10.040664672851562,-122.86378479003906,-293.47174072265625
1699734317,-2.2341041564941406,9.362281036376952,-0.7300318908691407,0.0612114258110523,0.2234927415847778,0.1879613846540451,-9.932144165039062,-122.61306762695312,-293.8681945800781
1699734317,-2.099533996582031,9.298663330078126,-0.7261399841308595,0.049804575741291,0.2148758172988891,0.2109508514404297,-10.0982666015625,-122.31948852539062,-293.69744873046875
1699734317,-2.005679168701172,9.2399853515625,-0.7216493225097657,0.0286071430891752,0.2275149226188659,0.2332231402397155,-9.870773315429688,-122.61875915527344,-293.9027099609375
1699734317,-1.9824774169921875,9.256151733398438,-0.7047344970703125,0.0177670121192932,0.2471282929182052,0.2515760362148285,-9.826004028320312,-123.02552795410156,-294.2864074707031
1699734317,-2.042652282714844,9.310039672851564,-0.6372248840332032,0.0201097950339317,0.2768992483615875,0.2752800285816192,-9.453292846679688,-122.30349731445312,-294.4295349121094
1699734317,-2.16315170288086,9.318122863769531,-0.6015989685058594,0.0203175228089094,0.298235684633255,0.3031811714172363,-9.844696044921877,-122.4622802734375,-294.0523681640625
1699734317,-2.2776635742187503,9.260193328857424,-0.6695576477050782,0.0146071724593639,0.294867068529129,0.3204430043697357,-9.566665649414062,-122.30081176757812,-294.12774658203125
1699734317,-2.3778053283691407,9.18579803466797,-0.7705975341796876,0.0131711959838867,0.2648806571960449,0.3369591236114502,-9.394119262695312,-121.90408325195312,-293.900634765625
1699734317,-2.4837849426269534,9.107959899902344,-0.9050180053710938,0.0068642976693809,0.2097569555044174,0.348520964384079,-9.14691162109375,-122.224853515625,-294.1893310546875
1699734317,-2.5872198486328126,9.092691650390623,-1.0554551696777343,0.0068749501369893,0.1240572333335876,0.3485225737094879,-9.396697998046877,-122.02986145019533,-294.3330383300781
1699734317,-2.631677398681641,9.190737762451173,-1.1853849792480469,0.0217851903289556,0.0388491302728652,0.3386473059654236,-9.132247924804688,-121.99081420898438,-294.005615234375
1699734317,-2.603236541748047,9.322463836669924,-1.2391232299804689,0.0471970736980438,-0.0326069444417953,0.3237759470939636,-9.26043701171875,-122.34349060058594,-294.4130859375
1699734317,-2.545456695556641,9.425449676513674,-1.2269984436035155,0.0843566954135894,-0.0694435238838195,0.314186692237854,-8.96685791015625,-122.07669067382812,-294.160888671875
1699734317,-2.4298970031738283,9.532177734375,-1.216669921875,0.1063847616314888,-0.0697873383760452,0.315007746219635,-9.001113891601562,-122.07843017578124,-294.1425476074219
1699734317,-2.274370422363281,9.575587463378907,-1.2002041625976565,0.1155436411499977,-0.0321139954030513,0.3219266533851623,-8.925827026367188,-121.78353881835938,-294.2798767089844
1699734317,-2.135159912109375,9.644144897460938,-1.1874806213378908,0.1070713251829147,0.0304572414606809,0.3306018710136413,-9.216552734375,-121.82313537597656,-294.138671875
1699734317,-2.0757334899902347,9.858499145507812,-1.1300001525878909,0.1041809991002082,0.1177031993865966,0.3355401754379272,-9.017135620117188,-121.54847717285156,-294.3500366210937
1699734317,-2.109413452148438,10.14620086669922,-1.001267852783203,0.1082889214158058,0.2204570025205612,0.3497960865497589,-8.8853759765625,-121.7290496826172,-294.5772705078125
1699734317,-2.2233265686035155,10.388397216796877,-0.85981201171875,0.1222340315580368,0.3091293573379516,0.3745094239711761,-9.004470825195312,-121.65487670898438,-294.77813720703125
1699734317,-2.3966661071777344,10.45575714111328,-0.7756869506835938,0.1337082684040069,0.3889458775520324,0.3979535102844238,-8.612289428710938,-121.84634399414062,-294.7509155273437
1699734317,-2.6385630798339843,10.325977020263672,-0.71611083984375,0.1272434443235397,0.4460152983665466,0.4165160059928894,-8.62408447265625,-121.80654907226562,-295.0722961425781
1699734317,-3.01098861694336,10.141261138916017,-0.7367678833007812,0.0931557789444923,0.4947141408920288,0.4133742749691009,-8.697341918945312,-121.87318420410156,-294.58233642578125
1699734317,-3.2922537231445315,10.02794677734375,-0.7177574157714844,0.0326993577182292,0.5410499572753906,0.3661814630031585,-8.307357788085938,-121.52333068847656,-294.8299865722656
1699734317,-3.463796997070313,10.051148529052735,-0.6578819274902344,-0.0445043519139289,0.596687376499176,0.2677600681781769,-8.309188842773438,-121.636474609375,-294.5546264648437
1699734317,-3.615132293701172,10.156679077148436,-0.6081852722167969,-0.1512853950262069,0.654450535774231,0.1339340955018997,-8.195068359375,-122.22946166992188,-295.3654479980469
1699734317,-3.753145294189453,10.426717529296877,-0.5394781494140626,-0.2834452986717224,0.7472028136253357,-0.058759719133377,-7.997756958007812,-121.89080810546876,-295.11285400390625
1699734317,-3.861819305419922,11.116483154296876,-0.3806584167480469,-0.4230330288410187,0.8632628321647644,-0.3147603273391723,-7.8024749755859375,-121.71804809570312,-295.2388000488281
1699734317,-3.934118957519531,11.99141372680664,-0.3643423461914062,-0.5963563323020935,0.9609742164611816,-0.6091650724411011,-8.0399169921875,-121.614013671875,-295.63836669921875
1699734317,-3.999383239746094,12.496313781738282,-0.4680766296386719,-0.8171589970588684,1.0202140808105469,-0.8682472109794617,-8.450851440429688,-121.81600952148438,-295.2237548828125
1699734317,-4.044589233398438,12.576996002197266,-0.5270539855957032,-1.1004301309585571,1.0363140106201172,-1.054634690284729,-8.790176391601562,-121.80160522460938,-294.72198486328125
1699734317,-3.918102264404297,12.604838104248048,-0.4715194702148437,-1.4347939491271973,1.023848533630371,-1.1594252586364746,-9.172683715820312,-121.70213317871094,-294.68963623046875
1699734317,-3.5259178161621096,12.6983935546875,-0.2257305908203125,-1.8049299716949463,0.9544300436973572,-1.1866137981414795,-9.751190185546877,-121.6820831298828,-294.5213623046875
1699734317,-2.8818072509765624,12.592863006591797,0.0374221801757812,-2.19343638420105,0.7625426650047302,-1.1506149768829346,-10.131439208984377,-121.67410278320312,-293.6998291015625
1699734317,-2.086810455322266,12.003089447021486,0.16046630859375,-2.5276474952697754,0.4123066067695617,-1.1318485736846924,-10.7178955078125,-121.21055603027344,-292.6917724609375
1699734317,-1.4025833129882814,11.222762145996096,0.1118174743652343,-2.732675790786743,-0.1071810498833656,-1.19391930103302,-11.49664306640625,-121.37507629394533,-292.24371337890625
1699734317,-0.8872050476074219,10.434351654052737,-0.0955014038085937,-2.816084146499634,-0.7083798050880432,-1.291425347328186,-12.510177612304688,-120.93873596191406,-290.7253112792969
1699734317,-0.4281097412109375,9.918374633789062,-0.2445913696289062,-2.79117202758789,-1.249888300895691,-1.381669044494629,-13.365478515625,-121.14749145507812,-289.7625732421875
1699734318,0.0109272766113281,9.770631866455078,-0.2103126525878906,-2.684671401977539,-1.6250134706497192,-1.4351860284805298,-14.6451416015625,-121.11485290527344,-288.146484375
1699734318,0.3847000122070312,9.95564712524414,0.0052391052246093,-2.506844997406006,-1.785236120223999,-1.4323513507843018,-15.88018798828125,-121.34439086914062,-286.58258056640625
1699734318,0.5433700561523438,10.458750915527345,0.3062631225585938,-2.273842096328736,-1.7316224575042725,-1.3844280242919922,-17.080398559570312,-121.73654174804688,-285.1438903808594
1699734318,0.5533992004394531,10.94808334350586,0.5822891235351563,-2.009775161743164,-1.4926320314407349,-1.302681565284729,-18.19659423828125,-121.51010131835938,-284.050048828125
1699734318,0.5637277221679687,11.124716033935549,0.7300318908691407,-1.7502862215042114,-1.115393877029419,-1.2010904550552368,-19.27388000488281,-122.10086059570312,-282.5040283203125
1699734318,0.5577401733398438,11.113639068603517,0.8735833740234376,-1.502649188041687,-0.5488210320472717,-1.072351098060608,-19.60028076171875,-122.34500122070312,-281.5307006835937
1699734318,0.5966592407226563,11.22830062866211,1.141376495361328,-1.3340237140655518,0.1440059095621109,-0.9273888468742372,-20.615692138671875,-122.76861572265624,-280.97607421875
1699734318,0.748443603515625,11.476035461425782,1.4558724975585935,-1.2849442958831787,0.9199626445770264,-0.779008150100708,-20.928787231445312,-122.92106628417967,-280.1981506347656
1699734318,1.016685791015625,11.776610412597655,1.9606228637695315,-1.337742805480957,1.6688156127929688,-0.673431932926178,-21.380767822265625,-123.35842895507812,-280.75421142578125
1699734318,1.2078382873535156,11.95878158569336,2.325863342285156,-1.4768106937408447,2.1299426555633545,-0.6468812823295593,-21.702377319335938,-124.0864715576172,-280.62530517578125
1699734318,0.8150550842285157,11.526330871582031,2.372117156982422,-1.6071274280548096,2.2043769359588623,-0.6724178194999695,-21.80624389648437,-124.19326782226562,-280.6171875
1699734318,-0.2797682189941406,10.6003564453125,2.2772145080566406,-1.646857500076294,1.9426952600479128,-0.6837863326072693,-21.624984741210938,-124.2574462890625,-281.0809326171875
1699734318,-1.5367044067382811,9.695488128662111,2.0281324768066407,-1.5131173133850098,1.4933326244354248,-0.6654126048088074,-22.21981811523437,-124.40774536132812,-281.1356201171875
1699734318,-2.321672058105469,9.049132232666016,1.737436981201172,-1.239093780517578,0.9128413200378418,-0.6238870024681091,-22.148956298828125,-124.72564697265624,-280.89923095703125
1699734318,-2.701432342529297,8.640032958984376,1.275198211669922,-0.9304163455963136,0.2612363994121551,-0.5676668882369995,-22.17491149902344,-125.1403350830078,-281.0770874023437
1699734318,-2.7030789184570314,8.31161590576172,0.7420069885253907,-0.6611100435256958,-0.3522150218486786,-0.5072951912879944,-22.61016845703125,-125.10166931152344,-281.3912048339844
1699734318,-2.473905487060547,7.976163482666016,0.3456312561035156,-0.4597074091434479,-0.8297448754310608,-0.4609644114971161,-22.80816650390625,-125.72248840332033,-280.718017578125
1699734318,-2.183060302734375,7.76704833984375,0.2483335876464844,-0.3527607321739197,-1.075398325920105,-0.4501985907554626,-23.592926025390625,-125.9281768798828,-280.3496398925781
1699734318,-1.859283599853516,7.780969390869141,0.552052001953125,-0.3428220748901367,-1.0714690685272217,-0.4797487556934356,-23.904220581054688,-126.2135772705078,-280.2568359375
1699734318,-1.4953903198242189,7.857160949707032,0.9491761779785156,-0.3973335027694702,-0.8968226909637451,-0.4879736602306366,-24.08998107910156,-126.31761169433594,-279.6961364746094
1699734318,-1.1541000366210938,7.851323089599609,1.24541015625,-0.4689933061599731,-0.6415643095970154,-0.4561012089252472,-24.573043823242188,-126.66891479492188,-279.3119506835937
1699734318,-0.8824150085449219,7.743996276855469,1.512305145263672,-0.5179845690727234,-0.3653814494609833,-0.4045618772506714,-25.099822998046875,-127.37843322753906,-278.77984619140625
1699734318,-0.6709048461914063,7.563621368408204,1.8459613037109377,-0.5353971123695374,-0.1279851347208023,-0.3580425679683685,-25.21839904785156,-127.47653198242188,-278.76129150390625
1699734318,-0.5339396667480469,7.309599609375001,2.265239410400391,-0.5004207491874695,0.0521159321069717,-0.309513658285141,-25.287338256835938,-127.6853485107422,-278.4454345703125
1699734318,-0.4743635559082031,7.080126800537109,2.829565887451172,-0.3680523335933685,0.1680451929569244,-0.2720285952091217,-25.422348022460938,-127.603515625,-278.902099609375
1699734318,-0.4917274475097656,6.96516586303711,3.507506103515625,-0.1244063749909401,0.2168223261833191,-0.2383124381303787,-25.507064819335938,-127.9228057861328,-278.49737548828125
1699734318,-0.7170089721679688,7.053482208251953,4.257745971679688,0.219776302576065,0.2385840713977813,-0.1971671283245086,-26.0462646484375,-128.09642028808594,-278.63238525390625
1699734318,-1.4209950256347657,7.224726104736328,4.667294311523437,0.5735759139060974,0.2432936131954193,-0.1580135971307754,-25.75093078613281,-128.6138153076172,-278.65594482421875
1699734318,-2.289488983154297,7.207511901855469,4.001927947998047,0.8283522725105286,0.2188505828380584,-0.1655921638011932,-25.932174682617188,-128.5274200439453,-278.96441650390625
1699734318,-2.82851806640625,7.0856652832031255,2.582878875732422,0.982761025428772,0.1209589093923568,-0.2338798642158508,-26.193923950195312,-129.1343536376953,-279.6181030273437
1699734318,-3.0029054260253907,7.032376098632813,1.1385324096679688,1.0510401725769043,-0.0480032116174697,-0.337390273809433,-26.180877685546875,-129.2400665283203,-279.2575988769531
1699734318,-3.0928683471679688,6.926246795654297,0.0871188354492187,1.0259543657302856,-0.2319581359624862,-0.4012914896011352,-26.4239501953125,-129.3799285888672,-280.03619384765625
1699734318,-3.2986903381347656,6.702312469482422,-0.2772235107421875,0.901171624660492,-0.2829659283161163,-0.3515521883964538,-26.453155517578125,-129.94061279296875,-280.27850341796875
1699734318,-3.6194732666015614,6.542295227050782,0.0570314025878906,0.7365763187408447,-0.1405813544988632,-0.1852811723947525,-26.66514587402344,-130.54884338378906,-280.3453674316406
1699734318,-3.979774017333984,6.494843902587891,0.8084687805175782,0.6062361001968384,-0.0058448393829166,0.0252704694867134,-27.156723022460938,-130.7076416015625,-280.4682006835937
1699734318,-4.274361419677734,6.625372467041016,1.63579833984375,0.583316445350647,0.0482559464871883,0.2131290584802627,-26.93173217773437,-131.1611328125,-280.35845947265625
1699734318,-4.359234924316406,6.873406677246094,2.634371795654297,0.6993373036384583,0.03924061357975,0.3704089522361755,-27.139663696289062,-130.92071533203125,-280.2878723144531
1699734318,-4.045786743164062,7.341782684326172,3.30273193359375,0.8950932025909424,-0.0757389664649963,0.4585766196250915,-27.04087829589844,-130.78067016601562,-280.94598388671875
1699734318,-3.2653097534179687,7.991431732177735,3.360062713623047,1.080333948135376,-0.3291579186916351,0.4692338109016418,-27.298171997070312,-131.11538696289062,-281.3851318359375
1699734318,-2.631976776123047,8.449179840087892,3.23088134765625,1.191662073135376,-0.5867822766304016,0.4546921551227569,-26.93721008300781,-131.11093139648438,-281.19500732421875
1699734318,-2.5343797302246096,8.583001556396486,3.327879638671875,1.1930935382843018,-0.6763262748718262,0.442323625087738,-26.818344116210938,-131.26290893554688,-280.9310913085937
1699734318,-2.6429040527343752,8.502618713378906,3.69072509765625,1.0781751871109009,-0.5255242586135864,0.4448754787445068,-27.052520751953125,-130.9432830810547,-281.4305725097656
1699734318,-2.660567321777344,8.24605224609375,4.26837387084961,0.8805744647979736,-0.1482025235891342,0.4676662683486938,-26.8642578125,-131.18960571289062,-281.235595703125
1699734318,-2.509681091308594,7.941735076904298,4.722828826904297,0.6653947830200195,0.2422190308570861,0.5004740357398987,-26.75794982910156,-131.2813262939453,-281.45513916015625
1699734318,-2.261646881103516,7.689509582519531,4.618495788574219,0.4871518015861511,0.4267353415489197,0.5191094875335693,-26.6314697265625,-130.5869598388672,-281.4660339355469
1699734318,-1.9237994384765629,7.621550903320313,3.812721405029297,0.3856483697891235,0.2748153209686279,0.5077758431434631,-26.50204467773437,-130.95350646972656,-281.7783508300781
1699734318,-1.5911911010742188,7.737709350585938,2.404749298095703,0.3442015945911407,-0.180007055401802,0.4683038294315338,-26.48545837402344,-131.1731414794922,-281.17657470703125
1699734318,-1.3106744384765625,7.857011260986328,0.9761201477050782,0.3495212495326996,-0.765626072883606,0.4188912808895111,-26.517501831054688,-131.15281677246094,-281.6592102050781
1699734318,-1.2198133850097657,7.874075775146485,0.0673599243164062,0.4193423986434936,-1.267870545387268,0.3737581372261047,-26.306472778320312,-131.08624267578125,-281.45867919921875
1699734318,-1.246457977294922,7.696095886230469,-0.0175135803222656,0.5485984086990356,-1.516915202140808,0.334623783826828,-26.69517517089844,-131.1865997314453,-280.47930908203125
1699734318,-1.2172686767578125,7.334298248291016,0.5974076843261719,0.7019248604774475,-1.5232229232788086,0.3005691468715668,-27.14111328125,-131.25157165527344,-280.27374267578125
1699734318,-1.0394384765625,6.913074188232423,0.961750030517578,0.7812766432762146,-1.476895093917847,0.2696676850318908,-26.92051696777344,-130.94442749023438,-280.12164306640625
1699734318,-0.7866142272949219,6.651118927001954,0.6973997497558594,0.7704620957374573,-1.462807297706604,0.2509645819664001,-27.46113586425781,-131.15203857421875,-279.0489501953125
1699734318,-0.6626719665527344,6.267017669677735,0.37122802734375,0.7254541516304016,-1.4520310163497925,0.2578469812870025,-27.33784484863281,-131.4778594970703,-278.505859375
1699734318,-0.6557862854003906,5.726491699218751,0.2803669738769531,0.6792600154876709,-1.4127269983291626,0.2827382087707519,-27.659896850585938,-131.79933166503906,-277.7065734863281
1699734318,-0.7875123596191407,5.232967987060547,0.324525146484375,0.65803462266922,-1.31249737739563,0.3117618858814239,-27.2347412109375,-131.6916961669922,-278.0909423828125
1699734318,-0.8288264465332031,4.848717041015625,0.5926176452636719,0.6555112600326538,-1.1456713676452637,0.3296271562576294,-27.612472534179688,-131.21792602539062,-277.0718994140625
1699734318,-0.7033872985839844,4.695884857177735,1.0747650146484375,0.672683835029602,-0.8992714881896973,0.297297716140747,-27.4141845703125,-131.54623413085938,-276.34588623046875
1699734318,-0.5188211059570312,4.975204010009766,1.696871337890625,0.6933148503303528,-0.5772082209587097,0.1827439814805984,-27.546127319335938,-131.18051147460938,-276.09490966796875
1699734318,-0.425115966796875,5.51857406616211,2.274969177246094,0.7078993916511536,-0.1927284449338913,0.0334828570485115,-27.546707153320312,-131.60691833496094,-275.374267578125
1699734318,-0.6102809143066407,6.053860931396485,2.6731411743164064,0.718554675579071,0.2205896377563476,-0.1222255080938339,-27.909698486328125,-131.4306640625,-275.797119140625
1699734318,-1.139879608154297,6.622977447509766,2.886597290039062,0.7404628992080688,0.6158573031425476,-0.261848121881485,-28.127731323242188,-131.49661254882812,-275.74481201171875
1699734318,-1.743424530029297,7.3339988708496096,2.9258157348632814,0.7865539789199829,0.940174162387848,-0.3715615570545196,-27.8350830078125,-131.16122436523438,-276.041259765625
1699734318,-1.972148895263672,8.02945266723633,3.0064979553222657,0.8569682240486145,1.1711421012878418,-0.43974170088768,-27.86421203613281,-131.61277770996094,-275.92535400390625
1699734318,-1.970801696777344,8.625213775634766,3.2578253173828124,0.9306658506393432,1.3089401721954346,-0.4665184319019317,-27.91200256347656,-131.5381317138672,-275.9426574707031
1699734318,-1.981728973388672,9.213789825439452,3.466491394042969,0.9312927722930908,1.362700343132019,-0.4829344451427459,-28.20468139648437,-132.0172119140625,-276.4158020019531
1699734318,-1.8850300598144527,10.008936309814452,3.397185516357422,0.7708706259727478,1.318540096282959,-0.5073750615119934,-28.05084228515625,-132.29769897460938,-276.9549560546875
1699734318,-1.6545094299316407,10.92892318725586,3.067720642089844,0.4478842914104461,1.265419602394104,-0.546567976474762,-28.32319641113281,-132.49887084960938,-277.3369140625
1699734318,-1.5405963134765626,11.948602752685549,3.486849060058594,0.0778937339782714,1.4146733283996582,-0.6396699547767639,-28.46441650390625,-132.6894989013672,-277.2696838378906
1699734318,-1.7908758544921877,14.021791534423828,3.652554473876953,-0.1171271577477455,1.4326025247573853,-0.8441115617752075,-28.662521362304688,-133.0328826904297,-277.83758544921875
1699734318,-2.458337860107422,15.12305145263672,0.5779481506347657,-0.1007516458630561,1.2193951606750488,-0.9821810126304626,-28.63604736328125,-133.39231872558594,-278.4237670898437
1699734318,-3.303031311035157,15.17574188232422,-1.413959655761719,-0.0800788551568985,0.8737402558326721,-0.9247440695762634,-28.917877197265625,-133.32127380371094,-278.11981201171875
1699734318,-4.036805419921875,15.126344604492187,-3.25198745727539,-0.2462481260299682,0.270507663488388,-0.6711421608924866,-28.949920654296875,-134.15301513671875,-278.0762939453125
1699734318,-4.508923645019531,14.65407669067383,-5.046006774902344,-0.5505534410476685,-0.3262217938899994,-0.2886906564235687,-29.165847778320312,-134.19155883789062,-278.134765625
1699734318,-4.381388854980469,13.360466766357424,-4.499792633056641,-0.7444709539413452,-0.4464983940124511,0.1331260949373245,-28.842559814453125,-134.58216857910156,-277.244873046875
1699734318,-3.036286010742188,11.239976348876954,-2.0567230224609374,-0.7065049409866333,-0.1717709600925445,0.3692829608917236,-29.103256225585938,-134.61280822753906,-277.05633544921875
1699734318,-1.5940351867675782,10.08827133178711,-0.9342073059082032,-0.5417660474777222,-0.00604351144284,0.3909211456775665,-28.892410278320312,-134.3239288330078,-276.26885986328125
1699734318,-1.2862751770019532,9.999505920410156,-1.5627502441406251,-0.3859280049800873,-0.0259916521608829,0.2904504835605621,-28.72715759277344,-134.30101013183594,-275.993408203125
1699734318,-1.824406127929688,11.167077941894531,-1.6432827758789064,-0.2346543222665786,0.0611208789050579,0.0714398249983787,-28.9559326171875,-134.1192626953125,-275.86700439453125
1699734318,-3.114872589111328,15.83676727294922,-0.3475772094726562,-0.1172496601939201,0.8303658962249756,-0.3252595961093902,-28.68637084960937,-134.05784606933594,-275.5464172363281
1699734318,-5.181475067138672,20.850740661621096,4.946613464355469,-0.2824335694313049,3.288670301437378,-0.9045463800430298,-28.87948608398437,-134.23536682128906,-275.6085205078125
1699734318,-8.114625549316406,22.913750610351563,9.871671752929688,-0.7814345955848694,5.099265098571777,-1.2981631755828855,-28.843017578125,-134.43739318847656,-276.1689758300781
1699734318,-9.636810150146486,19.69903564453125,3.1630723571777346,-1.194450616836548,4.330013751983643,-1.2257941961288452,-28.63050842285156,-134.95103454589844,-278.34918212890625
1699734318,-8.339308319091797,14.392869873046877,-5.256918182373047,-1.197411060333252,2.114253759384156,-0.7430102229118347,-28.538558959960938,-135.29852294921875,-279.7162475585937
1699734318,-6.282285919189453,10.288255462646484,-7.387288055419922,-0.7978113889694214,0.0300316680222749,-0.1604687720537185,-28.694122314453125,-135.5814666748047,-280.3251647949219
1699734318,-4.314028930664063,8.715775451660157,-5.53054916381836,-0.2902648448944092,-1.3590108156204224,0.2059640884399414,-28.481216430664062,-135.63084411621094,-279.65826416015625
1699734318,-3.1475047302246097,8.532855834960937,-3.544329528808594,0.2098501622676849,-2.1115968227386475,0.4169402420520782,-28.52789306640625,-135.5172882080078,-279.16656494140625
1699734318,-2.8999195861816407,8.10759017944336,-1.8949095153808595,0.7110368609428406,-2.347418069839477,0.6091336607933044,-28.39739990234375,-135.54734802246094,-278.2088623046875
1699734318,-3.0850845336914063,7.449408874511719,-0.113763427734375,1.1734832525253296,-2.018970012664795,0.7983062267303467,-28.215621948242188,-135.69287109375,-277.66748046875
1699734318,-3.539539489746094,6.748266906738282,2.6939479064941407,1.4282256364822388,-0.9208049774169922,1.0069739818572998,-28.599899291992188,-135.59075927734375,-276.9385986328125
1699734318,-3.7413198852539065,7.044949951171875,5.300926666259766,1.1309787034988403,0.4202630519866943,1.052852749824524,-28.09368896484375,-135.66920471191406,-276.9949951171875
1699734318,-3.036884765625,10.028695220947268,4.415218505859375,0.5425551533699036,1.2421976327896118,0.7951698303222656,-27.6204833984375,-135.08531188964844,-277.54168701171875
1699734318,-2.830164642333985,11.45058837890625,1.937421112060547,0.0050679952837526,1.4304269552230835,0.5343776345252991,-27.251678466796875,-135.00254821777344,-278.5157165527344
1699734318,-3.426823883056641,9.583670654296876,0.2453398132324218,-0.2942918241024017,1.3016912937164309,0.4379571080207824,-26.672637939453125,-134.97784423828125,-278.63140869140625
1699734318,-3.4025743103027346,7.697293395996094,0.3320095825195313,-0.3106851577758789,1.1664924621582031,0.3716582357883453,-26.306884765625,-135.06431579589844,-278.7523803710937
1699734318,-2.78540771484375,7.026388549804688,1.340911560058594,-0.1469505578279495,1.0998069047927856,0.2647586762905121,-26.37489318847656,-134.62698364257812,-279.4283447265625
1699734318,-2.3402334594726564,6.549779663085938,1.6941769409179688,-0.0299720130860805,0.9765294790267944,0.1772195249795913,-25.932037353515625,-134.785400390625,-279.97174072265625
1699734318,-2.358645172119141,5.969586181640626,0.7776329040527344,-0.0883295983076095,0.662666380405426,0.1578117311000824,-25.909652709960938,-134.615966796875,-280.2601928710937
1699734318,-2.5882676696777347,5.604345703125,-0.3721261596679687,-0.2402373701333999,0.2439498156309127,0.1290876716375351,-25.843475341796875,-134.8701629638672,-279.91778564453125
1699734318,-2.775528259277344,5.616470489501953,-0.8131091308593751,-0.3776825666427612,-0.0993987619876861,0.0305621698498725,-25.76913452148437,-134.55604553222656,-279.822021484375
1699734319,-2.8883935546875,5.996380462646485,-0.4796026611328125,-0.5030961632728577,-0.1803833544254303,-0.1293526589870453,-25.568405151367188,-134.7717742919922,-279.7728271484375
1699734319,-3.244353332519532,6.38123016357422,0.7096742248535156,-0.6884886622428894,0.1886777728796005,-0.276154100894928,-25.660232543945312,-134.8527374267578,-279.89117431640625
1699734319,-4.084556121826172,6.640341339111329,2.971770172119141,-0.9012784361839294,1.0120947360992432,-0.3233942985534668,-25.74403381347656,-134.836181640625,-279.51025390625
1699734319,-4.729864196777344,7.043602752685548,5.200635223388672,-0.9410144090652466,1.7889171838760376,-0.1937960982322693,-25.80195617675781,-135.05126953125,-278.9811096191406
1699734319,-3.358565826416016,7.815846862792969,5.0918115234375,-0.7766880393028259,1.873743891716004,0.0181475784629583,-25.718902587890625,-135.1782989501953,-279.4872436523437
1699734319,-1.3334271240234377,8.312214660644532,2.4613316345214846,-0.5905157327651978,1.2983474731445312,0.2323791831731796,-25.162124633789062,-135.0355987548828,-280.1313781738281
1699734319,-1.039588165283203,8.650960235595704,-0.3655398559570312,-0.5641525983810425,0.4615519046783447,0.4054231345653534,-24.862045288085938,-135.08599853515625,-279.6212463378906
1699734319,-1.136287078857422,9.368118896484376,-1.8952088928222657,-0.7139175534248352,-0.3097208440303802,0.4997197985649109,-24.556793212890625,-135.13150024414062,-280.51513671875
1699734319,-1.4379098510742188,9.691596221923827,-2.1944366455078126,-0.9055008888244628,-0.8346186876296997,0.5820008516311646,-24.655029296875,-134.92018127441406,-279.71630859375
1699734319,-2.1318667602539065,8.63209945678711,-1.4941928100585935,-1.008367896080017,-1.0232343673706057,0.6317790150642395,-24.65034484863281,-134.47259521484375,-278.8607482910156
1699734319,-2.9187803649902344,7.146438903808594,-0.4150868225097656,-1.039883732795715,-0.8855242133140564,0.5490111708641052,-24.603042602539062,-134.59413146972656,-277.69793701171875
1699734319,-3.5254687500000004,6.423592071533204,0.549656982421875,-1.0625776052474976,-0.4552812278270721,0.3439717590808868,-24.477371215820312,-134.2171630859375,-276.937255859375
1699734319,-4.056414642333984,5.8511824035644535,1.2277468872070314,-1.0753250122070312,0.0776724219322204,0.0760289877653122,-24.24578857421875,-133.99642944335938,-276.5292358398437
1699734319,-4.466262359619141,5.445076904296875,0.8783734130859375,-1.0342649221420288,0.3926846981048584,-0.2140057682991027,-24.499771118164062,-134.05227661132812,-275.97076416015625
1699734319,-4.709805908203125,5.281167755126954,-0.15088623046875,-0.938304364681244,0.4139058291912079,-0.4824728965759277,-24.54600524902344,-133.93353271484375,-275.47430419921875
1699734319,-4.996160430908203,5.174888763427735,-0.7705975341796876,-0.8740600943565369,0.362600028514862,-0.7140254378318787,-24.577560424804688,-134.1322021484375,-275.48687744140625
1699734319,-5.330565032958985,5.103038177490235,-0.4483177185058594,-0.94173663854599,0.47415691614151,-0.9236886501312256,-24.8873291015625,-134.2978515625,-275.120849609375
1699734319,-5.538632354736328,5.115911407470703,0.2583627319335937,-1.169777274131775,0.7661703824996948,-1.1490788459777832,-24.807418823242188,-134.63162231445312,-274.84381103515625
1699734319,-5.720653839111328,5.336851959228516,0.9842033386230468,-1.5183155536651611,1.169461965560913,-1.369403839111328,-25.588943481445312,-134.76528930664062,-275.0238342285156
1699734319,-5.913602600097657,5.650898895263672,1.7564474487304689,-1.8679568767547607,1.542911171913147,-1.525141954421997,-25.17022705078125,-135.5137939453125,-274.709228515625
1699734319,-5.972280578613281,6.078110504150391,2.5466542053222656,-2.060868978500366,1.777685523033142,-1.5525147914886477,-25.58851623535156,-136.03482055664062,-274.176025390625
1699734319,-6.003266143798829,6.724616088867188,3.4919384765625003,-1.988324522972107,1.716103196144104,-1.4482911825180054,-25.98788452148437,-136.3142547607422,-274.564697265625
1699734319,-5.945336608886719,8.252039794921876,4.036805419921875,-1.5889755487442017,1.248280644416809,-1.2966818809509275,-26.012496948242188,-136.6623077392578,-273.9832763671875
1699734319,-5.522615661621094,10.461295623779298,3.957171020507813,-1.1361042261123655,0.3666349947452545,-1.237789273262024,-26.518600463867188,-137.17652893066406,-274.397216796875
1699734319,-4.888983306884766,12.125684509277344,2.940934295654297,-0.8877159953117371,-0.7310664653778076,-1.3271338939666748,-26.44549560546875,-137.83541870117188,-274.14019775390625
1699734319,-4.284839630126953,13.156890106201171,1.9206559753417969,-0.8411274552345276,-1.6184730529785156,-1.490227222442627,-26.902374267578125,-138.26412963867188,-273.29815673828125
1699734319,-3.989054718017578,14.01849838256836,2.15836166381836,-0.8383335471153259,-2.084878444671631,-1.638240098953247,-27.10151672363281,-138.8402862548828,-273.0950622558594
1699734319,-4.135300598144531,14.950310668945312,3.131188659667969,-0.8025659322738647,-2.1677334308624268,-1.743389129638672,-27.359390258789062,-138.93853759765625,-271.4190673828125
1699734319,-4.33259033203125,16.234639892578127,4.177961883544922,-0.7269545793533325,-1.966499924659729,-1.8345648050308228,-28.09600830078125,-139.73162841796875,-270.103759765625
1699734319,-4.1357496643066405,17.261504516601562,4.777465209960938,-0.6319342851638794,-1.593950629234314,-1.830568194389344,-28.30108642578125,-140.70779418945312,-269.8726806640625
1699734319,-3.955973510742188,17.159566497802736,4.702022094726563,-0.5425738096237183,-1.1491236686706543,-1.6684653759002686,-28.76083374023437,-141.3314971923828,-268.98358154296875
1699734319,-3.913012847900391,16.19602020263672,4.65876205444336,-0.4825661182403564,-0.6197490096092224,-1.3209385871887207,-29.104278564453125,-142.07501220703125,-268.56085205078125
1699734319,-3.991449737548829,15.192357330322269,5.1662068176269536,-0.4547230303287506,0.0502407997846603,-0.863509476184845,-29.227996826171875,-142.4193115234375,-268.3443603515625
1699734319,-4.315376129150391,14.326408081054687,5.764213256835938,-0.4015098810195923,0.6669604778289795,-0.4081153273582458,-29.350799560546875,-142.6320343017578,-267.985595703125
1699734319,-5.317093048095703,13.361514587402343,5.517675933837891,-0.2743484675884247,0.9853978157043456,-0.1433473080396652,-28.86407470703125,-143.15309143066406,-267.785400390625
1699734319,-6.209537200927735,11.981384582519532,4.501439208984375,-0.1031005531549453,0.9714479446411132,-0.1136975362896919,-28.969528198242188,-143.2445831298828,-267.9672241210937
1699734319,-6.395450592041016,10.3991748046875,3.307072906494141,0.0678224563598632,0.6612948775291443,-0.2215481102466583,-28.911666870117188,-143.2554931640625,-268.51336669921875
1699734319,-6.172863464355469,8.839418334960937,2.3902294921875,0.2024697512388229,0.2339408546686172,-0.3606087863445282,-28.946273803710938,-142.99314880371094,-269.1678771972656
1699734319,-5.840853881835938,7.386689300537109,2.0672012329101563,0.2807334065437317,-0.1775074154138565,-0.4346603751182556,-28.77339172363281,-143.29730224609375,-269.75299072265625
1699734319,-5.611381072998047,6.36401596069336,2.092947692871094,0.342136025428772,-0.5276424884796143,-0.4227632284164428,-29.10298156738281,-143.72222900390625,-269.41729736328125
1699734319,-5.5447695922851565,5.894592132568359,2.301464080810547,0.4266423881053924,-0.7954744696617126,-0.3046214282512665,-29.11689758300781,-143.74005126953125,-269.300537109375
1699734319,-5.477110290527344,5.883066101074219,2.673290863037109,0.5689859390258789,-0.990907907485962,-0.1212774291634559,-28.84663391113281,-143.85894775390625,-269.332275390625
1699734319,-4.987029418945313,6.334377593994141,3.034340057373047,0.7465423941612244,-1.1383167505264282,0.0038155107758939,-29.177398681640625,-144.08279418945312,-269.197509765625
1699734319,-3.9871087646484376,7.022346954345704,3.126398620605469,0.9002400636672974,-1.21931254863739,0.0842413753271102,-29.0743408203125,-143.7853546142578,-268.8037109375
1699734319,-3.2003448486328128,7.251370697021485,3.0129345703125003,0.9848236441612244,-1.2192316055297852,0.2000071257352829,-29.04603576660156,-143.3439178466797,-268.29022216796875
1699734319,-2.601739654541016,7.005132751464844,2.842588806152344,0.9931169748306274,-1.1482772827148438,0.3621835112571716,-28.68609619140625,-143.41143798828125,-268.202392578125
1699734319,-2.012864227294922,6.530769195556641,2.7391539001464844,0.9614672064781188,-1.076298475265503,0.5158675909042358,-28.82080078125,-143.65216064453125,-268.67242431640625
1699734319,-1.4412030029296876,6.062542877197266,2.7400520324707034,0.9412250518798828,-1.0037853717803955,0.6418015956878662,-28.644805908203125,-143.88421630859375,-268.0213317871094
1699734319,-0.93645263671875,5.776188354492188,3.020269317626953,0.9461311101913452,-0.8758583068847656,0.7276174426078796,-28.427169799804688,-143.40330505371094,-267.5229797363281
1699734319,-0.5459147644042969,5.800587615966797,3.5307078552246094,0.9820960164070128,-0.6881563067436218,0.749933660030365,-28.45297241210937,-143.32583618164062,-267.5130310058594
1699734319,-0.3577560424804687,6.105204162597657,3.901786193847657,1.0356245040893557,-0.4885087013244629,0.6983282566070557,-28.010284423828125,-143.0270538330078,-267.4850769042969
1699734319,-0.6253994750976563,6.598877563476563,3.823798370361328,1.0820239782333374,-0.3228605985641479,0.6813620328903198,-28.104248046875,-143.05738830566406,-267.0985107421875
1699734319,-1.560205535888672,6.991660766601563,3.4382002258300783,1.0910691022872925,-0.1702167391777038,0.7336097955703735,-28.115997314453125,-142.73666381835938,-267.34991455078125
1699734319,-2.2646406555175784,7.345973968505859,3.0033544921875,1.0590922832489014,-0.0349017903208732,0.7824873328208923,-27.84288024902344,-142.61891174316406,-267.54901123046875
1699734319,-2.605332183837891,7.7742333984375005,2.62778549194336,1.0144068002700806,0.0887296050786972,0.8121485710144043,-27.57752990722656,-142.064453125,-268.2455444335937
1699734319,-2.8994705200195314,8.059540100097657,2.352657623291016,0.9798755049705504,0.1700308471918106,0.8354640007019043,-27.08753967285156,-142.0513916015625,-267.97265625
1699734319,-3.226240997314453,8.140970764160157,2.224673767089844,0.9702750444412231,0.2062807381153106,0.853421688079834,-26.79205322265625,-141.87911987304688,-268.35430908203125
1699734319,-3.5675312805175783,8.051606597900392,2.238894195556641,1.0057779550552368,0.1613199114799499,0.8654786348342896,-26.69476318359375,-141.3170623779297,-268.606689453125
1699734319,-3.9422021484375,8.114026794433594,2.034419403076172,1.0544469356536863,0.0041502700187265,0.8514469265937805,-26.26850891113281,-141.02557373046875,-268.8511962890625
1699734319,-4.230652313232422,8.2149169921875,1.7395326232910158,1.118943691253662,-0.1718838810920715,0.790584146976471,-26.37875366210937,-140.67042541503906,-269.0304870605469
1699734319,-4.403542785644532,8.166717224121093,1.6862434387207033,1.181422233581543,-0.2785914242267608,0.7014715671539307,-26.218536376953125,-140.53253173828125,-268.8574523925781
1699734319,-4.494254150390625,8.013435974121094,1.9896624755859376,1.2322698831558228,-0.2374562323093414,0.606103241443634,-25.93270874023437,-140.3235626220703,-269.20965576171875
1699734319,-4.620292053222657,7.828570404052734,2.7500811767578126,1.2727079391479492,0.0182972475886344,0.5284126996994019,-25.775314331054688,-139.854736328125,-269.3885192871094
1699734319,-4.656965789794922,7.679779815673829,3.7889208984375,1.2811176776885986,0.4954584836959839,0.4830641150474548,-25.53773498535156,-139.61207580566406,-269.7438049316406
1699734319,-4.283642120361328,7.747289428710938,4.27555892944336,1.1971724033355713,0.9487907886505128,0.4086580574512481,-25.39166259765625,-140.20895385742188,-270.30291748046875
1699734319,-3.643722839355469,7.833360443115235,3.789070587158203,1.0146044492721558,1.197628378868103,0.3076230585575104,-25.36592102050781,-139.7955322265625,-270.9898376464844
1699734319,-3.27638671875,7.951614532470703,3.0454170227050783,0.8021630048751831,1.2048465013504028,0.2247393727302551,-25.08526611328125,-139.27723693847656,-271.4316711425781
1699734319,-3.105142822265625,8.183931427001953,2.394121398925781,0.6169611811637878,0.9947718977928162,0.1648560613393783,-24.9595947265625,-139.3046875,-271.3536071777344
1699734319,-2.953208770751953,8.466094665527343,2.1198916625976563,0.4661155045032501,0.6514981389045715,0.1315074265003204,-24.89326477050781,-139.6436767578125,-272.2422790527344
1699734319,-2.863096160888672,8.509354705810548,2.139351196289063,0.3358080983161926,0.2582573890686035,0.1231610774993896,-24.530593872070312,-139.31350708007812,-272.3182373046875
1699734319,-2.7857070922851563,8.228239288330078,2.0327728271484378,0.2082576006650924,-0.1089467257261276,0.1250380724668502,-24.47430419921875,-139.6792449951172,-272.5992431640625
1699734319,-2.727777557373047,7.787555694580078,1.5332615661621094,0.1285632997751236,-0.4189663827419281,0.1246756166219711,-24.70863342285156,-139.1561737060547,-273.1772155761719
1699734319,-2.602188720703125,7.182064819335938,1.0803034973144532,0.1207772865891456,-0.66938716173172,0.1387501657009124,-24.45028686523437,-139.18206787109375,-272.7183837890625
1699734319,-2.38304443359375,6.515201568603516,0.9030720520019532,0.1997690349817276,-0.8392728567123413,0.1459231227636337,-24.39019775390625,-139.29714965820312,-272.86541748046875
1699734319,-2.100132751464844,5.910159759521485,0.9680369567871094,0.34560427069664,-0.8875495791435242,0.1643473953008651,-24.586395263671875,-139.34454345703125,-271.2105407714844
1699734319,-1.8420693969726565,5.396278381347656,1.2760963439941406,0.5202072262763977,-0.7894173860549927,0.1685384213924408,-24.2308349609375,-139.28204345703125,-271.43359375
1699734319,-1.60226806640625,5.029690704345703,1.7247134399414064,0.6984041333198547,-0.5639004111289978,0.1525400131940841,-24.221725463867188,-139.36712646484375,-271.918212890625
1699734319,-1.3118719482421877,4.769382019042969,2.2290147399902347,0.7991470098495483,-0.2580086290836334,0.149957537651062,-24.366043090820312,-139.41815185546875,-271.4490661621094
1699734319,-0.9880952453613282,4.83359848022461,2.5988955688476563,0.7852711081504822,0.0497094988822937,0.1120453104376792,-24.524978637695312,-139.6007080078125,-271.8099670410156
1699734319,-0.7189549255371094,5.539680175781251,2.8629464721679687,0.6266269087791443,0.3222747147083282,0.027067570015788,-24.038650512695312,-139.69883728027344,-271.3631591796875
1699734319,-0.6628216552734375,6.5361579895019535,3.0910720825195312,0.4065800011157989,0.5274875164031982,-0.0877532884478569,-24.09492492675781,-139.43402099609375,-271.83056640625
1699734319,-1.050216064453125,7.412286071777344,2.879262542724609,0.2308052480220794,0.5657867193222046,-0.1987099051475525,-23.67440795898437,-139.64219665527344,-271.9859313964844
1699734319,-1.873054962158204,7.946076049804688,2.127226409912109,0.1774426996707916,0.4423398673534393,-0.2871036827564239,-23.510162353515625,-139.2801513671875,-271.6386108398437
1699734319,-2.882106628417969,7.902067565917969,1.2422666931152344,0.2135932445526123,0.212324246764183,-0.3351726830005646,-23.534347534179688,-139.51651000976562,-272.26861572265625
1699734319,-3.4887950134277346,7.347919921875,0.6700067138671876,0.3032948970794678,0.0279541369527578,-0.366485059261322,-23.776351928710938,-139.8197021484375,-272.4112854003906
1699734319,-3.4970278930664063,6.780449981689453,0.784368896484375,0.4441790580749511,0.0316788330674171,-0.3956250846385956,-23.534194946289062,-140.06588745117188,-272.2597045898437
1699734319,-3.404370574951172,6.594087524414062,1.3828244018554687,0.5691540241241455,0.2751919031143188,-0.4413087069988251,-23.18634033203125,-140.04478454589844,-271.9047241210937
1699734319,-3.556454315185547,8.34140396118164,2.425855407714844,0.6680651307106018,0.7437407374382019,-0.6067503690719604,-23.58334350585937,-139.92515563964844,-272.06011962890625
1699734319,-4.141587524414063,11.49369873046875,2.425556030273438,0.8186341524124146,1.1649553775787354,-0.8214365839958191,-23.665313720703125,-140.31912231445312,-272.1971435546875
1699734319,-5.337151336669923,13.931678924560549,1.2271481323242188,0.8003456592559814,1.426899552345276,-1.0352327823638916,-23.609619140625,-140.43727111816406,-272.379150390625
1699734319,-6.329737243652344,16.364270324707032,-1.0391390991210938,0.4597856998443603,1.1934418678283691,-1.235592484474182,-23.936813354492188,-140.98719787597656,-272.9910583496094
1699734319,-6.943910064697266,18.2837287902832,-3.8016444396972657,-0.0774077028036117,0.5936667919158936,-1.3480875492095947,-24.036865234375,-141.0797576904297,-273.4335327148437
1699734319,-7.227420501708985,18.69312744140625,-4.898862762451172,-0.5626524090766907,0.0127759827300906,-1.1705594062805176,-24.03155517578125,-141.58702087402344,-273.55908203125
1699734319,-6.728657684326172,16.662899322509766,-3.823049926757813,-0.7985291481018066,-0.0671446844935417,-0.6676443815231323,-24.21675109863281,-141.96563720703125,-273.7406616210937
1699734319,-5.386997680664063,14.647191009521483,-1.2885205078125002,-0.7176145911216736,0.4141601622104645,-0.2424770891666412,-24.186798095703125,-142.29177856445312,-273.4613037109375
1699734319,-3.800746307373047,14.206956481933595,0.290994873046875,-0.4493977725505829,0.9342800378799438,-0.0883471742272377,-24.167144775390625,-142.2310028076172,-273.10614013671875
1699734319,-2.914589080810547,13.208832092285157,-0.3673361206054688,-0.2049747258424759,0.9896596670150756,-0.0307648368179798,-23.72021484375,-142.2183380126953,-273.2002868652344
1699734319,-3.1759455871582034,11.412118377685548,-1.7545014953613285,-0.0342125631868839,0.6576388478279114,0.076648972928524,-23.595626831054688,-142.2966766357422,-273.35333251953125
1699734319,-3.652105407714844,9.863289184570313,-2.161355438232422,0.104238785803318,0.2924957871437073,0.1881797611713409,-23.873611450195312,-142.3455352783203,-274.1739196777344
1699734320,-3.961212615966797,9.396260375976563,-0.91729248046875,0.2232160419225692,0.2785368263721466,0.1830877959728241,-23.602859497070312,-142.1188201904297,-273.7372741699219
1699734320,-5.062771911621094,11.950548706054688,0.7176077270507812,0.175306037068367,0.5529395937919617,0.0938426032662391,-23.09454345703125,-141.74679565429688,-274.2303466796875
1699734320,-6.83299072265625,14.680870971679688,0.6463558959960938,-0.1232998296618461,0.8749181628227234,0.0633946880698204,-23.087661743164062,-141.9199676513672,-274.2026062011719
1699734320,-8.143814849853516,14.58611801147461,-0.3031196594238281,-0.4954065382480621,1.0052069425582886,0.0959528908133506,-22.83265686035156,-141.71470642089844,-274.8680725097656
1699734320,-8.175249481201172,12.756622467041016,-0.8701405334472657,-0.6712399125099182,0.9562612175941468,0.0954618081450462,-22.726577758789062,-141.82168579101562,-274.4059143066406
1699734320,-7.104526062011719,10.739417266845704,-0.7575746154785157,-0.601779043674469,0.7708229422569275,0.0888960510492324,-22.81768798828125,-141.79026794433594,-274.99371337890625
1699734320,-6.257138214111328,9.337283020019532,-0.591420135498047,-0.3658461570739746,0.5745333433151245,0.1360148191452026,-22.16444396972656,-141.7465362548828,-275.07159423828125
1699734320,-5.751789093017578,8.227640533447266,-0.2183958435058594,-0.0359058044850826,0.4496068358421325,0.2283295691013336,-22.25474548339844,-141.33932495117188,-274.9757080078125
1699734320,-5.349874877929688,7.396568756103516,0.0414637756347656,0.3033303320407867,0.3629425168037414,0.3221671283245086,-22.01239013671875,-141.4436798095703,-275.809326171875
1699734320,-5.070555725097656,6.880741424560547,-0.1803749084472656,0.5907144546508789,0.2091470956802368,0.4123585224151611,-21.787826538085938,-141.51980590820312,-275.5432434082031
1699734320,-4.882546691894532,6.565047912597657,-0.7575746154785157,0.771015465259552,-0.0132952993735671,0.5116851329803467,-22.275894165039062,-141.36981201171875,-276.0220947265625
1699734320,-4.705614624023438,6.47373779296875,-1.1011102294921875,0.8079002499580383,-0.2029003798961639,0.5792945027351379,-21.632736206054688,-141.15806579589844,-276.1617431640625
1699734320,-4.452041931152344,6.6436344909667975,-0.8128097534179688,0.7016297578811646,-0.1986214816570282,0.5877484679222107,-21.80966186523437,-141.126953125,-275.88818359375
1699734320,-4.181853790283204,6.929989013671875,0.0173638916015625,0.5092286467552185,0.0289584137499332,0.5331672430038452,-21.375961303710938,-140.89410400390625,-276.3458251953125
1699734320,-4.224215698242188,7.33639389038086,0.6583309936523438,0.3431871831417084,0.2709207236766815,0.4319913685321808,-21.290924072265625,-141.0242919921875,-276.1356811523437
1699734320,-4.704566802978516,7.5064402770996095,0.59156982421875,0.2536924481391907,0.3385530114173889,0.3345020711421966,-21.2130126953125,-140.75721740722656,-276.4511108398437
1699734320,-5.357509002685547,7.282505950927734,0.21076171875,0.2481914311647415,0.238680750131607,0.2620401382446289,-21.43756103515625,-141.03167724609375,-276.6067810058594
1699734320,-5.674549713134766,7.1296737670898445,-0.0648152160644531,0.2849297523498535,0.0563508905470371,0.1936544179916381,-20.59657287597656,-140.4719696044922,-277.0465393066406
1699734320,-5.695057067871094,7.103478240966798,-0.0284408569335937,0.2782776951789856,-0.066924437880516,0.1200510412454605,-20.744796752929688,-140.51197814941406,-277.02911376953125
1699734320,-5.580245819091797,7.151228942871094,0.3655398559570312,0.1653641909360885,-0.0517710521817207,0.0224496480077505,-20.631820678710938,-140.6212158203125,-276.81414794921875
1699734320,-5.456602935791016,7.217391357421875,0.9569599914550782,-0.0383050441741943,0.0468311533331871,-0.0960514321923255,-20.570480346679688,-140.65672302246094,-277.30877685546875
1699734320,-5.282664642333985,7.314239959716797,1.456022186279297,-0.2817989289760589,0.1137657165527343,-0.2148904651403427,-20.22177124023437,-140.3517303466797,-277.070556640625
1699734320,-4.966971130371094,7.353907470703126,1.5751744079589844,-0.4662241637706756,0.0438787750899791,-0.2746597826480865,-20.421844482421875,-140.60008239746094,-276.9788818359375
1699734320,-4.324058074951172,7.391179962158204,1.1669732666015626,-0.5353137254714966,-0.2301458567380905,-0.2508324980735779,-20.75746154785156,-140.70535278320312,-277.61968994140625
1699734320,-3.421285400390625,7.339836730957032,0.3550616455078125,-0.538715124130249,-0.6125147938728333,-0.1360656917095184,-20.758270263671875,-140.34738159179688,-277.16357421875
1699734320,-2.591111755371094,7.281907196044922,-0.105380859375,-0.5628705620765686,-0.927768349647522,0.037484522908926,-20.593276977539062,-140.42437744140625,-276.565673828125
1699734320,-1.9444564819335937,7.317982177734375,-0.0529898071289062,-0.6313236355781555,-1.106650471687317,0.1880625784397125,-20.78868103027344,-140.59732055664062,-276.3602294921875
1699734320,-1.3644126892089845,7.533234558105469,0.2010319519042968,-0.7410064339637756,-1.0992826223373413,0.290236622095108,-20.57073974609375,-140.2239227294922,-276.0654296875
1699734320,-0.8812174987792969,7.789202270507813,0.59156982421875,-0.8679561614990234,-0.8815441131591797,0.3333649039268493,-20.39190673828125,-139.8687286376953,-275.1816101074219
1699734320,-0.6465055847167969,7.955207061767578,0.9937834167480468,-0.955039918422699,-0.5471237897872925,0.3423054218292236,-20.564422607421875,-139.41122436523438,-274.5248413085937
1699734320,-0.8566685485839844,7.760611724853516,0.969833221435547,-0.9714439511299132,-0.2239366918802261,0.3504877090454101,-20.363052368164062,-139.83924865722656,-274.5136413574219
1699734320,-1.6193325805664065,7.182214508056641,0.724493408203125,-0.9745672941207886,0.0202669221907854,0.3898998200893402,-20.36688232421875,-139.2584686279297,-274.6900634765625
1699734320,-2.494263153076172,6.932084655761719,0.4189787292480469,-0.9769359230995178,0.1808496713638305,0.391701191663742,-20.3349609375,-138.78419494628906,-273.63165283203125
1699734320,-3.074606323242188,7.073989562988282,0.1907034301757812,-0.9563725590705872,0.2909005582332611,0.3254918158054352,-19.990646362304688,-138.37510681152344,-274.09197998046875
1699734320,-3.586242370605469,7.249424743652344,-0.1523831176757812,-0.8686837553977966,0.2804052829742431,0.2203811109066009,-19.25946044921875,-138.31224060058594,-273.91131591796875
1699734320,-4.090543670654297,7.173831939697266,-0.5480104064941407,-0.7691690921783447,0.1905547678470611,0.1131731569766998,-19.577117919921875,-138.42210388183594,-273.69049072265625
1699734320,-4.541256408691407,7.014563140869141,-0.6369255065917969,-0.687027096748352,0.1243347376585006,-0.0349694341421127,-19.618133544921875,-137.61143493652344,-273.48736572265625
1699734320,-4.903503112792969,6.982829132080078,-0.3052153015136719,-0.6602636575698853,0.1950144916772842,-0.2843712866306305,-19.419601440429688,-137.6342010498047,-273.34033203125
1699734320,-5.281317443847657,7.040159912109376,0.4284091186523437,-0.7071805596351624,0.4667623937129974,-0.6282562017440796,-19.26850891113281,-137.84063720703125,-273.18914794921875
1699734320,-5.700445861816407,7.077133026123048,1.1873309326171877,-0.8798040151596069,0.8960527777671814,-1.019725680351257,-19.536941528320312,-137.45916748046875,-273.2197570800781
1699734320,-6.123166809082032,7.032974853515626,1.6745677185058594,-1.1544175148010254,1.304802417755127,-1.3871763944625854,-19.34730529785156,-137.9698028564453,-273.6976318359375
1699734320,-6.4617626953125,6.910379791259766,1.618883514404297,-1.409399151802063,1.5110578536987305,-1.6342689990997314,-19.550033569335938,-137.7848358154297,-273.6278076171875
1699734320,-6.759044494628907,6.792874145507813,1.4349160766601563,-1.537537693977356,1.4627950191497805,-1.67567777633667,-19.936431884765625,-138.57998657226562,-274.10125732421875
1699734320,-7.067403259277344,6.750063171386719,1.2720547485351563,-1.5011982917785645,1.149815797805786,-1.4998164176940918,-20.577362060546875,-138.3078155517578,-273.5278015136719
1699734320,-7.310946807861328,6.600075073242188,1.1386820983886718,-1.3903543949127195,0.6393038034439087,-1.1679404973983765,-20.06893920898437,-138.76419067382812,-274.1182861328125
1699734320,-7.33639389038086,6.358776855468751,1.1853849792480469,-1.2964409589767456,0.0798394381999969,-0.7738003730773926,-20.561508178710938,-138.79324340820312,-273.8177490234375
1699734320,-7.409142608642578,6.741081848144532,1.8241067504882813,-1.174187421798706,-0.5066192746162415,-0.5159520506858826,-21.08892822265625,-138.89356994628906,-273.8284912109375
1699734320,-7.119794311523438,8.638985137939454,2.3607408142089845,-0.950786590576172,-1.0421239137649536,-0.5502873659133911,-20.948486328125,-138.55284118652344,-273.3516845703125
1699734320,-6.407276000976563,10.63089294433594,2.2230271911621093,-0.7620001435279846,-1.5022590160369873,-0.7731731534004211,-21.2564697265625,-138.71566772460938,-273.2305603027344
1699734320,-5.882916412353516,11.497291259765625,1.9040405273437504,-0.7574248313903809,-1.8007405996322632,-1.0478925704956057,-21.39755249023437,-138.3858642578125,-272.4718017578125
1699734320,-5.866001586914063,12.00668197631836,2.093396759033203,-0.9291699528694152,-1.8493478298187256,-1.2986454963684082,-21.51182556152344,-138.7093505859375,-271.84869384765625
1699734320,-6.116580505371094,12.61112503051758,2.7762767028808595,-1.1877621412277222,-1.5428661108016968,-1.516763687133789,-22.224685668945312,-138.82765197753906,-271.67413330078125
1699734320,-6.335425415039063,13.343402252197269,3.862567749023438,-1.3970434665679932,-0.9165197014808656,-1.717393159866333,-22.439620971679688,-139.24781799316406,-270.59210205078125
1699734320,-6.525829467773438,14.010265502929688,4.534071350097657,-1.4739220142364502,-0.3238877952098846,-1.860476016998291,-22.791824340820312,-139.18167114257812,-270.07257080078125
1699734320,-6.364315338134766,14.3174267578125,4.381089477539063,-1.404093861579895,0.0925379246473312,-1.8539944887161253,-23.27476501464844,-140.056640625,-269.946533203125
1699734320,-5.746549987792969,14.120436401367188,3.8516404724121096,-1.277515172958374,0.3103067278861999,-1.6840879917144775,-23.910919189453125,-140.17543029785156,-269.35845947265625
1699734320,-5.019511871337891,13.57212661743164,3.380270690917969,-1.1523958444595337,0.3338152468204498,-1.4026187658309937,-24.056167602539062,-140.546875,-269.3379211425781
1699734320,-4.419709167480469,12.808564453125,3.0427226257324222,-1.02028226852417,0.166654497385025,-1.063426852226257,-24.638900756835938,-141.19888305664062,-268.8887023925781
1699734320,-3.9603144836425774,11.695030059814451,2.960992584228516,-0.7974460124969482,-0.0783509984612464,-0.7434059381484985,-24.680709838867188,-141.58294677734375,-269.02752685546875
1699734320,-3.59013427734375,10.496173095703126,3.217559051513672,-0.4983424246311188,-0.2641259133815765,-0.5004881024360657,-25.097183227539062,-141.46725463867188,-269.05487060546875
1699734320,-3.663182373046875,9.667346649169923,3.7506005859375,-0.2102349996566772,-0.2753974795341491,-0.3328413367271423,-24.7476806640625,-141.61050415039062,-269.16796875
1699734320,-4.503385162353516,9.485923919677736,4.263733520507813,0.0022333269007503,-0.1663615405559539,-0.2553191184997558,-25.04144287109375,-141.6868896484375,-268.8124084472656
1699734320,-5.553601226806641,9.527088317871094,4.251309356689453,0.143100693821907,-0.0417407900094985,-0.2742946743965149,-25.02679443359375,-141.94668579101562,-268.8369445800781
1699734320,-6.168522491455079,9.135951690673828,3.503614196777344,0.210457906126976,0.0145680233836174,-0.3990659117698669,-25.21821594238281,-141.8157196044922,-268.85955810546875
1699734320,-6.364914093017578,8.532706146240235,2.3471191406250003,0.2665946781635284,-0.0722371786832809,-0.5790820121765137,-25.609588623046875,-141.81654357910156,-268.90771484375
1699734320,-6.511908416748047,7.940088500976563,1.347348175048828,0.340446263551712,-0.272718608379364,-0.7771399617195129,-25.55137634277344,-142.1927947998047,-268.838623046875
1699734320,-6.692433013916016,7.459438018798829,1.0090516662597655,0.4207469522953033,-0.4459045231342315,-0.923354148864746,-25.6751708984375,-142.32467651367188,-269.006591796875
1699734320,-6.824757843017578,6.967261505126953,1.3558804321289064,0.4989807903766632,-0.4578573107719421,-0.907080888748169,-26.023849487304688,-142.53121948242188,-269.509033203125
1699734320,-6.810537414550781,6.408323822021485,2.078278198242188,0.5932998061180115,-0.3360949158668518,-0.7167389392852783,-26.101608276367188,-142.8435821533203,-269.2208251953125
1699734320,-6.604416046142578,5.853128356933594,2.607876892089844,0.7212660312652588,-0.2196023911237716,-0.4078857600688934,-26.10595703125,-143.3638458251953,-269.2722473144531
1699734320,-6.108796691894532,5.420228576660157,2.727777557373047,0.8673651814460754,-0.2261055707931518,-0.077300377190113,-26.34637451171875,-143.47752380371094,-269.56158447265625
1699734320,-5.254523162841797,5.159919891357422,2.753973083496094,0.9955889582633972,-0.3537226617336273,0.2063190788030624,-26.333526611328125,-143.41551208496094,-269.66143798828125
1699734320,-4.2966650390625,4.952002258300782,2.972069549560547,1.0937376022338867,-0.5577815175056458,0.4382830858230591,-26.32626342773437,-143.59072875976562,-269.7266845703125
1699734320,-3.453169097900391,4.813390502929688,3.224594421386719,1.186061143875122,-0.8166820406913757,0.618729829788208,-26.44659423828125,-143.62713623046875,-269.9493408203125
1699734320,-2.8824060058593752,4.775070190429688,3.4190400695800784,1.2610703706741333,-1.0599745512008667,0.7519062161445618,-26.273452758789062,-143.39488220214844,-270.6048583984375
1699734320,-2.6231451416015625,4.922513580322266,3.509452056884766,1.3354122638702393,-1.2187016010284424,0.8357244729995728,-26.23277282714844,-142.8780517578125,-269.913818359375
1699734320,-2.658621368408203,5.097499694824219,3.5278637695312502,1.3939754962921145,-1.2105201482772827,0.9198616743087769,-26.544647216796875,-142.49818420410156,-269.960205078125
