timestamp,acc-x,acc-y,acc-z,gyr-x,gyr-y,gyr-z,mag-x,mag-y,mag-z
1700075506,0.1904754638671875,-0.21051025390625,-0.1060028076171875,-0.8802863359451294,0.0418132282793521,-0.6325042247772217,102.31072998046876,-94.43478393554688,264.4203491210937
1700075506,0.2481536865234375,-0.190185546875,-0.0699615478515625,-0.9829181432724,-0.1026613935828208,-0.9321255683898926,102.34759521484376,-94.20350646972656,264.6317749023437
1700075506,0.22406005859375,-0.1533355712890625,-0.031158447265625,-1.0418033599853516,-0.2453991025686264,-1.1499521732330322,102.40736389160156,-93.78704833984376,264.59588623046875
1700075506,0.154693603515625,-0.106201171875,-0.039154052734375,-1.1435059309005735,-0.3821527063846588,-1.3984464406967163,102.55133056640624,-93.6572265625,264.03387451171875
1700075506,0.12396240234375,-0.1139678955078125,-0.0751800537109375,-1.3043116331100464,-0.5113514065742493,-1.6856437921524048,102.77047729492188,-93.81649780273438,263.5291748046875
1700075506,0.1243133544921875,-0.169769287109375,-0.09796142578125,-1.477624535560608,-0.6136791110038757,-1.939276099205017,103.02029418945312,-93.50411987304688,263.9072265625
1700075506,0.102447509765625,-0.206787109375,-0.1224212646484375,-1.5839345455169678,-0.7109526991844177,-2.064197301864624,102.87039184570312,-93.19915771484376,264.2200927734375
1700075506,0.020660400390625,-0.2223358154296875,-0.10955810546875,-1.7878940105438232,-0.8138484358787537,-2.1788196563720703,103.09512329101562,-92.6630859375,263.659423828125
1700075506,-0.0403900146484375,-0.1951904296875,-0.14892578125,-2.1041505336761475,-0.9407523274421692,-2.378712654113769,102.96498107910156,-92.66481018066406,263.9939270019531
1700075506,-0.0270538330078125,-0.0858306884765625,-0.201080322265625,-2.296437740325928,-1.131581425666809,-2.555184841156006,103.2799835205078,-91.87774658203124,263.9654846191406
1700075506,0.000518798828125,0.020172119140625,-0.172149658203125,-2.0517396926879883,-1.2591795921325684,-2.6133031845092773,103.55436706542967,-91.76026916503906,263.8608703613281
1700075506,-0.0132598876953125,0.163177490234375,-0.1197662353515625,-1.5101572275161743,-1.2868850231170654,-2.643303632736206,103.82403564453124,-91.33976745605467,263.4891967773437
1700075506,-0.03387451171875,0.3984222412109375,-0.1329345703125,-0.9896767139434814,-1.2789863348007202,-2.7523202896118164,103.81044006347656,-91.39236450195312,263.2571105957031
1700075506,-0.026824951171875,0.647308349609375,-0.3191375732421875,-0.4907896816730499,-1.143473744392395,-2.849507093429565,103.66233825683594,-91.00538635253906,262.9720458984375
1700075506,0.0277099609375,0.772705078125,-0.5046539306640625,-0.1625867784023285,-0.9411057233810424,-2.7754364013671875,103.5485382080078,-90.25244140625,262.6882629394531
1700075506,0.1124725341796875,0.8487548828125,-0.6239776611328125,0.1587853878736496,-0.7691656351089478,-2.478190422058105,103.73330688476562,-90.23326110839844,263.0625
1700075506,0.1740875244140625,0.962188720703125,-0.7415313720703125,0.3324402570724487,-0.6277488470077515,-2.150132656097412,103.73883056640624,-89.80021667480469,262.8369140625
1700075506,0.245819091796875,1.1005401611328125,-0.8960723876953125,0.1955774873495102,-0.5055041909217834,-1.732107162475586,104.07632446289062,-89.70350646972656,263.00048828125
1700075506,0.3128662109375,1.281158447265625,-0.996429443359375,-0.0302937235683202,-0.4160225093364715,-1.2439275979995728,104.3566436767578,-89.857421875,262.3860778808594
1700075506,0.356231689453125,1.5193939208984375,-0.959747314453125,-0.1198052316904068,-0.3111871778964996,-0.8647334575653076,104.47386169433594,-88.96507263183594,262.08941650390625
1700075506,0.4084625244140625,1.64276123046875,-0.8728790283203125,-0.1147193908691406,-0.2523995041847229,-0.5442694425582886,104.72991943359376,-88.84988403320312,262.5584716796875
1700075506,0.3630218505859375,1.764007568359375,-0.777252197265625,-0.1548132747411728,-0.1854359060525894,-0.3486759662628174,104.5464324951172,-88.42918395996094,262.44512939453125
1700075506,0.30084228515625,1.7501983642578125,-0.7099609375,-0.4127516150474548,0.5448537468910217,-0.5000036954879761,104.71536254882812,-88.18453979492188,262.40802001953125
1700075506,0.2566986083984375,1.4403533935546875,-1.0980682373046875,0.3017007410526275,0.7889010310173035,-0.3565309643745422,104.76649475097656,-87.9906005859375,261.7099609375
1700075506,0.075653076171875,1.2232513427734375,-1.2645721435546875,0.4380748271942138,0.2503661811351776,-0.2373241335153579,104.7824249267578,-87.12045288085938,261.96051025390625
1700075506,0.7320098876953125,0.94036865234375,-0.5483856201171875,0.089724026620388,-0.2242682576179504,-0.8407061696052551,104.82614135742188,-86.83544921875,261.6849975585937
1700075506,1.827117919921875,0.1385040283203125,-0.014617919921875,0.4374330043792724,-0.194858431816101,-0.8608796000480652,104.97235107421876,-86.44451904296875,261.66668701171875
1700075506,1.9585723876953125,-0.00274658203125,0.3440093994140625,0.92656409740448,0.1557501852512359,-0.0407213307917118,105.0761260986328,-85.92477416992188,261.5636901855469
1700075506,1.41607666015625,0.25177001953125,-0.1394195556640625,1.1654690504074097,-0.1180853620171547,0.8606745600700378,105.2998504638672,-85.24990844726562,261.9071044921875
1700075506,1.4046783447265625,0.615814208984375,-0.55450439453125,0.1864713430404663,-0.767275333404541,0.8897602558135986,105.35130310058594,-85.06291198730469,261.8619079589844
1700075506,2.1761016845703125,0.58489990234375,-0.22943115234375,-0.902150332927704,-0.4687757492065429,0.6139510273933411,105.34718322753906,-84.38661193847656,261.5145874023437
1700075506,2.010604858398437,0.4756317138671875,-0.13763427734375,-0.7614784240722656,-0.1778874397277832,0.49268639087677,105.6978759765625,-83.99726867675781,261.0966186523437
1700075506,0.8990020751953125,0.21038818359375,-0.4186859130859375,-0.3660541474819183,-0.2497904002666473,0.4308363497257232,105.48001098632812,-83.53794860839844,261.95654296875
1700075506,0.480438232421875,-0.02178955078125,-0.6739959716796875,-0.0592393539845943,-0.3511425852775574,0.5875098705291748,105.6858367919922,-83.1761474609375,261.5749816894531
1700075506,0.4464263916015625,0.0762939453125,-0.54766845703125,-0.1468834578990936,-0.2540192306041717,0.5495925545692444,105.8032684326172,-82.48123168945312,262.1791076660156
1700075506,0.539794921875,0.262481689453125,-0.3596343994140625,-0.3776652812957763,-0.1039671450853347,0.2729282081127167,105.7193603515625,-82.21636962890625,261.76953125
1700075506,0.7136688232421875,0.4180145263671875,-0.28326416015625,-0.4057632088661194,-0.0429203025996685,0.0512376204133033,106.15284729003906,-81.40750122070312,261.87091064453125
1700075506,0.916290283203125,0.4956512451171875,-0.2934417724609375,-0.2926843166351318,-0.0498218834400177,-0.0508424080908298,106.23551940917967,-80.92393493652344,261.52752685546875
1700075506,1.051055908203125,0.4160003662109375,-0.3120880126953125,-0.2336180806159973,-0.0374248698353767,-0.1201556995511055,105.94525146484376,-80.2900390625,261.4790954589844
1700075506,1.065399169921875,0.2257232666015625,-0.3952178955078125,-0.1865243464708328,-0.0887333303689956,-0.1166504472494125,106.24412536621094,-79.48558044433594,261.5107421875
1700075506,1.0265960693359375,0.099395751953125,-0.5041351318359375,-0.1271126717329025,-0.2001035362482071,-0.0472213067114353,106.37272644042967,-78.89541625976562,261.9843139648437
1700075506,1.0650787353515625,0.0629730224609375,-0.51446533203125,-0.0993297845125198,-0.3040110170841217,0.0474114567041397,106.28181457519533,-78.18278503417969,262.6024475097656
1700075506,1.0940704345703125,0.1352386474609375,-0.4706268310546875,-0.1242226138710975,-0.3753062486648559,0.0474625900387764,106.48782348632812,-77.14601135253906,263.2899169921875
1700075506,1.063232421875,0.2420196533203125,-0.414520263671875,-0.1591398566961288,-0.3908580243587494,-0.0397258400917053,106.72842407226562,-76.82267761230469,263.28643798828125
1700075506,0.999237060546875,0.2813262939453125,-0.3955230712890625,-0.1578048169612884,-0.4086032211780548,-0.1294056624174118,106.3986358642578,-76.51756286621094,263.318115234375
1700075506,0.9632720947265624,0.2762603759765625,-0.4016265869140625,-0.1587973684072494,-0.4184678196907043,-0.2033272832632064,106.10736083984376,-75.33120727539062,263.998779296875
1700075506,0.955322265625,0.2290191650390625,-0.3989715576171875,-0.1836465299129486,-0.4132086038589477,-0.2260901182889938,106.60720825195312,-74.63003540039062,264.2177734375
1700075506,0.9215545654296876,0.1998138427734375,-0.379974365234375,-0.2184127569198608,-0.3922593891620636,-0.2457810044288635,106.36459350585938,-73.67169189453125,263.9856872558594
1700075506,0.8994903564453125,0.186981201171875,-0.3789215087890625,-0.2158776968717575,-0.3764822781085968,-0.2682135999202728,106.30429077148438,-72.62855529785156,264.3387145996094
1700075506,0.8853302001953125,0.2090606689453125,-0.399658203125,-0.2262634932994842,-0.3946868479251861,-0.3248230814933777,106.24723815917967,-71.23341369628906,264.70672607421875
1700075506,0.9210052490234376,0.2326202392578125,-0.3987884521484375,-0.2513326406478882,-0.4144813418388366,-0.375040203332901,105.9415283203125,-70.06991577148438,263.8773193359375
1700075506,0.957855224609375,0.23760986328125,-0.387420654296875,-0.2282720506191253,-0.4231432676315307,-0.4067866802215576,105.80096435546876,-68.56898498535156,263.47589111328125
1700075506,0.965850830078125,0.2258148193359375,-0.3735504150390625,-0.197530910372734,-0.4460075795650482,-0.4246602058410644,105.12754821777344,-67.30307006835938,263.5841064453125
1700075506,0.9675140380859376,0.20709228515625,-0.3738250732421875,-0.181915208697319,-0.4609338045120239,-0.4444384276866913,104.69181823730467,-66.12327575683594,263.18212890625
1700075506,0.9778289794921876,0.1849365234375,-0.3904266357421875,-0.133743941783905,-0.461378276348114,-0.4613194167613983,104.58937072753906,-64.55853271484375,263.3119201660156
1700075506,0.96728515625,0.1748046875,-0.3802337646484375,-0.0803504958748817,-0.4754674732685089,-0.4735523760318756,104.09620666503906,-63.062286376953125,262.8985900878906
1700075506,0.9470062255859376,0.1821441650390625,-0.3605499267578125,-0.0541495196521282,-0.4762120842933655,-0.527662992477417,104.18276977539062,-61.89872741699219,263.053955078125
1700075506,0.9377288818359376,0.17572021484375,-0.348968505859375,-0.0013840447645634,-0.454505443572998,-0.5917365550994873,103.32730102539062,-61.01689147949219,262.819580078125
1700075506,0.9208984375,0.170166015625,-0.356842041015625,0.0679739937186241,-0.4322867095470428,-0.6507575511932373,103.345458984375,-59.71022033691406,262.9081115722656
1700075506,0.925140380859375,0.17156982421875,-0.3552093505859375,0.1545823812484741,-0.4306581914424896,-0.6891720294952393,102.9613800048828,-58.8880615234375,263.4431457519531
1700075506,0.92852783203125,0.1884918212890625,-0.3357391357421875,0.1799529939889907,-0.4364012777805328,-0.7091851234436035,102.71987915039062,-58.32052612304688,263.0926513671875
1700075506,0.9376983642578124,0.2097015380859375,-0.31134033203125,0.1433555632829666,-0.4052875638008117,-0.735072672367096,102.00740051269533,-57.32673645019531,263.0655517578125
1700075506,0.9525299072265624,0.203704833984375,-0.302825927734375,0.104384995996952,-0.3860100209712982,-0.7534223794937134,101.67710876464844,-56.29881286621094,263.079833984375
1700075506,0.933319091796875,0.1743316650390625,-0.3000640869140625,0.0919712036848068,-0.3695111870765686,-0.7152481079101562,101.48480224609376,-55.41633605957031,263.8411865234375
1700075506,0.91302490234375,0.133697509765625,-0.29913330078125,0.0515540055930614,-0.3585136830806732,-0.6510251760482788,101.18283081054688,-55.19476318359375,263.9808654785156
1700075506,0.9071044921875,0.0858001708984375,-0.2631683349609375,-0.0361870341002941,-0.3166024386882782,-0.5833830237388611,100.6240234375,-54.26841735839844,265.1605834960937
1700075506,0.91986083984375,0.041351318359375,-0.27789306640625,-0.0399897620081901,-0.2906824350357055,-0.5215579867362976,100.51547241210938,-53.84487915039063,264.5147705078125
1700075506,0.940460205078125,-0.0021514892578125,-0.3109130859375,0.1034768596291542,-0.2896917462348938,-0.4926903843879699,100.22987365722656,-53.639678955078125,265.3760986328125
1700075506,0.935272216796875,-0.0387420654296875,-0.3122711181640625,0.2186172902584076,-0.3033673465251922,-0.4995024800300598,99.7919464111328,-53.26911926269531,265.8426513671875
1700075506,0.919525146484375,-0.0433349609375,-0.2969970703125,0.2448944449424743,-0.2656899988651275,-0.4659117758274078,99.87704467773438,-53.04560852050781,266.652587890625
1700075506,0.906494140625,0.0081024169921875,-0.2670745849609375,0.2312121838331222,-0.2382945865392685,-0.4187493324279785,100.0796356201172,-53.125396728515625,266.557373046875
1700075506,0.8978271484375,0.0488128662109375,-0.23651123046875,0.1754682213068008,-0.2155485302209854,-0.3982986509799957,99.93894958496094,-53.47760009765625,266.83380126953125
1700075506,0.9329986572265624,0.0235443115234375,-0.2542877197265625,0.1645865440368652,-0.183628425002098,-0.3230124115943908,99.75038146972656,-53.42271423339844,267.29852294921875
1700075506,0.945556640625,0.01611328125,-0.292724609375,0.2022809386253357,-0.1858713328838348,-0.2654367387294769,99.60252380371094,-53.499114990234375,267.50225830078125
1700075506,0.9459686279296876,-0.0150146484375,-0.275909423828125,0.2811855971813202,-0.1558511108160019,-0.1994731575250625,99.93043518066406,-53.85566711425781,267.6489562988281
1700075506,0.95037841796875,-0.04425048828125,-0.2644500732421875,0.3139422237873077,-0.134004145860672,-0.1632634848356247,99.92074584960938,-54.0250244140625,268.5638427734375
1700075506,0.941070556640625,-0.0555877685546875,-0.261474609375,0.2958031594753265,-0.1151308491826057,-0.1190329119563102,100.52317810058594,-54.66615295410156,269.2066650390625
1700075506,0.93328857421875,-0.0701904296875,-0.2553253173828125,0.2920459806919098,-0.0976477265357971,-0.047830905765295,100.12486267089844,-54.681884765625,269.156005859375
1700075506,0.903228759765625,-0.05645751953125,-0.2931976318359375,0.2830876410007477,-0.092186115682125,0.0139837265014648,100.22117614746094,-55.28352355957031,269.9263610839844
1700075506,0.916351318359375,-0.022308349609375,-0.3149261474609375,0.2604108154773712,-0.1154640093445777,0.0284228529781103,100.5349578857422,-55.68382263183594,270.0572814941406
1700075506,0.977630615234375,-0.0099945068359375,-0.2667694091796875,0.2263638973236084,-0.0843321904540062,0.0515521392226219,100.69769287109376,-56.274749755859375,271.67047119140625
1700075506,1.01544189453125,-0.0093536376953125,-0.24139404296875,0.2709446847438812,-0.0419075042009353,0.1080516353249549,100.96234130859376,-56.86065673828125,272.3174743652344
1700075506,0.99346923828125,-0.004119873046875,-0.21630859375,0.3011004626750946,-0.0120300315320491,0.1909172236919403,101.06768798828124,-57.31005859375,273.23797607421875
1700075506,0.991241455078125,0.007354736328125,-0.148284912109375,0.2440203875303268,0.0483321137726306,0.2862133681774139,100.98658752441406,-57.94902038574219,273.5723571777344
1700075506,0.9901885986328124,-0.0041656494140625,-0.171234130859375,0.1786709427833557,0.0977009907364845,0.3817508220672607,101.28662109375,-58.9307861328125,274.6376342773437
1700075506,1.0108184814453125,-0.076873779296875,-0.2489166259765625,0.171414628624916,0.1004017069935798,0.4470241069793701,101.08094787597656,-59.6517333984375,274.6722717285156
1700075506,1.0423126220703125,-0.13873291015625,-0.27545166015625,0.260422796010971,0.0866933465003967,0.5184732675552368,101.56539916992188,-60.13581848144531,276.057373046875
1700075506,1.0522003173828125,-0.1193084716796875,-0.2774810791015625,0.2837717831134796,0.0544541887938976,0.5719636678695679,101.2923583984375,-60.41209411621094,276.8794250488281
1700075506,1.0812225341796875,0.0032958984375,-0.293121337890625,0.3003893792629242,0.0261503774672746,0.570087194442749,101.32345581054688,-60.63621520996094,278.3585510253906
1700075506,1.143280029296875,0.0794677734375,-0.2315521240234375,0.3589105010032654,0.0120292324572801,0.5887157320976257,100.751953125,-61.02015686035156,278.5228271484375
1700075507,1.194305419921875,0.12347412109375,-0.1876373291015625,0.3422801196575165,-0.0618540458381176,0.6497271656990051,100.93814086914062,-61.308441162109375,279.802001953125
1700075507,1.2388458251953125,0.1592559814453125,-0.175537109375,0.2837963104248047,-0.1125776767730712,0.6868888735771179,100.91836547851562,-61.45353698730469,280.1625366210937
1700075507,1.305572509765625,0.1236724853515625,-0.1357879638671875,0.2609468996524811,-0.0975936651229858,0.7221616506576538,101.09548950195312,-61.9873046875,280.7707214355469
1700075507,1.33148193359375,0.037841796875,-0.1132659912109375,0.2783544063568115,-0.0795752555131912,0.785354733467102,100.89279174804688,-62.23255920410156,281.0635986328125
1700075507,1.35479736328125,-0.04388427734375,-0.1390838623046875,0.3579693138599396,-0.1228750571608543,0.8638407588005066,100.64533996582033,-62.376739501953125,282.210693359375
1700075507,1.4152374267578125,-0.0824127197265625,-0.1284332275390625,0.516369104385376,-0.1273371875286102,0.8766812086105347,100.90476989746094,-62.67793273925781,282.7562866210937
1700075507,1.503570556640625,-0.129150390625,-0.071197509765625,0.7336217761039734,-0.1240146234631538,0.86036616563797,100.76315307617188,-62.21760559082031,282.8651428222656
1700075507,1.5576324462890625,-0.122711181640625,-0.02508544921875,0.993070662021637,-0.1644382178783416,0.8791409134864807,100.62507629394533,-62.57847595214844,282.9755249023437
1700075507,1.600494384765625,-0.06024169921875,0.0601348876953125,1.2713968753814695,-0.2041070610284805,0.8767837285995483,100.85494995117188,-62.20097351074219,283.552490234375
1700075507,1.6262054443359375,-0.056365966796875,0.19390869140625,1.4624240398406982,-0.1609247028827667,0.8489211797714233,100.7593231201172,-62.25077819824219,283.98223876953125
1700075507,1.6518707275390625,-0.142608642578125,0.2991180419921875,1.5392330884933472,-0.1398433893918991,0.8416507840156555,101.25608825683594,-61.84136962890625,283.80401611328125
1700075507,1.647735595703125,-0.2551422119140625,0.36151123046875,1.495380401611328,-0.1740458309650421,0.844455361366272,101.10537719726562,-61.51109313964844,283.61590576171875
1700075507,1.5799713134765625,-0.3842926025390625,0.333770751953125,1.2253574132919312,-0.0490530282258987,0.8890315890312195,101.18516540527344,-61.45570373535156,284.1444396972656
1700075507,1.4190216064453125,-0.47235107421875,0.1097564697265625,0.6846009492874146,0.4220708012580871,1.0689857006072998,101.27174377441406,-61.52494812011719,284.02557373046875
1700075507,1.18548583984375,-0.4094085693359375,-0.4298858642578125,-0.2222559750080108,0.9434607625007628,1.497646689414978,101.06387329101562,-61.83842468261719,284.1937255859375
1700075507,0.93798828125,-0.0977935791015625,-0.9752655029296876,-1.1935243606567385,1.2956252098083496,1.9534728527069087,100.9299774169922,-61.37214660644531,284.42059326171875
1700075507,0.892974853515625,0.12744140625,-1.4086761474609375,-1.637054204940796,1.1379932165145874,2.323773145675659,101.21087646484376,-60.98966979980469,284.445556640625
1700075507,1.163360595703125,0.217742919921875,-1.524871826171875,-1.4461654424667358,0.9001713395118713,2.673145771026612,101.04924011230467,-60.653167724609375,284.2037353515625
1700075507,1.4333953857421875,0.3296051025390625,-1.2235565185546875,-0.8471925258636475,0.7033522725105286,2.819300651550293,100.82951354980467,-60.12574768066406,283.7362060546875
1700075507,1.4993743896484375,0.3986053466796875,-0.634033203125,-0.3083106875419616,0.8244523406028748,2.8022115230560303,101.05387878417967,-59.89482116699219,283.7118225097656
1700075507,1.3936309814453125,0.4561004638671875,-0.396484375,0.365211009979248,1.2844133377075195,2.7854866981506348,100.6507568359375,-59.29171752929688,284.55322265625
1700075507,1.318572998046875,0.629852294921875,-0.43292236328125,1.102006435394287,1.3477131128311155,2.763237953186035,100.832763671875,-59.34870910644531,284.3746337890625
1700075507,1.437591552734375,0.8599395751953125,-0.20941162109375,1.2178674936294556,1.3639222383499146,2.564150094985962,100.6885223388672,-59.02310180664063,284.3639831542969
1700075507,1.598388671875,0.9297637939453124,-0.3013153076171875,1.3066264390945437,1.475798726081848,2.3500397205352783,100.47532653808594,-58.91273498535156,284.68768310546875
1700075507,1.598114013671875,0.848114013671875,-0.49981689453125,1.6677130460739136,1.4853460788726809,2.230269193649292,100.78309631347656,-58.74635314941406,284.4434814453125
1700075507,1.4998931884765625,0.68743896484375,-0.5352020263671875,1.886311411857605,1.3890068531036377,2.160861730575561,100.47076416015624,-58.45970153808594,284.439208984375
1700075507,1.47607421875,0.5627593994140625,-0.607391357421875,1.7500121593475342,1.20802640914917,2.096521377563477,100.81828308105467,-58.96156311035156,283.9626159667969
1700075507,1.470611572265625,0.436187744140625,-0.6602020263671875,1.2970592975616455,1.0052956342697144,2.019242763519287,100.442626953125,-58.7069091796875,283.8060913085937
1700075507,1.4565582275390625,0.3014984130859375,-0.652740478515625,0.6795023679733276,0.8084046840667725,1.9157392978668213,100.53089904785156,-58.87603759765625,284.3143310546875
1700075507,1.3851318359375,0.1613311767578125,-0.599853515625,0.0270649064332246,0.7236527800559998,1.7548638582229614,100.7166748046875,-58.71763610839844,283.946533203125
1700075507,1.2345123291015625,0.02886962890625,-0.5697021484375,-0.4732751548290252,0.6257858872413635,1.5940643548965454,100.67173767089844,-59.00910949707031,284.3202514648437
1700075507,1.02032470703125,-0.0722503662109375,-0.4813385009765625,-0.8579434752464294,0.5562038421630859,1.4519200325012207,100.60195922851562,-59.05938720703125,284.4755859375
1700075507,0.7977142333984375,-0.149383544921875,-0.39276123046875,-1.1540051698684692,0.5059792995452881,1.239346981048584,100.46469116210938,-59.23995971679688,284.5145874023437
1700075507,0.6448516845703125,-0.232635498046875,-0.3411102294921875,-1.3530919551849363,0.4525264501571655,1.0162439346313477,100.74517822265624,-59.646728515625,284.801025390625
1700075507,0.5010223388671875,-0.257781982421875,-0.31939697265625,-1.4494160413742063,0.3988075852394104,0.8083357214927673,100.44113159179688,-59.73326110839844,284.45623779296875
1700075507,0.3530426025390625,-0.2389068603515625,-0.30755615234375,-1.4840071201324463,0.3557091057300567,0.538644552230835,100.5962371826172,-60.0279541015625,284.6129150390625
1700075507,0.2625579833984375,-0.2392730712890625,-0.3043975830078125,-1.382135272026062,0.284374475479126,0.2560624182224273,100.98646545410156,-60.11227416992188,284.57440185546875
1700075507,0.227142333984375,-0.220916748046875,-0.2410125732421875,-1.2392463684082031,0.1666568964719772,-0.0139552298933267,100.7741241455078,-59.96961975097656,284.9442138671875
1700075507,0.2295074462890625,-0.1668243408203125,-0.1821136474609375,-1.1156657934188845,0.0335081592202186,-0.3088300228118896,100.68539428710938,-60.375274658203125,285.1251220703125
1700075507,0.2636260986328125,-0.11529541015625,-0.15478515625,-0.9964078664779664,-0.1045088320970535,-0.5900275707244873,100.64178466796876,-61.04541015625,285.385498046875
1700075507,0.2631988525390625,-0.0599212646484375,-0.1412200927734375,-0.8598388433456421,-0.2419860064983368,-0.8884832859039307,100.73085021972656,-60.7520751953125,285.22344970703125
1700075507,0.2064208984375,-0.0518798828125,-0.151031494140625,-0.7924813628196716,-0.3134649693965912,-1.1808741092681885,100.76766967773438,-61.24916076660156,285.0853271484375
1700075507,0.13232421875,-0.10247802734375,-0.1798095703125,-0.7596853375434875,-0.3843713700771332,-1.446541428565979,100.77555847167967,-61.73545837402344,285.1058349609375
1700075507,0.078948974609375,-0.1565704345703125,-0.1893310546875,-0.7677866816520691,-0.4643197357654571,-1.6661912202835083,100.59339904785156,-61.824310302734375,285.08233642578125
1700075507,0.053009033203125,-0.179534912109375,-0.212890625,-0.8095564842224121,-0.5345723032951355,-1.8792753219604488,100.64678955078124,-62.11970520019531,285.83892822265625
1700075507,0.0498199462890625,-0.17498779296875,-0.231048583984375,-0.91820228099823,-0.6068568825721741,-2.091116428375244,100.1459503173828,-62.73361206054688,286.0721130371094
1700075507,0.0399932861328125,-0.1248016357421875,-0.2291259765625,-1.1257719993591309,-0.6725136637687683,-2.328120946884156,100.44039916992188,-62.75128173828125,285.60986328125
1700075507,0.05078125,-0.0817108154296875,-0.2529754638671875,-1.325092315673828,-0.7557028532028198,-2.509814977645874,100.26295471191406,-62.920013427734375,285.5570068359375
1700075507,0.0719757080078125,-0.0149383544921875,-0.244903564453125,-1.47135329246521,-0.8400281071662903,-2.6148526668548584,100.64341735839844,-63.21694946289063,285.727783203125
1700075507,0.0970611572265625,0.0765838623046875,-0.2425994873046875,-1.3861033916473389,-0.8546930551528931,-2.660229206085205,100.53196716308594,-63.96597290039063,285.8124389648437
1700075507,0.1192169189453125,0.1851348876953125,-0.245574951171875,-1.2041006088256836,-0.8637198805809021,-2.7168407440185547,100.36341857910156,-63.67875671386719,285.43365478515625
1700075507,0.1325531005859375,0.3509521484375,-0.280303955078125,-0.9677831530570984,-0.8495507836341858,-2.784499406814575,100.41502380371094,-64.06747436523438,286.01470947265625
1700075507,0.1902618408203125,0.48858642578125,-0.3689117431640625,-0.6984480619430542,-0.8222491145133972,-2.74575138092041,100.38893127441406,-64.37548828125,286.087890625
1700075507,0.257965087890625,0.6156768798828125,-0.43780517578125,-0.3834568560123443,-0.8217761516571045,-2.540611982345581,100.49758911132812,-64.67631530761719,286.1286926269531
1700075507,0.3111724853515625,0.8296356201171875,-0.4581146240234375,0.0092190643772482,-0.8058291077613831,-2.3027877807617188,100.33535766601562,-65.12062072753906,286.087890625
1700075507,0.3639984130859375,1.0259552001953125,-0.5007171630859375,0.4018965661525726,-0.712282657623291,-2.0247631072998047,100.3699188232422,-65.16822814941406,286.3100280761719
1700075507,0.4136810302734375,1.1972503662109375,-0.62164306640625,0.5488583445549011,-0.650407075881958,-1.6196317672729492,100.49177551269533,-64.97378540039062,285.67919921875
1700075507,0.414520263671875,1.52081298828125,-0.7661285400390625,0.4883710145950317,-0.6161036491394043,-1.328788995742798,100.52249145507812,-65.43296813964844,286.8973999023437
1700075507,0.477386474609375,1.7068328857421875,-0.7598724365234375,0.5233404636383057,-0.5018740296363831,-1.0498974323272705,100.43663024902344,-65.66543579101562,286.5368347167969
1700075507,0.4640350341796875,1.7458648681640625,-0.69683837890625,0.6367639303207397,-0.3420638740062713,-0.7074032425880432,100.23484802246094,-65.65101623535156,286.5140380859375
1700075507,0.3470306396484375,1.68414306640625,-0.6737823486328125,0.6022744178771973,-0.0416947156190872,-0.4577678143978119,100.2509765625,-65.32789611816406,286.78643798828125
1700075507,0.3446044921875,1.53143310546875,-0.7916259765625,0.7651472091674805,0.4630006849765777,-0.0198597256094217,100.34817504882812,-65.4410400390625,286.4117431640625
1700075507,0.2676239013671875,1.6005706787109375,-1.3063812255859375,1.374196171760559,0.3433896005153656,0.3835439383983612,100.14862060546876,-65.49627685546875,287.3284912109375
1700075507,0.3993072509765625,1.8218994140625,-1.157958984375,0.7846945524215698,-0.1884247660636901,-0.0002540655550546,100.08787536621094,-65.60906982421875,286.61871337890625
1700075507,1.50335693359375,1.2512969970703125,-0.329559326171875,0.1916325539350509,-0.4411787390708923,-0.298123300075531,100.0224151611328,-65.74801635742188,286.9453430175781
1700075507,1.8319854736328125,0.55810546875,0.5677947998046875,0.4338483810424804,-0.3145534098148346,-0.1885459423065185,100.3102569580078,-65.30108642578125,287.01220703125
1700075507,1.2573699951171875,-0.03857421875,0.647857666015625,0.2205632627010345,-0.2524173259735107,0.3418891727924347,100.19949340820312,-65.21241760253906,287.0059509277344
1700075507,0.9027862548828124,-0.245025634765625,-0.1001434326171875,-0.2276965379714965,-0.263938695192337,0.64211106300354,100.37747192382812,-65.17349243164062,287.4081420898437
1700075507,1.0687713623046875,-0.2640838623046875,-0.8201751708984375,-0.176913782954216,-0.3523423373699188,0.7817254066467285,99.70915222167967,-64.59603881835938,286.8970642089844
1700075507,1.21875,-0.1669158935546875,-0.7829742431640625,-0.2835017442703247,-0.3208650946617126,0.9141481518745422,100.21257019042967,-64.91964721679688,286.75311279296875
1700075507,1.115966796875,0.1358184814453125,-0.6217803955078125,-0.1741241216659546,-0.2421612292528152,0.8874076008796692,99.55654907226562,-64.36019897460938,286.9715270996094
1700075507,0.95025634765625,0.419525146484375,-0.43695068359375,0.0517609305679798,-0.1658829748630523,0.8033633232116699,99.66709899902344,-63.86393737792969,286.5829467773437
1700075507,0.7922515869140625,0.6562042236328125,-0.211151123046875,-0.0237452760338783,-0.1183444857597351,0.5924055576324463,99.51814270019533,-63.425140380859375,286.99383544921875
1700075507,0.7754058837890625,0.796630859375,-0.15185546875,-0.1306933015584945,-0.0892569050192833,0.2808756232261657,99.56916809082033,-63.49430847167969,287.20458984375
1700075507,0.7811737060546875,0.8149261474609375,-0.216033935546875,-0.2451860606670379,-0.0945773720741272,0.002895921235904,99.47772216796876,-63.18035888671875,287.16796875
1700075507,0.9655303955078124,0.6506500244140625,-0.293731689453125,-0.2972484529018402,-0.0750276371836662,-0.1460882276296615,99.83782958984376,-63.46832275390625,286.6199645996094
1700075507,1.1688690185546875,0.3986968994140625,-0.398590087890625,-0.1988462507724762,-0.0723908394575119,-0.1205876693129539,99.21369934082033,-63.15260314941406,287.7331848144531
1700075507,1.151885986328125,0.18475341796875,-0.4196014404296875,-0.1220856979489326,-0.0901285633444786,-0.0314599201083183,99.51470947265624,-62.97889709472656,287.2933044433594
1700075507,1.0151519775390625,0.077789306640625,-0.432403564453125,-0.1775761246681213,-0.0862209051847457,0.0255748685449361,99.25933837890624,-62.7132568359375,287.3845520019531
1700075507,0.900726318359375,0.1204376220703125,-0.423675537109375,-0.2070296108722686,-0.0502013862133026,-0.0105101652443408,99.07868957519533,-62.29539489746094,287.61358642578125
1700075507,0.833099365234375,0.2268524169921875,-0.4079132080078125,-0.1729792356491089,-0.0445544198155403,-0.112107366323471,98.89512634277344,-62.56352233886719,287.71807861328125
1700075507,0.8373565673828125,0.284637451171875,-0.4170379638671875,-0.0842504352331161,-0.0940356850624084,-0.2045440822839737,98.91812133789062,-62.03781127929688,287.7793273925781
1700075507,0.89129638671875,0.328765869140625,-0.446563720703125,-0.0433338917791843,-0.1930552124977111,-0.2752440869808197,98.23583984375,-61.94621276855469,288.4149780273437
1700075507,0.9596099853515624,0.357666015625,-0.4533538818359375,-0.0326660685241222,-0.2816852033138275,-0.3486069738864898,98.55705261230467,-61.643310546875,288.3707580566406
1700075507,0.9524078369140624,0.35675048828125,-0.4372100830078125,-0.0560787171125412,-0.3394710123538971,-0.4179610311985016,98.46226501464844,-61.09307861328125,288.7372436523437
1700075507,0.9196319580078124,0.3382720947265625,-0.4245147705078125,-0.0779046490788459,-0.3874191045761108,-0.4751137793064117,98.11180114746094,-60.85910034179688,289.3162536621094
1700075507,0.9146728515625,0.3036956787109375,-0.4134063720703125,-0.0622804202139377,-0.4289425611495971,-0.4981440007686615,97.31161499023438,-60.205841064453125,289.67120361328125
1700075507,0.914764404296875,0.2758636474609375,-0.4228057861328125,-0.0574768744409084,-0.4719992280006408,-0.515694797039032,97.12440490722656,-60.06986999511719,289.36004638671875
1700075507,0.945953369140625,0.24407958984375,-0.4147491455078125,-0.081057570874691,-0.4939820170402527,-0.5145975351333618,96.98112487792967,-58.759674072265625,289.36846923828125
1700075507,0.979248046875,0.221954345703125,-0.38555908203125,-0.1293076574802398,-0.4901723861694336,-0.4951367676258087,96.27484130859376,-57.74864196777344,289.01519775390625
1700075507,0.98480224609375,0.20306396484375,-0.355804443359375,-0.165102407336235,-0.4796126782894134,-0.4585798382759094,96.41493225097656,-56.27764892578125,289.2479858398437
1700075507,0.9789581298828124,0.200103759765625,-0.33819580078125,-0.1900623440742492,-0.473893791437149,-0.4380146265029907,95.6311492919922,-54.64057922363281,288.3370361328125
1700075507,1.0168304443359375,0.18963623046875,-0.3226776123046875,-0.1764067262411117,-0.4625591337680816,-0.4319911003112793,95.2138671875,-53.15177917480469,287.8101806640625
1700075507,1.0530242919921875,0.180694580078125,-0.3309478759765625,-0.0802026912569999,-0.465972751379013,-0.4233153164386749,94.67910766601562,-51.760498046875,286.95758056640625
1700075507,1.033203125,0.19384765625,-0.3439483642578125,0.015117167495191,-0.5002284646034241,-0.4238777756690979,93.94668579101562,-50.12272644042969,286.23565673828125
1700075507,0.9884033203125,0.2285614013671875,-0.35546875,0.0645238682627677,-0.5347781777381897,-0.4723012149333954,93.00978088378906,-48.161224365234375,285.8611145019531
1700075507,0.9632110595703124,0.261962890625,-0.3523406982421875,0.0460646972060203,-0.536316454410553,-0.5586510300636292,92.32041931152344,-46.77066040039063,284.9840087890625
1700075507,0.9483795166015624,0.2829742431640625,-0.32733154296875,-0.0203532092273235,-0.5231620073318481,-0.6325777173042297,91.3526611328125,-45.49508666992188,284.1214294433594
1700075507,0.9503936767578124,0.2771453857421875,-0.2949981689453125,-0.0571096241474151,-0.5110654234886169,-0.6703833937644958,90.95042419433594,-44.29777526855469,283.4891357421875
1700075508,0.9910888671875,0.2303619384765625,-0.2923736572265625,-0.0744590535759925,-0.503972589969635,-0.6559205651283264,90.7384033203125,-43.45506286621094,282.3778076171875
1700075508,1.0372467041015625,0.1617889404296875,-0.3064727783203125,-0.0822823569178581,-0.502993106842041,-0.5957384705543518,89.98805236816406,-42.99604797363281,281.5699768066406
1700075508,1.0491790771484375,0.108673095703125,-0.3230438232421875,-0.0200330968946218,-0.5011158585548401,-0.5268353223800659,88.89494323730469,-42.36280822753906,281.4471435546875
1700075508,1.0395050048828125,0.074859619140625,-0.31268310546875,0.0448127463459968,-0.4684244692325592,-0.4735068380832672,88.57826232910156,-41.67803955078125,280.9325561523437
1700075508,0.9967498779296876,0.080352783203125,-0.3112335205078125,0.0439461506903171,-0.4475711286067962,-0.4378215372562408,87.44230651855469,-41.60066223144531,280.2098388671875
1700075508,0.935791015625,0.124298095703125,-0.3115081787109375,-0.0025941852945834,-0.4534077048301697,-0.4225328862667084,86.93338012695312,-40.907135009765625,279.7314453125
1700075508,0.8885650634765625,0.160308837890625,-0.2757720947265625,0.0003358246176503,-0.4018888473510742,-0.433179646730423,86.35935974121094,-40.54551696777344,279.3925170898437
1700075508,0.8529510498046875,0.1540679931640625,-0.2603607177734375,0.1755981892347335,-0.3343923687934875,-0.4224950671195984,85.8509521484375,-39.85748291015625,278.2735595703125
1700075508,0.8556671142578125,0.119354248046875,-0.2489776611328125,0.4006555378437042,-0.30955570936203,-0.3993053138256073,85.52534484863281,-39.91697692871094,277.32940673828125
1700075508,0.9228668212890624,0.074951171875,-0.2373809814453125,0.5295109748840332,-0.2880592048168182,-0.3813156485557556,85.17742919921875,-39.747589111328125,276.532958984375
1700075508,0.9950103759765624,0.053680419921875,-0.2292938232421875,0.4961229264736175,-0.2562658786773681,-0.3465704619884491,84.59190368652344,-39.53697204589844,276.34356689453125
1700075508,1.0343170166015625,0.0717926025390625,-0.216583251953125,0.4328233301639557,-0.2269258201122284,-0.320356160402298,84.65370178222656,-39.43852233886719,275.2253723144531
1700075508,1.050811767578125,0.0793609619140625,-0.208221435546875,0.3771171867847442,-0.2232522666454315,-0.2924403846263885,84.3470458984375,-39.35020446777344,274.8666381835937
1700075508,1.04168701171875,0.078857421875,-0.224273681640625,0.3374371528625488,-0.2227055132389068,-0.2522245347499847,84.1668701171875,-39.38642883300781,274.16455078125
1700075508,1.0204620361328125,0.082244873046875,-0.2124481201171875,0.3437653481960296,-0.2071838080883026,-0.1658408939838409,84.44563293457031,-39.34736633300781,273.7885131835937
1700075508,0.972900390625,0.0905303955078125,-0.170196533203125,0.3924066722393036,-0.1884045302867889,-0.0933432653546333,84.39903259277344,-39.47364807128906,273.1378173828125
1700075508,0.9197845458984376,0.0615692138671875,-0.1878814697265625,0.4795271754264831,-0.1788600236177444,-0.0486772581934928,84.47412109375,-39.88702392578125,271.92828369140625
1700075508,0.9188690185546876,0.02587890625,-0.2034454345703125,0.4943199753761291,-0.1936879754066467,0.0179648865014314,84.98487854003906,-39.57173156738281,272.0401916503906
1700075508,0.970245361328125,0.0381622314453125,-0.1857452392578125,0.4152036011219024,-0.1953220963478088,0.100550577044487,85.31924438476562,-40.109710693359375,271.9561767578125
1700075508,1.031402587890625,0.0373382568359375,-0.1935577392578125,0.2821611166000366,-0.2175272554159164,0.1806001365184784,85.71556091308594,-40.61909484863281,270.72674560546875
1700075508,1.0807342529296875,-0.0041046142578125,-0.2183380126953125,0.2226711511611938,-0.2455913871526718,0.2507326304912567,86.27133178710938,-40.90280151367188,270.7123718261719
1700075508,1.119354248046875,-0.017730712890625,-0.248779296875,0.2623562514781952,-0.3021313548088074,0.2771469056606293,87.11479187011719,-41.33033752441406,270.295166015625
1700075508,1.136138916015625,0.048370361328125,-0.2870330810546875,0.3000476956367492,-0.3945316076278686,0.2463666349649429,87.60987854003906,-41.77055358886719,269.33514404296875
1700075508,1.1508331298828125,0.191375732421875,-0.24505615234375,0.3267624080181122,-0.4439787864685058,0.1763643771409988,88.44830322265625,-42.16047668457031,269.3241882324219
1700075508,1.1863555908203125,0.2909393310546875,-0.10791015625,0.3601225018501282,-0.430441677570343,0.0841439068317413,89.16215515136719,-42.74992370605469,269.12548828125
1700075508,1.227203369140625,0.285919189453125,-0.0051727294921875,0.4023125469684601,-0.4056249856948852,0.0962192118167877,89.67668151855469,-43.43367004394531,269.2991638183594
1700075508,1.2540130615234375,0.179595947265625,-0.0434722900390625,0.3876776993274688,-0.4638361036777496,0.1994324177503585,90.75465393066406,-44.26911926269531,269.4930419921875
1700075508,1.276641845703125,0.03955078125,-0.1693878173828125,0.3555059134960174,-0.5149890184402466,0.2822330296039581,91.21548461914062,-44.97694396972656,269.4992370605469
1700075508,1.3376312255859375,-0.1644439697265625,-0.17144775390625,0.2816694974899292,-0.537058413028717,0.3971497416496277,92.40646362304688,-45.46083068847656,270.235595703125
1700075508,1.373931884765625,-0.3157501220703125,-0.0977935791015625,0.1693141907453537,-0.5470055341720581,0.5646844506263733,93.003662109375,-45.98414611816406,270.125732421875
1700075508,1.3797454833984375,-0.38226318359375,-0.0628204345703125,0.1724857538938522,-0.5756680965423584,0.7361485958099365,93.67367553710938,-46.50770568847656,270.8313293457031
1700075508,1.3897705078125,-0.3942718505859375,-0.0263824462890625,0.3018266856670379,-0.5919128656387329,0.8863639235496521,93.8212432861328,-46.93119812011719,271.44451904296875
1700075508,1.4340057373046875,-0.3577728271484375,0.0731964111328125,0.3169420063495636,-0.5895791053771973,1.0069496631622314,93.94363403320312,-47.01231384277344,271.95269775390625
1700075508,1.45294189453125,-0.2892913818359375,0.138671875,0.3871448040008545,-0.5486354231834412,1.0483161211013794,94.47396850585938,-47.28861999511719,271.18896484375
1700075508,1.3804779052734375,-0.3624725341796875,0.143310546875,0.3411346971988678,-0.4780920147895813,1.107761263847351,94.85064697265624,-47.31797790527344,271.7703857421875
1700075508,1.27557373046875,-0.48504638671875,0.0518798828125,0.1105819046497345,-0.2609556913375854,1.1399171352386477,95.17762756347656,-47.31118774414063,271.3260192871094
1700075508,1.2079620361328125,-0.597259521484375,-0.16943359375,-0.3073407709598541,0.0305541809648275,1.2672268152236938,95.4801025390625,-47.20610046386719,271.28497314453125
1700075508,1.177581787109375,-0.566162109375,-0.5038299560546875,-1.0495624542236328,0.3067136108875274,1.6835993528366089,95.7413330078125,-47.03277587890625,271.5746765136719
1700075508,1.0837860107421875,-0.318939208984375,-0.9614105224609376,-1.7897542715072632,0.4656918048858642,2.234258890151977,96.07662963867188,-47.04151916503906,271.80108642578125
1700075508,1.0247650146484375,-0.097259521484375,-1.3028411865234375,-2.086162805557251,0.6012959480285645,2.6148314476013184,96.4630889892578,-48.0205078125,271.17730712890625
1700075508,1.1141357421875,-0.0203094482421875,-1.337921142578125,-1.973266005516052,0.6448719501495361,2.836182117462158,97.03302001953124,-48.14338684082031,271.8935546875
1700075508,1.2274169921875,0.100372314453125,-1.098052978515625,-1.657315015792847,0.5974564552307129,3.086189031600952,96.5723876953125,-47.674407958984375,272.1103515625
1700075508,1.282623291015625,0.3477325439453125,-0.7301483154296875,-1.3562883138656616,0.49290931224823,3.24843978881836,96.32394409179688,-47.44645690917969,272.5330505371094
1700075508,1.3563385009765625,0.5544281005859375,-0.404266357421875,-1.017587661743164,0.6220880746841431,3.347616672515869,96.50209045410156,-47.57662963867188,272.6136779785156
1700075508,1.383941650390625,0.7612457275390625,-0.3123321533203125,-0.4590557217597961,1.0724565982818604,3.454843044281006,96.1881866455078,-47.20732116699219,272.49444580078125
1700075508,1.437713623046875,0.944366455078125,-0.5257568359375,-0.0941374152898788,1.1058635711669922,3.5522241592407227,95.9759521484375,-46.63665771484375,272.34716796875
1700075508,1.5990142822265625,1.1326904296875,-0.5539398193359375,-0.2582291662693023,0.9858992695808412,3.3299448490142822,95.95939636230467,-46.44667053222656,271.7341613769531
1700075508,1.7912139892578125,1.14862060546875,-0.582244873046875,-0.1078236699104309,1.12068510055542,2.853980302810669,95.64645385742188,-46.1810302734375,272.057861328125
1700075508,1.8452301025390625,0.8679656982421875,-0.6155853271484375,0.3483595848083496,1.252252459526062,2.586220026016236,95.23297119140624,-46.27789306640625,272.4981689453125
1700075508,1.6725311279296875,0.6150054931640625,-0.52783203125,0.597514271736145,1.3298031091690063,2.4925649166107178,95.664306640625,-46.099639892578125,272.1039428710937
1700075508,1.495758056640625,0.5124969482421875,-0.606170654296875,0.5539867877960205,1.3002452850341797,2.440873861312866,95.77880859375,-45.7047119140625,272.0223693847656
1700075508,1.3814239501953125,0.441070556640625,-0.671539306640625,0.3487667739391327,1.1757179498672483,2.353466510772705,95.594482421875,-45.92062377929688,271.94677734375
1700075508,1.3221588134765625,0.35308837890625,-0.6080780029296875,0.1212092489004135,1.1405693292617798,2.146436214447021,95.7353973388672,-46.0731201171875,272.16064453125
1700075508,1.2752532958984375,0.238494873046875,-0.52972412109375,0.0382970534265041,1.11350679397583,1.889007329940796,95.43917846679688,-45.93966674804688,272.45904541015625
1700075508,1.2003631591796875,0.164215087890625,-0.378326416015625,0.0369787886738777,1.059929370880127,1.641251802444458,95.88037109375,-45.94087219238281,271.79217529296875
1700075508,1.07470703125,0.145721435546875,-0.25341796875,-0.0586587861180305,1.0038557052612305,1.337612271308899,95.86361694335938,-45.80680847167969,272.4867858886719
1700075508,0.94708251953125,0.083709716796875,-0.200775146484375,-0.2197973430156707,0.927775263786316,1.0052425861358645,95.96397399902344,-45.85552978515625,272.78961181640625
1700075508,0.8106689453125,-0.020904541015625,-0.1492767333984375,-0.3885594606399536,0.8681079745292664,0.8044392466545105,95.62384033203124,-45.876739501953125,272.6869506835937
1700075508,0.583740234375,-0.054901123046875,-0.1418304443359375,-0.563433825969696,0.7960931658744812,0.6298429369926453,95.6952667236328,-45.93601989746094,273.03680419921875
1700075508,0.40032958984375,-0.09649658203125,-0.1587371826171875,-0.747097909450531,0.6802645325660706,0.3627760708332062,95.64518737792967,-46.134552001953125,272.71795654296875
1700075508,0.335723876953125,-0.160125732421875,-0.155426025390625,-0.8889895081520081,0.5503547787666321,0.0506304204463958,95.98545837402344,-45.9886474609375,272.8201904296875
1700075508,0.3490447998046875,-0.206573486328125,-0.1051177978515625,-1.0090594291687012,0.407689481973648,-0.2077449411153793,96.19151306152344,-46.10260009765625,273.044921875
1700075508,0.3496246337890625,-0.182769775390625,-0.050689697265625,-1.1228033304214478,0.2558400332927704,-0.42656010389328,96.04090881347656,-46.46318054199219,272.6529541015625
1700075508,0.31842041015625,-0.126983642578125,-0.0238189697265625,-1.2314597368240356,0.1214476004242897,-0.724465012550354,96.24729919433594,-46.669189453125,272.0464782714844
1700075508,0.2972259521484375,-0.1087799072265625,-0.0305938720703125,-1.3363957405090332,-0.0209446959197521,-1.061220645904541,96.23130798339844,-46.78157043457031,273.052734375
1700075508,0.2900390625,-0.111663818359375,-0.01568603515625,-1.4290125370025637,-0.1563017219305038,-1.3293975591659546,96.1304168701172,-47.058624267578125,273.1825256347656
1700075508,0.2704620361328125,-0.09881591796875,-0.0029296875,-1.547718167304993,-0.2791690528392792,-1.5716722011566162,96.4868621826172,-46.809112548828125,273.8821105957031
1700075508,0.254852294921875,-0.1118316650390625,-0.033782958984375,-1.6372517347335815,-0.4126352369785309,-1.7916791439056396,96.14608764648438,-47.23399353027344,273.7768249511719
1700075508,0.22723388671875,-0.1302032470703125,-0.0653228759765625,-1.7287473678588867,-0.5160007476806641,-1.9982690811157229,96.36048889160156,-47.52134704589844,273.040283203125
1700075508,0.2103424072265625,-0.1439208984375,-0.078857421875,-1.8446919918060305,-0.6190065145492554,-2.216407299041748,96.61819458007812,-47.52366638183594,273.5013427734375
1700075508,0.1956787109375,-0.0978851318359375,-0.0885162353515625,-1.953803896903992,-0.712213397026062,-2.438413381576538,96.67942810058594,-47.30235290527344,273.5361633300781
1700075508,0.175872802734375,-0.0287933349609375,-0.096221923828125,-2.0191004276275635,-0.8298795819282532,-2.641656875610352,96.43580627441406,-47.81208801269531,274.3324890136719
1700075508,0.171356201171875,0.0396575927734375,-0.0752716064453125,-1.8893345594406128,-0.9300482869148254,-2.749323606491089,96.42266845703124,-48.20220947265625,273.8587646484375
1700075508,0.1859283447265625,0.1260986328125,-0.02178955078125,-1.7044832706451416,-1.034911870956421,-2.822319269180298,96.83790588378906,-48.57281494140625,273.3037109375
1700075508,0.2147064208984375,0.2647857666015625,0.0077362060546875,-1.402971625328064,-1.1346088647842407,-2.8774633407592773,97.09498596191406,-48.56195068359375,274.7653503417969
1700075508,0.2354278564453125,0.453125,-0.0406494140625,-1.0491653680801392,-1.162901520729065,-2.8946568965911865,97.05606079101562,-49.25303649902344,274.421875
1700075508,0.2647552490234375,0.604095458984375,-0.1072235107421875,-0.750991702079773,-1.1680467128753662,-2.824237108230591,97.33226013183594,-49.66574096679688,274.4451904296875
1700075508,0.27813720703125,0.7837066650390625,-0.2285614013671875,-0.4540183544158935,-1.137066125869751,-2.668764591217041,97.2747039794922,-49.80973815917969,274.2636108398437
1700075508,0.3116607666015625,0.946533203125,-0.3744659423828125,-0.1951372623443603,-1.0661946535110474,-2.43986439704895,97.44839477539062,-50.17658996582031,274.2211608886719
1700075508,0.3398284912109375,1.0987091064453125,-0.517333984375,-0.0720803216099739,-0.9907259941101074,-2.15868616104126,97.26893615722656,-50.37741088867188,274.86474609375
1700075508,0.36962890625,1.25091552734375,-0.6916046142578125,-0.1048862040042877,-0.9181759357452391,-1.8097039461135864,97.83030700683594,-50.36497497558594,274.86358642578125
1700075508,0.4275054931640625,1.35809326171875,-0.8229522705078125,-0.0848360583186149,-0.8656397461891174,-1.4080114364624023,97.83062744140624,-50.580596923828125,274.82403564453125
1700075508,0.461517333984375,1.407623291015625,-0.827117919921875,0.0172700677067041,-0.7702948451042175,-0.9655330181121826,97.73283386230467,-51.10539245605469,275.34295654296875
1700075508,0.4015960693359375,1.4579925537109375,-0.804290771484375,0.0568920448422431,-0.6487492322921753,-0.5599789023399353,98.01611328125,-51.35250854492188,275.5404663085937
1700075508,0.3266143798828125,1.5274505615234375,-0.770538330078125,0.1110719293355941,-0.4762019515037536,-0.3236142694950104,97.93748474121094,-51.561798095703125,275.5787353515625
1700075508,0.3123626708984375,1.5050506591796875,-0.7466583251953125,0.0727921798825264,-0.2406437695026397,-0.1821074932813644,98.19207763671876,-51.617584228515625,275.9942626953125
1700075508,0.3196563720703125,1.4049224853515625,-0.7743377685546875,-0.2252648174762725,-0.1208995208144187,0.1201250776648521,98.12692260742188,-51.611114501953125,275.63555908203125
1700075508,0.206756591796875,1.4050445556640625,-0.775909423828125,-0.3365876078605652,-0.044856421649456,0.2370852530002594,98.02008056640624,-51.6134033203125,275.6326904296875
1700075508,0.2546844482421875,1.1121063232421875,-0.6590118408203125,-0.6884817481040955,0.4028086960315704,0.0973393395543098,98.32212829589844,-51.97723388671875,276.0972900390625
1700075508,0.2872772216796875,0.72906494140625,-0.9292144775390624,-0.6061480045318604,0.2226312160491943,-0.0164314378052949,98.12991333007812,-52.107208251953125,276.5836181640625
1700075508,0.3290557861328125,0.4923858642578125,-0.86590576171875,-0.5586147904396057,-0.0775232836604118,0.0008335694437846,97.88055419921876,-51.82099914550781,276.5579528808594
1700075508,0.83636474609375,0.4395904541015625,-0.420806884765625,-0.5034053325653076,0.0651688799262046,-0.6546494364738464,98.22213745117188,-52.28340148925781,275.86065673828125
1700075508,1.4880523681640625,0.001068115234375,-0.520233154296875,0.4563478231430053,-0.1524409353733062,-0.8702896237373352,98.2767333984375,-51.79383850097656,275.89801025390625
1700075508,1.6448516845703125,-0.048126220703125,-0.2252044677734375,1.2774856090545654,-0.1691453456878662,0.1087752133607864,98.40673828125,-51.93109130859375,276.56182861328125
1700075508,1.629241943359375,0.3375244140625,-0.0787200927734375,1.043491005897522,-0.3393418490886688,1.2142850160598757,98.18333435058594,-51.84361267089844,276.6961669921875
1700075508,2.506103515625,0.6576385498046875,0.3126220703125,-0.7089646458625793,-0.55903559923172,0.963328182697296,98.08146667480467,-52.11872863769531,276.5513916015625
1700075508,3.070220947265625,0.5114593505859375,0.4637603759765625,-1.251233458518982,-0.2450843155384063,0.7982004880905151,98.0101318359375,-51.93988037109375,276.76531982421875
1700075508,1.1963958740234375,0.38189697265625,-0.3099517822265625,-0.8185774087905884,0.0078693749383091,0.6012975573539734,97.66128540039062,-51.89155578613281,275.9751281738281
1700075508,-0.1119384765625,0.2196044921875,-1.0787353515625,0.0945004075765609,-0.3594971895217895,0.2471056580543518,97.83113098144533,-51.867095947265625,276.099365234375
1700075508,-0.0465545654296875,0.17596435546875,-0.8417816162109375,-0.0254228021949529,-0.481026291847229,0.2903439402580261,97.6097412109375,-51.57681274414063,276.2677001953125
1700075509,0.66680908203125,0.4999847412109375,-0.286102294921875,-0.3055708408355713,-0.2115540653467178,0.0668240338563919,97.47804260253906,-51.24150085449219,276.7197265625
1700075509,1.004364013671875,0.6141510009765625,-0.0559844970703125,-0.3520954549312591,-0.0824519991874694,-0.1980126798152923,97.57095336914062,-51.35107421875,276.0782470703125
1700075509,1.173583984375,0.56683349609375,-0.0764312744140625,-0.2769511640071869,-0.0847050324082374,-0.3672365844249725,97.40919494628906,-51.14610290527344,275.9914245605469
1700075509,1.1674652099609375,0.4196624755859375,-0.42108154296875,-0.1199575662612915,-0.1784376502037048,-0.3907786607742309,97.262939453125,-50.84248352050781,276.0053100585937
1700075509,0.975677490234375,0.252777099609375,-0.51116943359375,-0.0865460783243179,-0.2361757755279541,-0.3358464539051056,97.19671630859376,-51.073486328125,276.5469970703125
1700075509,0.816864013671875,0.123992919921875,-0.4819793701171875,-0.1478365957736969,-0.2666758894920349,-0.2996972203254699,97.12013244628906,-50.91673278808594,276.4845886230469
1700075509,0.869384765625,0.1018829345703125,-0.4399261474609375,-0.1853275150060653,-0.3087397217750549,-0.2942643761634826,96.27821350097656,-50.402740478515625,276.73199462890625
1700075509,1.0359649658203125,0.1886444091796875,-0.36376953125,-0.1550763994455337,-0.3235692679882049,-0.3320679664611816,96.2421417236328,-49.821197509765625,276.9721069335937
1700075509,1.1215057373046875,0.2628326416015625,-0.3435516357421875,-0.0863719061017036,-0.3488120436668396,-0.4065264761447906,96.1805419921875,-50.1749267578125,275.758056640625
1700075509,1.0817413330078125,0.2895660400390625,-0.3855743408203125,-0.0117631824687123,-0.4193152487277984,-0.5011440515518188,95.7133331298828,-49.766143798828125,276.43023681640625
1700075509,1.0110015869140625,0.292724609375,-0.407318115234375,0.0306204929947853,-0.4853624403476715,-0.589224100112915,95.42179870605467,-49.41763305664063,276.84881591796875
1700075509,0.95208740234375,0.2741851806640625,-0.399993896484375,0.0469936057925224,-0.5149813294410706,-0.6426146626472473,95.02685546875,-49.2073974609375,276.92486572265625
1700075509,0.9159088134765624,0.245941162109375,-0.3484344482421875,0.0545356795191764,-0.5020015835762024,-0.6713440418243408,94.66055297851562,-49.172698974609375,277.0675354003906
1700075509,0.922149658203125,0.2065277099609375,-0.317413330078125,0.0269333459436893,-0.4936142265796661,-0.6697977781295776,94.47250366210938,-49.72628784179688,277.0707397460937
1700075509,0.918731689453125,0.1823272705078125,-0.3532562255859375,0.0165712535381317,-0.5064536333084106,-0.6479707956314087,94.1669921875,-48.96525573730469,277.4990234375
1700075509,0.936920166015625,0.1686859130859375,-0.3533477783203125,0.0351619832217693,-0.5279682278633118,-0.6286184191703796,93.71774291992188,-49.13050842285156,278.3927001953125
1700075509,0.971038818359375,0.15301513671875,-0.3222503662109375,0.0475254394114017,-0.5282214879989624,-0.6301201581954956,93.49342346191406,-49.03173828125,278.0850830078125
1700075509,0.974700927734375,0.138916015625,-0.314727783203125,0.0294993016868829,-0.5204903483390808,-0.6279017329216003,92.681640625,-48.68035888671875,277.68853759765625
1700075509,0.9507598876953124,0.13043212890625,-0.3249664306640625,0.0485792532563209,-0.5104123950004578,-0.5863438844680786,92.22976684570312,-47.853271484375,277.70751953125
1700075509,0.9317474365234376,0.136199951171875,-0.3291778564453125,0.069279208779335,-0.5274435877799988,-0.5572347640991211,91.88597106933594,-47.05769348144531,276.42547607421875
1700075509,0.9329986572265624,0.133148193359375,-0.30523681640625,0.0633251741528511,-0.5361632704734802,-0.5574944019317627,91.31112670898438,-46.46060180664063,274.8784484863281
1700075509,0.942718505859375,0.1243133544921875,-0.28955078125,0.0269445329904556,-0.5296281576156616,-0.5642242431640625,90.37051391601562,-45.37171936035156,274.44354248046875
1700075509,0.9341583251953124,0.12200927734375,-0.2995147705078125,-0.0096608828753232,-0.5349936485290527,-0.5548925399780273,89.40470886230469,-44.717864990234375,273.85260009765625
1700075509,0.90887451171875,0.1126708984375,-0.2969512939453125,-0.0811704844236373,-0.5256251692771912,-0.5292832851409912,89.15866088867188,-43.978515625,273.12030029296875
1700075509,0.903289794921875,0.085784912109375,-0.301116943359375,-0.1306016892194748,-0.5033813714981079,-0.5049124360084534,88.02566528320312,-43.03926086425781,272.90850830078125
1700075509,0.9125213623046876,0.049468994140625,-0.2831268310546875,-0.1175340861082077,-0.4791809618473053,-0.4826540052890777,87.04066467285156,-42.66030883789063,272.4628295898437
1700075509,0.9304046630859376,0.0298614501953125,-0.2382049560546875,-0.106308065354824,-0.4411025643348694,-0.4283652007579803,85.95344543457031,-42.22882080078125,272.8599853515625
1700075509,0.9582977294921876,0.0543670654296875,-0.2266387939453125,-0.1250686943531036,-0.4224124848842621,-0.3701801896095276,85.14860534667969,-42.097442626953125,271.935546875
1700075509,0.99969482421875,0.0682525634765625,-0.2190399169921875,-0.0278366915881633,-0.3920380771160126,-0.3556217551231384,84.37028503417969,-41.43000793457031,271.4130554199219
1700075509,1.001800537109375,0.03692626953125,-0.2063446044921875,0.1041010990738868,-0.3558191061019897,-0.349714070558548,83.60182189941406,-41.13209533691406,272.3956298828125
1700075509,0.9627685546875,0.01947021484375,-0.232208251953125,0.2108957320451736,-0.3350656032562256,-0.297262579202652,83.116455078125,-40.85624694824219,271.0890197753906
1700075509,0.9116363525390624,0.0643157958984375,-0.26226806640625,0.1660558134317398,-0.3677015900611877,-0.2697955369949341,81.80490112304688,-41.00653076171875,271.4373779296875
1700075509,0.9121246337890624,0.1093292236328125,-0.2769317626953125,0.1213461384177208,-0.3458751142024994,-0.2929953932762146,81.149169921875,-40.58126831054688,271.00103759765625
1700075509,0.9556427001953124,0.074005126953125,-0.275177001953125,0.1432391852140426,-0.3251394629478454,-0.2974039912223816,80.6829833984375,-40.241607666015625,271.15692138671875
1700075509,0.9875030517578124,0.0327301025390625,-0.2495880126953125,0.1407746970653534,-0.3074688613414764,-0.2566062211990356,79.91615295410156,-39.90596008300781,269.15948486328125
1700075509,1.02008056640625,0.005859375,-0.198455810546875,0.0860363468527793,-0.2689172029495239,-0.1895558089017868,78.97293090820312,-40.26979064941406,268.7039794921875
1700075509,1.0288238525390625,-0.0301666259765625,-0.134613037109375,0.0167097374796867,-0.2217206805944442,-0.1366561204195022,78.36306762695312,-39.76040649414063,268.2345275878906
1700075509,0.9824066162109376,-0.0684356689453125,-0.1542205810546875,-0.068926602602005,-0.1812459528446197,-0.0399639271199703,77.78129577636719,-40.00227355957031,266.89471435546875
1700075509,0.9233856201171876,-0.0643157958984375,-0.1842041015625,-0.0696326047182083,-0.1469521671533584,0.0544278211891651,77.34028625488281,-39.97807312011719,266.0604858398437
1700075509,0.8850555419921875,-0.05352783203125,-0.1889495849609375,-0.0015377091476693,-0.1294029951095581,0.1243043765425682,76.75262451171875,-40.46844482421875,264.9717712402344
1700075509,0.881500244140625,-0.0396270751953125,-0.204254150390625,0.0590460076928138,-0.12742879986763,0.1558143645524978,76.57173156738281,-40.768096923828125,264.4779663085937
1700075509,0.9226531982421876,-0.0246734619140625,-0.220855712890625,0.1094114482402801,-0.1146626695990562,0.1990510523319244,76.30484008789062,-41.03826904296875,263.6170654296875
1700075509,0.9455108642578124,-0.02734375,-0.2310333251953125,0.1091304793953895,-0.1016845479607582,0.2736722826957702,76.42887878417969,-40.94017028808594,263.0551452636719
1700075509,0.95074462890625,-0.0275421142578125,-0.2080078125,0.0780332833528518,-0.086043007671833,0.3494285643100738,76.33987426757812,-41.51382446289063,262.21051025390625
1700075509,0.961639404296875,-0.0301666259765625,-0.199371337890625,0.0343878008425235,-0.0480058752000331,0.4456640183925628,76.72358703613281,-42.11788940429688,261.7665405273437
1700075509,0.933013916015625,0.0095977783203125,-0.1881256103515625,-0.040027841925621,-0.0035204326268285,0.5352133512496948,76.990966796875,-42.41323852539063,261.6363220214844
1700075509,0.91229248046875,0.0460205078125,-0.161041259765625,-0.0642122775316238,0.0413272008299827,0.6444069743156433,77.19267272949219,-43.47077941894531,260.18896484375
1700075509,0.8823089599609375,0.0472564697265625,-0.1373748779296875,-0.0969454571604728,0.0902516022324562,0.7174830436706543,77.73060607910156,-43.366943359375,259.7343139648437
1700075509,0.8941802978515625,-0.0316162109375,-0.135528564453125,-0.1155817210674285,0.1253342181444168,0.7856828570365906,78.82508850097656,-44.15699768066406,259.721435546875
1700075509,0.94000244140625,-0.1378936767578125,-0.2091064453125,-0.1151670664548873,0.1022121235728263,0.8745560050010681,79.618408203125,-44.62699890136719,258.8915405273437
1700075509,1.0024871826171875,-0.14801025390625,-0.298614501953125,-0.1393477767705917,0.0393905490636825,0.9157603979110718,80.21713256835938,-45.43190002441406,258.26971435546875
1700075509,1.076995849609375,-0.0528717041015625,-0.2964935302734375,-0.0580433309078216,0.0130076771602034,0.9160866737365724,80.97732543945312,-46.64299011230469,258.439697265625
1700075509,1.094818115234375,0.1191864013671875,-0.2716522216796875,-0.0124801052734255,-0.0220922529697418,0.8526514768600464,82.35513305664062,-47.19737243652344,258.2044677734375
1700075509,1.0731048583984375,0.295989990234375,-0.2207183837890625,0.0750715807080268,0.0052634715102612,0.7846985459327698,83.05853271484375,-48.21638488769531,258.2899169921875
1700075509,1.0282440185546875,0.3605194091796875,-0.1201934814453125,0.1914205551147461,0.0600020848214626,0.7718426585197449,84.168212890625,-48.99223327636719,258.7748413085937
1700075509,0.949676513671875,0.3025665283203125,-0.07562255859375,0.1839272230863571,0.095965676009655,0.8170937895774841,85.43452453613281,-49.59455871582031,259.0104675292969
1700075509,0.93658447265625,0.1652374267578125,-0.0882110595703125,0.113193929195404,0.1303920894861221,0.9050838351249696,86.38070678710938,-50.24153137207031,258.9056091308594
1700075509,0.9625701904296876,0.0404052734375,-0.17840576171875,0.0557807087898254,0.0861524641513824,0.9948501586914062,87.17013549804688,-51.08982849121094,259.5496826171875
1700075509,1.016204833984375,0.002777099609375,-0.3054046630859375,-0.0418017767369747,-0.0133435018360614,1.053274393081665,87.9822998046875,-51.86236572265625,259.44451904296875
1700075509,1.084075927734375,0.054351806640625,-0.3236236572265625,-0.0463533848524093,-0.0656676962971687,1.0440959930419922,88.52680969238281,-51.89616394042969,259.71246337890625
1700075509,1.1445159912109375,0.111602783203125,-0.2852783203125,0.0888302698731422,-0.1409278213977813,0.9744860529899596,89.43913269042969,-52.63595581054688,260.76904296875
1700075509,1.2411651611328125,0.21868896484375,-0.275543212890625,0.2133122831583023,-0.225402757525444,0.8844371438026428,89.75212097167969,-52.77435302734375,260.7875366210937
1700075509,1.36248779296875,0.373626708984375,-0.149871826171875,0.2300310730934143,-0.2570158243179321,0.7814478874206543,90.57162475585938,-52.831451416015625,261.5516357421875
1700075509,1.373626708984375,0.433258056640625,-0.071807861328125,0.2949115335941314,-0.3006162941455841,0.7322584986686707,90.92477416992188,-52.87432861328125,261.805908203125
1700075509,1.3455657958984375,0.3242340087890625,-0.087738037109375,0.3603797554969787,-0.367681086063385,0.7868146896362305,90.79306030273438,-53.19140625,262.2004089355469
1700075509,1.40216064453125,0.1636505126953125,-0.1048583984375,0.3301542103290558,-0.4288858473300934,0.8417986035346985,91.03089904785156,-52.92771911621094,262.4144592285156
1700075509,1.5306243896484375,-0.004058837890625,-0.09136962890625,0.3083253502845764,-0.4520931541919708,0.8941624760627747,91.22581481933594,-52.4666748046875,262.482177734375
1700075509,1.633453369140625,-0.1262054443359375,-0.0745086669921875,0.3130410015583038,-0.5124942064285278,0.9810270667076112,91.4985809326172,-52.38084411621094,262.6463317871094
1700075509,1.6938018798828125,-0.152557373046875,-0.0327911376953125,0.3829521834850311,-0.5606875419616699,1.0383883714675903,91.4947509765625,-52.52178955078125,262.49737548828125
1700075509,1.747406005859375,-0.1282501220703125,0.0629119873046875,0.4757915735244751,-0.5889236927032471,1.0560802221298218,91.74673461914062,-52.263763427734375,263.26397705078125
1700075509,1.7332305908203125,-0.1074066162109375,0.201995849609375,0.5618007779121399,-0.6391059160232544,1.044938325881958,91.7725830078125,-51.91380310058594,263.1812744140625
1700075509,1.672119140625,-0.150421142578125,0.3097076416015625,0.52891606092453,-0.623220682144165,1.0107252597808838,91.77238464355467,-51.86802673339844,263.3154296875
1700075509,1.6280059814453125,-0.2800140380859375,0.348388671875,0.3866374492645263,-0.6103541851043701,0.9798831939697266,91.33302307128906,-51.21588134765625,263.3838195800781
1700075509,1.5742034912109375,-0.4365081787109375,0.294158935546875,0.1566671133041381,-0.5767714381217957,0.9867658615112304,91.57746887207033,-51.23268127441406,263.8429870605469
1700075509,1.4876861572265625,-0.5575103759765625,0.103271484375,-0.1915033906698227,-0.4549320936203003,1.1010620594024658,91.38005065917967,-51.10316467285156,263.0154113769531
1700075509,1.3411407470703125,-0.578826904296875,-0.28515625,-0.8140079379081726,-0.3124026358127594,1.524236798286438,91.31268310546876,-50.42131042480469,263.3043212890625
1700075509,1.1421051025390625,-0.380645751953125,-0.8647308349609375,-1.6867125034332275,-0.1058582589030265,2.1464641094207764,91.30142211914062,-50.80636596679688,263.1868896484375
1700075509,0.9648590087890624,-0.0843048095703125,-1.336212158203125,-2.4264075756073,0.1508595496416092,2.616597890853882,91.57009887695312,-50.51812744140625,263.5245361328125
1700075509,0.9896087646484376,0.0890655517578125,-1.4917144775390625,-2.621941089630127,0.3379330337047577,2.895951747894287,91.37229919433594,-50.40348815917969,263.243896484375
1700075509,1.0909423828125,0.2796478271484375,-1.3476104736328125,-2.389943838119507,0.4581715762615204,3.2137773036956787,91.66683959960938,-50.46769714355469,263.6922302246094
1700075509,1.132354736328125,0.591339111328125,-1.076995849609375,-2.048691749572754,0.4461338222026825,3.737192153930664,91.73800659179688,-50.722412109375,263.498046875
1700075509,1.17724609375,1.0159759521484375,-0.69049072265625,-1.946008563041687,0.4937058389186859,4.124473571777344,91.2530517578125,-50.530670166015625,263.6263427734375
1700075509,1.335693359375,1.3854217529296875,-0.3396759033203125,-1.6380962133407593,0.716539740562439,4.143152713775635,91.66050720214844,-50.72105407714844,263.358642578125
1700075509,1.4606781005859375,1.48956298828125,-0.3500213623046875,-1.075629711151123,0.76705002784729,3.90737533569336,91.344482421875,-50.64068603515625,263.4490661621094
1700075509,1.5504608154296875,1.3599395751953125,-0.50970458984375,-0.4381105005741119,0.6115763187408447,3.627332448959351,91.5556640625,-50.73956298828125,263.6607666015625
1700075509,1.6280670166015625,0.987762451171875,-0.409271240234375,0.0638127997517585,0.5998144745826721,3.352098226547241,91.61026000976562,-50.38426208496094,263.3397827148437
1700075509,1.558868408203125,0.531097412109375,-0.4109039306640625,0.2069172263145446,0.6486943960189819,3.140743970870972,91.7947235107422,-50.85734558105469,263.7041015625
1700075509,1.3810577392578125,0.2832794189453125,-0.55609130859375,0.1821106821298599,0.7007277607917786,3.081158399581909,92.05867004394533,-51.095611572265625,263.8536376953125
1700075509,1.1226959228515625,0.188446044921875,-0.6474151611328125,0.180103987455368,0.6469340324401855,3.182422637939453,92.18453979492188,-51.0775146484375,263.6834716796875
1700075509,0.9059295654296876,0.1799163818359375,-0.575469970703125,0.1011271476745605,0.5244536399841309,3.2016212940216064,92.09904479980467,-51.21353149414063,263.7958984375
1700075509,0.8236541748046875,0.201812744140625,-0.4459991455078125,-0.0638700574636459,0.4212159514427185,2.961289167404175,91.9486083984375,-51.441741943359375,264.2358093261719
1700075509,0.81671142578125,0.21063232421875,-0.3291015625,-0.1293723732233047,0.3136788308620453,2.5944418907165527,92.10891723632812,-51.2977294921875,264.22918701171875
1700075509,0.7932586669921875,0.1586761474609375,-0.2082977294921875,-0.0592478774487972,0.1600618362426757,2.237307548522949,92.45339965820312,-51.4931640625,264.2809753417969
1700075509,0.734619140625,0.0332489013671875,-0.138214111328125,-0.021473066881299,-0.0242171883583068,1.939114689826965,92.66619873046876,-51.749359130859375,264.0011291503906
1700075509,0.659820556640625,-0.093170166015625,-0.1323699951171875,-0.1251959949731826,-0.2230019271373748,1.680784821510315,92.22467041015624,-51.68580627441406,264.1162109375
1700075509,0.5854339599609375,-0.1893768310546875,-0.159942626953125,-0.3551021814346313,-0.4299388527870178,1.4585089683532717,92.74742126464844,-51.98393249511719,263.9946594238281
1700075509,0.5063018798828125,-0.262603759765625,-0.18463134765625,-0.6475633382797241,-0.6007132530212402,1.257349967956543,92.70677185058594,-51.82807922363281,264.5550537109375
1700075509,0.423492431640625,-0.33160400390625,-0.18157958984375,-0.9884106516838074,-0.7238847017288208,1.0235151052474976,92.92839050292967,-52.28623962402344,263.982421875
1700075509,0.348602294921875,-0.3931732177734375,-0.1861114501953125,-1.3180758953094482,-0.8448255062103271,0.7643852829933167,92.54304504394533,-52.41224670410156,264.2052917480469
1700075510,0.2780609130859375,-0.4180145263671875,-0.2090606689453125,-1.551660656929016,-0.9614336490631104,0.4951042830944061,93.11346435546876,-52.271759033203125,264.5448913574219
1700075510,0.234527587890625,-0.3973541259765625,-0.23675537109375,-1.7128783464431765,-1.075408935546875,0.2274315655231475,92.9883270263672,-52.50523376464844,264.7169189453125
1700075510,0.223541259765625,-0.31182861328125,-0.2548675537109375,-1.8612486124038696,-1.1994904279708862,-0.0246209241449832,93.17790222167967,-53.00213623046875,264.9933776855469
1700075510,0.2324066162109375,-0.2176513671875,-0.2528076171875,-1.9918361902236936,-1.3496801853179932,-0.3082278668880462,93.11042785644533,-53.17100524902344,265.4659423828125
1700075510,0.2753753662109375,-0.176971435546875,-0.2239227294921875,-2.0513057708740234,-1.5340324640274048,-0.6021995544433594,93.34197998046876,-52.98738098144531,264.458251953125
1700075510,0.330657958984375,-0.2038116455078125,-0.1868743896484375,-2.0685627460479736,-1.7241933345794678,-0.8950822949409485,93.70616149902344,-53.367431640625,264.8568115234375
1700075510,0.3649749755859375,-0.271942138671875,-0.18060302734375,-2.087141275405884,-1.886004090309143,-1.1728060245513916,93.58685302734376,-53.77749633789063,265.6234741210937
1700075510,0.3853759765625,-0.3257598876953125,-0.20526123046875,-2.162322998046875,-2.040734052658081,-1.4098944664001465,93.62757873535156,-53.91572570800781,265.0306091308594
1700075510,0.4027557373046875,-0.333099365234375,-0.2631378173828125,-2.295552968978882,-2.206000328063965,-1.5972771644592283,93.5061492919922,-54.20111083984375,265.1405029296875
1700075510,0.4161376953125,-0.299102783203125,-0.3339996337890625,-2.472313165664673,-2.3613617420196533,-1.7715150117874146,93.540771484375,-53.939361572265625,265.322998046875
1700075510,0.4288482666015625,-0.2408905029296875,-0.397735595703125,-2.6581029891967773,-2.486598253250122,-1.948022484779358,93.44856262207033,-54.28712463378906,265.43585205078125
1700075510,0.4575347900390625,-0.17327880859375,-0.4552459716796875,-2.7807796001434326,-2.595750093460083,-2.1426167488098145,93.91090393066406,-54.33341979980469,265.7803955078125
1700075510,0.5119171142578125,-0.1131134033203125,-0.47686767578125,-2.8371386528015137,-2.7138478755950928,-2.3815152645111084,93.31842041015624,-54.512603759765625,265.6764221191406
1700075510,0.58782958984375,-0.0822296142578125,-0.450164794921875,-2.8821234703063965,-2.832028388977051,-2.6629414558410645,93.72528076171876,-54.88720703125,266.3821105957031
1700075510,0.6866455078125,-0.0864105224609375,-0.4235382080078125,-2.878402709960937,-2.938626527786255,-2.9377872943878174,93.7210693359375,-54.99850463867188,266.7080078125
1700075510,0.770843505859375,-0.104766845703125,-0.4014129638671875,-2.821225166320801,-3.0128352642059326,-3.1380984783172607,94.17137145996094,-54.89082336425781,266.53192138671875
1700075510,0.8216552734375,-0.111602783203125,-0.4116363525390625,-2.707106113433838,-3.087023496627808,-3.269839286804199,94.17181396484376,-54.98262023925781,266.38531494140625
1700075510,0.8768157958984375,-0.094879150390625,-0.4430084228515625,-2.4765443801879883,-3.180052757263184,-3.3909616470336914,94.16053771972656,-55.10966491699219,266.546142578125
1700075510,0.9714813232421876,-0.075408935546875,-0.4583892822265625,-2.2565574645996094,-3.255261182785034,-3.503436803817749,94.14938354492188,-54.91267395019531,266.46221923828125
1700075510,1.0642852783203125,-0.02056884765625,-0.49951171875,-2.082247257232666,-3.229689836502075,-3.638085842132568,94.20062255859376,-55.06092834472656,267.2061767578125
1700075510,1.139556884765625,0.054107666015625,-0.5894317626953125,-1.9700089693069456,-3.1294753551483154,-3.8425910472869873,93.93960571289062,-54.99290466308594,266.91796875
1700075510,1.22723388671875,0.1127777099609375,-0.6878814697265625,-1.9632421731948853,-3.0276074409484863,-4.045026302337647,94.2724609375,-55.27876281738281,267.1436767578125
1700075510,1.312042236328125,0.165985107421875,-0.7754669189453125,-2.1195783615112305,-2.9652650356292725,-4.277289867401123,94.17041015625,-55.19587707519531,267.093017578125
1700075510,1.4306182861328125,0.167205810546875,-0.8554229736328125,-2.3906753063201904,-2.926361083984375,-4.45504093170166,94.1999969482422,-54.98320007324219,267.0611267089844
1700075510,1.5212249755859375,0.148468017578125,-0.9105682373046876,-2.723295211791992,-2.847322463989258,-4.479697227478027,94.18438720703124,-55.27633666992188,267.8384704589844
1700075510,1.5286865234375,0.1588287353515625,-1.0040435791015625,-2.9563894271850586,-2.7854974269866943,-4.438899993896484,93.98849487304688,-55.138580322265625,266.910400390625
1700075510,1.5193939208984375,0.16900634765625,-1.04510498046875,-2.999178409576416,-2.7821030616760254,-4.47052812576294,94.15768432617188,-55.09184265136719,267.47662353515625
1700075510,1.547760009765625,0.174957275390625,-0.96343994140625,-2.992002248764038,-2.7024168968200684,-4.428394317626953,94.03897094726562,-55.27259826660156,267.0655517578125
1700075510,1.57232666015625,0.2694854736328125,-0.861968994140625,-2.94327974319458,-2.493260383605957,-4.377378940582275,93.79646301269533,-54.89607238769531,267.7608337402344
1700075510,1.566375732421875,0.415771484375,-0.8097381591796875,-2.73818588256836,-2.243828773498535,-4.341446876525879,93.67344665527344,-55.08634948730469,267.64178466796875
1700075510,1.5707550048828125,0.5852813720703125,-0.787017822265625,-2.3184218406677246,-2.0892598628997803,-4.290609836578369,93.84117126464844,-55.34909057617188,268.0807189941406
1700075510,1.6024169921875,0.7518310546875,-0.7561798095703125,-1.8740595579147337,-1.9384843111038208,-4.247639656066895,93.79835510253906,-55.35411071777344,268.2943725585937
1700075510,1.644317626953125,0.8773193359375,-0.69805908203125,-1.366045355796814,-1.806335926055908,-4.115640640258789,93.58499145507812,-55.46110534667969,268.288330078125
1700075510,1.625701904296875,1.0018310546875,-0.5878753662109375,-0.971165895462036,-1.647301435470581,-3.868131637573242,93.684814453125,-55.36029052734375,267.8124389648437
1700075510,1.5050201416015625,1.0782623291015625,-0.5796356201171875,-0.8009238243103027,-1.3876584768295288,-3.519017457962036,93.17111206054688,-55.19529724121094,268.61688232421875
1700075510,1.2969970703125,0.9976348876953124,-0.7364044189453125,-0.8048245906829834,-1.0415806770324707,-3.021132707595825,93.03903198242188,-55.212982177734375,268.3337097167969
1700075510,1.0319366455078125,0.8681488037109375,-0.8883819580078125,-0.9203258752822876,-0.6419238448143005,-2.416767120361328,92.96376037597656,-55.08413696289063,268.5795593261719
1700075510,0.8258056640625,0.836639404296875,-0.995635986328125,-1.1027742624282837,-0.2468079179525375,-1.6964551210403442,92.55143737792967,-54.950592041015625,268.650146484375
1700075510,0.66473388671875,0.9593505859375,-1.0240631103515625,-1.242541790008545,0.1447358727455139,-0.8355249762535095,92.55162048339844,-54.68937683105469,268.3544311523437
1700075510,0.5274505615234375,1.213714599609375,-0.955841064453125,-1.146086812019348,0.5203401446342468,0.1046041697263717,92.68487548828124,-54.69500732421875,268.509033203125
1700075510,0.4737701416015625,1.4291839599609375,-0.8319549560546875,-0.956153929233551,0.8237415552139282,0.940917432308197,92.2458038330078,-54.49391174316406,268.19415283203125
1700075510,0.5579833984375,1.5037841796875,-0.7718505859375,-0.8046243190765381,1.0748581886291504,1.391590595245361,91.87696838378906,-54.10855102539063,267.9693603515625
1700075510,0.7611541748046875,1.322723388671875,-0.7610321044921875,-0.5948446989059448,1.132341742515564,1.6420351266860962,91.82536315917967,-53.66452026367188,267.7689819335937
1700075510,0.91888427734375,1.0321197509765625,-0.5650482177734375,-0.6648033261299133,0.9351719617843628,1.5879905223846436,91.72154235839844,-52.92018127441406,267.5038757324219
1700075510,1.1674652099609375,0.5363006591796875,-0.05364990234375,-0.6226987242698669,0.4752134084701538,1.1268234252929688,91.15536499023438,-52.1046142578125,266.94921875
1700075510,1.3619537353515625,-0.2111663818359375,0.600799560546875,-0.1137337535619735,0.0148897338658571,0.0407484956085681,91.12223815917967,-51.345733642578125,266.06597900390625
1700075510,1.734283447265625,-1.3638916015625,1.4516754150390625,0.116388663649559,0.3504453599452972,-0.7211901545524597,90.9623565673828,-50.94377136230469,266.3056640625
1700075510,1.67889404296875,-1.8138580322265625,1.1851654052734375,-0.3315313160419464,0.9356467723846436,0.3831074237823486,90.21405029296876,-50.14723205566406,265.810302734375
1700075510,1.211883544921875,-0.942352294921875,0.31463623046875,-0.9874628186225892,1.2765796184539795,2.329159736633301,89.54244995117188,-49.11236572265625,265.5201721191406
1700075510,1.140350341796875,0.0482025146484375,-0.282257080078125,-0.8788197040557861,1.1282713413238523,2.8151891231536865,89.38282775878906,-48.33609008789063,265.7162475585937
1700075510,1.33868408203125,-0.0048828125,-0.2135162353515625,-0.6798251271247864,1.0403268337249756,1.952029705047608,88.70672607421875,-47.66339111328125,265.39276123046875
1700075510,1.3546905517578125,-0.2153778076171875,-0.431732177734375,-0.9885401129722596,1.3090165853500366,1.356206297874451,88.37345886230469,-46.86830139160156,264.793212890625
1700075510,1.0903472900390625,0.18829345703125,-0.692535400390625,-0.8640037775039673,1.4850436449050903,1.4366058111190796,87.70492553710938,-46.09942626953125,264.7965393066406
1700075510,0.9663848876953124,0.57818603515625,-0.5165252685546875,-0.7352598905563354,1.130102276802063,1.6471967697143557,87.51026916503906,-45.09616088867188,264.8466796875
1700075510,1.2471466064453125,0.746185302734375,-0.166717529296875,-0.6488450765609741,0.8487504720687866,1.2669906616210938,86.943115234375,-44.83102416992188,264.57330322265625
1700075510,1.577484130859375,0.4805755615234375,0.0433197021484375,-0.327482521533966,0.97049742937088,0.8966570496559143,86.54176330566406,-44.24049377441406,263.9596252441406
1700075510,1.2472991943359375,0.2581329345703125,-0.0242767333984375,0.045576274394989,1.0273255109786987,0.7520178556442261,86.19351196289062,-43.34025573730469,263.99884033203125
1700075510,0.81976318359375,0.1557769775390625,-0.1210784912109375,0.287878930568695,0.8672773241996765,0.744410514831543,85.60765075683594,-42.88029479980469,264.08221435546875
1700075510,0.7684478759765625,-0.0003204345703125,-0.165771484375,0.4680007696151733,0.6920234560966492,0.8550890684127808,85.42256164550781,-42.35508728027344,263.3754577636719
1700075510,0.9069976806640624,-0.1039276123046875,-0.0798187255859375,0.4848039746284485,0.6856307983398438,0.939872682094574,84.74406433105469,-42.50682067871094,263.1766357421875
1700075510,1.0636138916015625,-0.119659423828125,-0.0415191650390625,0.2531853914260864,0.6881688237190247,0.8901035189628601,84.66810607910156,-41.73567199707031,263.13702392578125
1700075510,1.172821044921875,-0.0353546142578125,-0.0858154296875,-0.123642049729824,0.6289917826652527,0.7641109824180603,84.6328125,-41.22671508789063,262.26446533203125
1700075510,1.216094970703125,0.0048828125,-0.14825439453125,-0.405415415763855,0.5657267570495605,0.6896974444389343,84.75521850585938,-41.465423583984375,262.24139404296875
1700075510,1.1178436279296875,0.03753662109375,-0.1370086669921875,-0.5161789655685425,0.5421772599220276,0.6303686499595642,84.45771789550781,-40.72140502929688,261.99591064453125
1700075510,1.0084228515625,0.0077667236328125,-0.0888824462890625,-0.4849413931369781,0.5281104445457458,0.5881662964820862,84.52691650390625,-40.91026306152344,261.516845703125
1700075510,0.9629669189453124,-0.040985107421875,-0.09814453125,-0.4074796140193939,0.485884428024292,0.5519081950187683,84.48614501953125,-40.88832092285156,260.9515686035156
1700075510,0.9770660400390624,-0.0729522705078125,-0.138946533203125,-0.3044573664665222,0.4145796000957489,0.552611231803894,84.72584533691406,-40.79728698730469,260.3896484375
1700075510,1.0029754638671875,-0.072052001953125,-0.1698150634765625,-0.1924037933349609,0.321801483631134,0.5569751262664795,85.49874877929688,-40.79200744628906,260.3583984375
1700075510,1.0276947021484375,-0.03466796875,-0.16888427734375,-0.0685819908976554,0.2536588907241821,0.5282694101333618,85.57765197753906,-41.18534851074219,260.1697692871094
1700075510,1.0518798828125,0.0146636962890625,-0.1335601806640625,0.0998624116182327,0.230242520570755,0.476885050535202,85.988037109375,-41.31642150878906,259.641357421875
1700075510,1.060333251953125,0.06707763671875,-0.081329345703125,0.2344053089618683,0.2252842485904693,0.4260770082473755,86.82182312011719,-41.501312255859375,259.5374755859375
1700075510,1.056396484375,0.0962677001953125,-0.0599365234375,0.2562938332557678,0.2305711656808853,0.3891762495040893,87.52571105957031,-41.81575012207031,258.955322265625
1700075510,1.049285888671875,0.063446044921875,-0.0482635498046875,0.1727267652750015,0.2432571202516555,0.4104525148868561,88.01596069335938,-42.47859191894531,258.73876953125
1700075510,1.0099639892578125,-0.008941650390625,-0.065887451171875,0.0276947449892759,0.2593322396278381,0.4860263764858246,88.98847961425781,-42.43115234375,257.9683532714844
1700075510,0.966156005859375,-0.0921630859375,-0.0858917236328125,-0.0981848910450935,0.2705561220645904,0.5618348121643066,89.92782592773438,-43.463958740234375,258.3701171875
1700075510,0.9473724365234376,-0.1838226318359375,-0.1009979248046875,-0.09331876039505,0.2699012458324432,0.6254766583442688,91.15805053710938,-44.070556640625,258.0634155273437
1700075510,0.93060302734375,-0.24957275390625,-0.127288818359375,-0.0100265350192785,0.2715657353401184,0.6536441445350647,91.48249816894533,-44.5159912109375,258.07489013671875
1700075510,0.9387054443359376,-0.2702178955078125,-0.15765380859375,0.0267850086092948,0.2612635493278503,0.7017767429351807,92.99085998535156,-45.53059387207031,257.9955749511719
1700075510,0.948486328125,-0.1983642578125,-0.183074951171875,-0.0171552840620279,0.2400693297386169,0.7501605153083801,93.96542358398438,-46.181427001953125,257.93927001953125
1700075510,0.9722747802734376,-0.0845184326171875,-0.1732025146484375,-0.0597970224916935,0.2474920898675918,0.7682799100875854,95.05294799804688,-46.99427795410156,258.0819091796875
1700075510,0.9886932373046876,-0.0154876708984375,-0.1423797607421875,-0.0503116399049758,0.273314356803894,0.7948744893074036,95.92198181152344,-47.71534729003906,258.69677734375
1700075510,0.98492431640625,0.0298919677734375,-0.10137939453125,-0.0428912751376628,0.2811738848686218,0.8442718386650085,96.90272521972656,-48.56568908691406,259.5754089355469
1700075510,0.9697418212890624,0.0848541259765625,-0.0991363525390625,-0.0510754361748695,0.2951759994029999,0.8715879321098328,97.42471313476562,-48.69993591308594,259.2464904785156
1700075510,0.958740234375,0.093109130859375,-0.079010009765625,-0.038595862686634,0.3570457398891449,0.8708169460296631,98.2909698486328,-49.28456115722656,260.0357360839844
1700075510,0.9307403564453124,0.014068603515625,-0.0899658203125,-0.0136487009003758,0.4029687643051147,0.8693718910217285,98.94181823730467,-49.86103820800781,259.73516845703125
1700075510,0.9204864501953124,-0.1065521240234375,-0.125823974609375,-0.0854360684752464,0.4105971157550812,0.852519690990448,99.60369873046876,-49.91706848144531,260.4336242675781
1700075510,0.9770355224609376,-0.21746826171875,-0.168426513671875,-0.2546456158161163,0.3750572204589844,0.9556897282600404,99.40126037597656,-49.88429260253906,260.929931640625
1700075510,0.994415283203125,-0.1705169677734375,-0.26690673828125,-0.3515617549419403,0.2837068140506744,1.0606096982955933,100.15650939941406,-50.39237976074219,260.7886962890625
1700075510,1.0033416748046875,-0.0635528564453125,-0.321563720703125,-0.4012811183929443,0.1918842196464538,1.0504660606384275,100.124755859375,-50.41534423828125,261.0735168457031
1700075510,1.0478363037109375,0.0713958740234375,-0.2827606201171875,-0.3482000529766083,0.1312797218561172,0.9870282411575316,100.46315002441406,-50.1419677734375,261.3836364746094
1700075510,1.0255584716796875,0.2112579345703125,-0.2107086181640625,-0.2428842782974243,0.113501526415348,0.9303151369094848,100.2312469482422,-50.25865173339844,261.78533935546875
1700075510,0.9757232666015624,0.32781982421875,-0.14556884765625,-0.1193998977541923,0.1316815912723541,0.8851268887519836,100.36265563964844,-50.05645751953125,260.9068603515625
1700075510,0.9312896728515624,0.352996826171875,-0.079803466796875,-0.0777872055768966,0.186420202255249,0.8581637144088745,100.5670928955078,-49.740631103515625,260.6941833496094
1700075510,0.9085235595703124,0.254638671875,-0.022979736328125,-0.1233922392129898,0.2405950278043747,0.8976397514343262,100.78944396972656,-49.64384460449219,260.68817138671875
1700075510,0.9114837646484376,0.1126556396484375,-0.0794677734375,-0.2098200768232345,0.2279628664255142,0.945099949836731,100.85031127929688,-49.76803588867188,260.87908935546875
1700075510,0.9584808349609376,0.0066986083984375,-0.178680419921875,-0.2889055609703064,0.1873453855514526,0.9832689166069032,100.67951965332033,-49.90440368652344,260.1100769042969
1700075510,1.0358123779296875,-0.0193939208984375,-0.2090606689453125,-0.2514769732952118,0.1507181376218795,1.0598129034042358,100.95382690429688,-50.14427185058594,260.11163330078125
1700075510,1.052825927734375,0.035552978515625,-0.2202606201171875,-0.1362654268741607,0.0891607701778411,1.070775866508484,101.02789306640624,-50.13957214355469,260.8485717773437
1700075510,1.0645751953125,0.16357421875,-0.1934051513671875,-0.0065124942921102,0.0518810413777828,1.0434547662734983,100.68368530273438,-49.23883056640625,260.861572265625
1700075510,1.0641326904296875,0.2943572998046875,-0.116851806640625,0.0823145806789398,0.0674647912383079,0.9878093004226683,100.60427856445312,-49.067962646484375,261.2074584960937
1700075511,1.0410919189453125,0.376068115234375,-0.0854339599609375,0.1980981677770614,0.0940471366047859,0.9346798062324524,100.31436157226562,-48.957061767578125,261.0695495605469
1700075511,1.029815673828125,0.3456268310546875,-0.0762481689453125,0.2568973004817962,0.0921994373202323,0.9518744945526124,100.21771240234376,-48.53196716308594,261.3435363769531
1700075511,1.01806640625,0.2500457763671875,-0.0984649658203125,0.2022889256477356,0.0648857876658439,1.0384130477905271,100.52198791503906,-48.149444580078125,261.5047607421875
1700075511,1.025146484375,0.1301422119140625,-0.1242218017578125,0.1199594289064407,0.0375234074890613,1.1622048616409302,100.32127380371094,-48.29728698730469,261.0262451171875
1700075511,1.032684326171875,0.05133056640625,-0.16162109375,0.125261515378952,0.015123026445508,1.2633873224258425,100.3139190673828,-48.54734802246094,261.3661804199219
1700075511,1.0820465087890625,0.0255889892578125,-0.2006683349609375,0.1855333745479583,0.0095458347350358,1.3669185638427734,100.06242370605467,-48.18965148925781,261.4974365234375
1700075511,1.129150390625,0.0529022216796875,-0.175323486328125,0.2300297319889068,0.0233966689556837,1.483608365058899,100.276611328125,-48.30000305175781,261.2916564941406
1700075511,1.1338043212890625,0.0938873291015625,-0.0930328369140625,0.2481104731559753,0.0344477221369743,1.615007400512695,100.59146118164062,-48.56813049316406,260.7698669433594
1700075511,1.1421051025390625,0.1369781494140625,-0.057220458984375,0.2074075192213058,0.0123690515756607,1.760725498199463,100.32083129882812,-49.02726745605469,261.08721923828125
1700075511,1.1852264404296875,0.167724609375,-0.0703887939453125,0.2715944945812225,-0.0152103779837489,1.873770833015442,100.39387512207033,-48.94921875,261.95196533203125
1700075511,1.255615234375,0.1567840576171875,-0.0753631591796875,0.3408822119235992,-0.0461451262235641,1.9687072038650515,100.58523559570312,-48.97969055175781,261.7711181640625
1700075511,1.3279571533203125,0.1508026123046875,-0.0864410400390625,0.4125031530857086,-0.0728206783533096,2.06536602973938,100.58517456054688,-49.06871032714844,261.87860107421875
1700075511,1.40411376953125,0.1261749267578125,-0.073455810546875,0.5158841013908386,-0.1288839429616928,2.156280755996704,100.64462280273438,-49.25267028808594,261.38507080078125
1700075511,1.5070648193359375,0.076324462890625,-0.0583038330078125,0.5450500249862671,-0.2007528096437454,2.2765145301818848,100.83241271972656,-50.05950927734375,261.5193786621094
1700075511,1.6256561279296875,0.019683837890625,-0.0644989013671875,0.5367052555084229,-0.2674737870693207,2.404634714126587,100.82928466796876,-50.09501647949219,261.9130554199219
1700075511,1.7480926513671875,-0.080230712890625,-0.0216064453125,0.4972614347934723,-0.3639957904815674,2.5545833110809326,101.27278137207033,-50.2091064453125,262.2862854003906
1700075511,1.8820343017578125,-0.197021484375,0.0578765869140625,0.366787314414978,-0.479869931936264,2.682626962661743,101.3995361328125,-50.52201843261719,262.78045654296875
1700075511,2.054412841796875,-0.339599609375,0.0995941162109375,0.1665141433477401,-0.4336094856262207,2.7045657634735107,101.35118103027344,-50.8250732421875,262.31982421875
1700075511,2.234970092773437,-0.579986572265625,0.0679931640625,0.2917447686195373,-0.294719249010086,2.619563341140747,101.37916564941406,-51.42819213867188,262.87078857421875
1700075511,2.2679901123046875,-0.8690032958984375,0.0447998046875,0.533852756023407,-0.3550576865673065,2.6217563152313232,101.75111389160156,-51.791778564453125,262.80889892578125
1700075511,2.0628814697265625,-0.9683990478515624,-0.077392578125,0.0211652070283889,-0.1790347248315811,2.837274074554444,101.63916015625,-51.88818359375,263.1024780273437
1700075511,1.7200164794921875,-0.8574676513671875,-0.6785430908203125,-0.8656038045883179,0.0800383761525154,3.03289794921875,101.57926940917967,-51.89869689941406,263.52130126953125
1700075511,1.4355621337890625,-0.7208404541015625,-1.1243438720703125,-1.8005943298339844,0.177341490983963,3.379467248916626,101.6359405517578,-52.51817321777344,264.0128173828125
1700075511,1.2138824462890625,-0.4193267822265625,-1.319183349609375,-2.4006235599517822,0.0861953422427177,3.56919813156128,101.67269897460938,-52.58299255371094,263.63006591796875
1700075511,1.0536651611328125,-0.2285308837890625,-1.4822540283203125,-2.809302568435669,0.1910248100757599,3.497024774551392,102.1388702392578,-53.04783630371094,264.2396545410156
1700075511,1.0514068603515625,-0.1168975830078125,-1.70068359375,-2.8762762546539307,0.2152417302131652,3.404362678527832,102.11813354492188,-53.2093505859375,264.5997009277344
1700075511,1.075408935546875,0.0705108642578125,-1.48883056640625,-2.785695552825928,-0.0321432873606681,3.354304790496826,102.18556213378906,-53.50135803222656,264.196533203125
1700075511,1.148834228515625,0.33966064453125,-1.010223388671875,-2.9510645866394043,-0.3927198648452759,3.3260955810546875,102.41365051269533,-53.55015563964844,264.6204833984375
1700075511,1.2052001953125,0.7796630859375,-0.590606689453125,-3.708929538726807,-0.3246728777885437,2.906833410263061,102.7122039794922,-53.62953186035156,264.82061767578125
1700075511,1.1909027099609375,1.1935882568359375,-0.4303436279296875,-3.646134614944458,-0.1968318372964859,2.040762186050415,102.74534606933594,-54.06817626953125,264.99151611328125
1700075511,1.1400604248046875,1.0192718505859375,-0.152252197265625,-2.48962140083313,-0.2422805428504943,1.3303076028823853,102.69898986816406,-54.754638671875,265.2403564453125
1700075511,0.9749298095703124,0.3341064453125,0.03216552734375,-1.7270312309265137,-0.3139033317565918,0.9236249923706056,102.91470336914062,-54.411865234375,265.0514831542969
1700075511,0.740509033203125,0.017669677734375,-0.2298736572265625,-1.467071771621704,-0.3727378845214844,0.8561458587646484,102.96018981933594,-54.54051208496094,265.0862121582031
1700075511,0.50457763671875,-0.0377044677734375,-0.4875335693359375,-1.5496678352355957,-0.4622659087181091,0.8362642526626587,102.79234313964844,-54.709716796875,265.793212890625
1700075511,0.41302490234375,-0.062957763671875,-0.6446075439453125,-1.798359990119934,-0.5951547026634216,0.6893802881240845,102.7775421142578,-54.89031982421875,265.4670715332031
1700075511,0.4337005615234375,-0.0832672119140625,-0.7552032470703125,-2.082294225692749,-0.7398799657821655,0.4619878828525543,102.99403381347656,-55.07655334472656,265.5895690917969
1700075511,0.4979705810546875,-0.049530029296875,-0.8132781982421875,-2.280260801315308,-0.8839631080627441,0.2329389750957489,102.86737060546876,-55.42366027832031,265.6526184082031
1700075511,0.57000732421875,0.0662994384765625,-0.766357421875,-2.4264752864837646,-1.014299988746643,0.0075929383747279,102.64559936523438,-55.49920654296875,266.1922607421875
1700075511,0.639434814453125,0.19793701171875,-0.6698150634765625,-2.579878091812134,-1.159916639328003,-0.2259891927242279,102.85684204101562,-55.76095581054688,266.137939453125
1700075511,0.6710968017578125,0.31640625,-0.65240478515625,-2.6754627227783203,-1.296489953994751,-0.4409078955650329,102.86526489257812,-55.50947570800781,266.1734313964844
1700075511,0.6302337646484375,0.4210662841796875,-0.7459564208984375,-2.6916654109954834,-1.4063540697097778,-0.60813307762146,103.3765869140625,-55.36393737792969,266.39385986328125
1700075511,0.5389404296875,0.507781982421875,-0.8636016845703125,-2.758690357208252,-1.4943755865097046,-0.7509174346923828,103.26138305664062,-55.86549377441406,266.5364685058594
1700075511,0.4677734375,0.58343505859375,-0.91400146484375,-2.87865686416626,-1.537753939628601,-0.9560684561729432,103.06500244140624,-55.54515075683594,266.56353759765625
1700075511,0.4823760986328125,0.57257080078125,-0.8654937744140625,-2.9129676818847656,-1.578023910522461,-1.1524629592895508,103.19790649414062,-55.80397033691406,266.52960205078125
1700075511,0.5059967041015625,0.48480224609375,-0.788543701171875,-2.8635501861572266,-1.6150950193405151,-1.229273557662964,103.19216918945312,-55.63059997558594,266.5238037109375
1700075511,0.450225830078125,0.44293212890625,-0.7876434326171875,-2.842794895172119,-1.63764750957489,-1.229164719581604,102.9259796142578,-55.59954833984375,266.8171691894531
1700075511,0.3624420166015625,0.4709625244140625,-0.84259033203125,-2.829551935195923,-1.6546871662139893,-1.3143492937088013,102.95924377441406,-55.57890319824219,266.64471435546875
1700075511,0.3330535888671875,0.48114013671875,-0.853912353515625,-2.7287814617156982,-1.6684216260910034,-1.4820994138717651,103.02838134765624,-55.69685363769531,266.7748413085937
1700075511,0.33355712890625,0.4716339111328125,-0.809722900390625,-2.5053598880767822,-1.6868038177490234,-1.6364171504974363,102.82131958007812,-55.37521362304688,266.4697265625
1700075511,0.3145751953125,0.45611572265625,-0.72509765625,-2.280191421508789,-1.673671007156372,-1.7565357685089111,102.97804260253906,-55.23802185058594,267.0447998046875
1700075511,0.2795867919921875,0.4302978515625,-0.692169189453125,-2.128828525543213,-1.65947163105011,-1.883028268814087,102.6861572265625,-54.45887756347656,266.0101013183594
1700075511,0.2696380615234375,0.3907012939453125,-0.7296600341796875,-2.0638175010681152,-1.6764931678771973,-2.0205676555633545,102.79171752929688,-54.378814697265625,266.1298828125
1700075511,0.30047607421875,0.3403778076171875,-0.73895263671875,-2.0779364109039307,-1.6780612468719482,-2.1622800827026367,102.67178344726562,-53.67335510253906,266.67559814453125
1700075511,0.351348876953125,0.27825927734375,-0.7386322021484375,-2.07252836227417,-1.6717610359191897,-2.2758045196533203,102.47134399414062,-53.30625915527344,266.772216796875
1700075511,0.3526763916015625,0.2325286865234375,-0.7061614990234375,-2.028597116470337,-1.6638000011444092,-2.347872018814087,102.19378662109376,-52.83647155761719,266.3485717773437
1700075511,0.3004302978515625,0.2342681884765625,-0.6590423583984375,-2.05564284324646,-1.6465173959732056,-2.42896032333374,102.02873229980467,-52.2935791015625,266.7750244140625
1700075511,0.248016357421875,0.2758026123046875,-0.6405487060546875,-2.0900778770446777,-1.63139545917511,-2.506518840789795,102.0009765625,-52.10519409179688,266.9542236328125
1700075511,0.2410888671875,0.3347930908203125,-0.589019775390625,-2.088702917098999,-1.6309012174606323,-2.499841451644897,101.90345764160156,-51.73014831542969,267.18182373046875
1700075511,0.2573699951171875,0.4248809814453125,-0.5063629150390625,-2.029259204864502,-1.6575483083724976,-2.460088014602661,101.61740112304688,-51.40296936035156,266.7098693847656
1700075511,0.2698822021484375,0.546417236328125,-0.47552490234375,-1.996631741523743,-1.634434461593628,-2.4701085090637207,101.39353942871094,-50.75164794921875,266.6925048828125
1700075511,0.2908782958984375,0.6306915283203125,-0.514495849609375,-1.984098196029663,-1.6134988069534302,-2.427558660507202,101.40293884277344,-50.70350646972656,266.2957763671875
1700075511,0.32781982421875,0.7039031982421875,-0.542236328125,-1.833995223045349,-1.6169207096099854,-2.2466208934783936,101.24472045898438,-50.17974853515625,266.6234130859375
1700075511,0.3976898193359375,0.810699462890625,-0.5546112060546875,-1.5928938388824463,-1.583638310432434,-1.986418843269348,101.02940368652344,-50.11468505859375,266.98974609375
1700075511,0.4303131103515625,0.9398651123046876,-0.603607177734375,-1.2637964487075806,-1.4879450798034668,-1.7304352521896362,101.04330444335938,-49.50492858886719,266.45068359375
1700075511,0.4591064453125,1.0670013427734375,-0.6722259521484375,-0.8937938809394836,-1.327582836151123,-1.5127966403961182,100.65771484375,-48.64949035644531,266.543212890625
1700075511,0.4721221923828125,1.20123291015625,-0.7435302734375,-0.4536348581314087,-1.0939384698867798,-1.329828143119812,100.4413604736328,-48.701416015625,267.1254272460937
1700075511,0.48797607421875,1.3075714111328125,-0.81488037109375,0.0910617336630821,-0.8286465406417847,-1.1138700246810913,100.74153137207033,-48.35173034667969,266.8787841796875
1700075511,0.505859375,1.3990325927734375,-0.9001312255859375,0.4955879151821136,-0.6376169323921204,-0.8079380989074707,100.22125244140624,-48.02926635742188,267.00830078125
1700075511,0.516448974609375,1.5700225830078125,-0.923126220703125,0.5313869118690491,-0.5091926455497742,-0.4965479671955108,100.22015380859376,-47.97906494140625,267.4671936035156
1700075511,0.577606201171875,1.7030792236328125,-0.853485107421875,0.430783599615097,-0.3214603066444397,-0.2942252457141876,100.28890991210938,-47.57292175292969,267.48309326171875
1700075511,0.6783447265625,1.6157073974609375,-0.789398193359375,0.2771599590778351,-0.0713351666927337,0.0381471179425716,99.5850830078125,-46.98295593261719,267.8319091796875
1700075511,0.650299072265625,1.4209442138671875,-0.8423919677734375,-0.0796538144350051,0.0435786359012126,0.3766064047813415,99.55752563476562,-46.97834777832031,267.6385498046875
1700075511,0.6245880126953125,1.188751220703125,-0.8637847900390625,-0.4732221364974975,0.0832789093255996,0.6972275376319885,99.6551513671875,-46.68179321289063,268.51611328125
1700075511,0.6225128173828125,0.9678192138671876,-0.80755615234375,-0.7663477659225464,0.0682847797870636,0.9779188632965088,99.08273315429688,-46.52476501464844,268.7570495605469
1700075511,0.5369873046875,0.805389404296875,-0.7027587890625,-1.1017824411392212,0.2525012195110321,0.9287686347961426,99.2399444580078,-46.11920166015625,268.8843994140625
1700075511,0.4642333984375,0.5679473876953125,-0.8074493408203125,-1.128520131111145,0.4133249819278717,0.6147840619087219,99.01028442382812,-45.533477783203125,268.8618469238281
1700075511,0.327850341796875,0.3152618408203125,-1.0879364013671875,-0.7384051084518433,0.1626448333263397,0.6863424181938171,98.50682067871094,-45.02632141113281,269.3669738769531
1700075511,0.4721527099609375,0.3019866943359375,-0.579925537109375,-0.0065780077129602,-0.0079077240079641,0.441727340221405,98.42909240722656,-44.850921630859375,270.1393737792969
1700075511,1.3785400390625,0.0800933837890625,-0.1527252197265625,1.2447798252105713,-0.0644927099347114,1.3694355487823486,98.60354614257812,-44.49993896484375,270.17291259765625
1700075511,2.3943634033203125,0.626556396484375,0.328857421875,0.3593783974647522,-0.2157109826803207,2.0950076580047607,97.87185668945312,-43.72311401367188,270.1580810546875
1700075511,3.2098541259765625,0.9260101318359376,0.2514495849609375,-0.6254585385322571,-0.2661699056625366,1.4654814004898071,97.8861846923828,-42.97837829589844,270.0452880859375
1700075511,2.375244140625,0.726715087890625,0.063995361328125,-0.4926986396312713,0.1167362034320831,0.9923452138900756,97.320556640625,-41.70503234863281,268.7016296386719
1700075511,0.730255126953125,0.43536376953125,-0.07110595703125,-0.1498827040195465,0.3036395013332367,0.6774168014526367,96.701416015625,-40.85887145996094,268.0038146972656
1700075511,-0.01422119140625,0.138885498046875,-0.459075927734375,0.0513963438570499,0.2708291113376617,0.5710301995277405,96.17683410644533,-39.57606506347656,267.5252685546875
1700075511,0.0511627197265625,0.0974273681640625,-0.63128662109375,0.1153556182980537,0.0615246146917343,0.7404857873916626,95.05726623535156,-38.27851867675781,266.2995910644531
1700075511,0.6319580078125,0.31817626953125,-0.3658447265625,-0.0824828892946243,0.0513912849128246,0.7134696245193481,94.31961059570312,-37.37821960449219,265.58856201171875
1700075511,1.0341339111328125,0.5517120361328125,-0.282806396484375,-0.3439696133136749,0.1320810765028,0.4170534312725067,92.57218933105467,-35.74308776855469,264.7614440917969
1700075511,1.2691192626953125,0.5781402587890625,-0.2026824951171875,-0.3056627213954925,0.191793143749237,0.2020148783922195,91.2907257080078,-34.71421813964844,264.20477294921875
1700075511,1.2428741455078125,0.4725341796875,-0.224822998046875,-0.2009821087121963,0.2110957354307174,0.1253206431865692,90.15950012207033,-33.69805908203125,263.7992553710937
1700075511,1.0913848876953125,0.3089447021484375,-0.328521728515625,-0.25840625166893,0.1560218185186386,0.1100620552897453,89.09860229492188,-32.71318054199219,264.03741455078125
1700075511,1.0048675537109375,0.122344970703125,-0.3710784912109375,-0.301666647195816,0.0856749564409256,0.0771203488111496,88.22093200683594,-31.765045166015625,263.22882080078125
1700075511,1.014404296875,0.043243408203125,-0.4720916748046875,-0.2144369333982467,0.0100268013775348,0.083234965801239,86.87400817871094,-31.011688232421875,263.3268737792969
1700075511,1.1358184814453125,0.001251220703125,-0.466552734375,-0.1297800987958908,-0.0793076083064079,0.1773854345083236,85.80036926269531,-30.3453369140625,263.0671691894531
1700075511,1.1774749755859375,0.030792236328125,-0.4039764404296875,-0.1105158552527427,-0.1389717310667038,0.23236745595932,84.61915588378906,-29.92396545410156,262.668212890625
1700075511,1.0686798095703125,0.1544647216796875,-0.367889404296875,-0.1436628997325897,-0.180682435631752,0.1696670651435852,83.62846374511719,-28.84141540527344,262.90985107421875
1700075511,0.9494476318359376,0.26995849609375,-0.359710693359375,-0.1948038339614868,-0.1913997828960418,0.0033217607997357,82.65740966796875,-28.47523498535156,262.5220947265625
1700075511,0.8845672607421875,0.3032989501953125,-0.3496246337890625,-0.215517371892929,-0.1823082864284515,-0.1945934444665908,81.67477416992188,-27.671432495117188,262.373779296875
1700075511,0.888427734375,0.2745208740234375,-0.3393096923828125,-0.1445020586252212,-0.1697791814804077,-0.305213451385498,81.24404907226562,-27.37774658203125,262.63946533203125
1700075511,0.8968658447265625,0.2291412353515625,-0.3242950439453125,-0.0577828735113143,-0.1987176239490509,-0.3043164908885956,80.62367248535156,-26.722427368164062,262.1878662109375
1700075512,0.90728759765625,0.23211669921875,-0.3021697998046875,-0.083062395453453,-0.2220953851938247,-0.3171875476837158,79.94912719726562,-26.579574584960938,261.86285400390625
1700075512,0.9827880859375,0.225250244140625,-0.2804412841796875,-0.1231720000505447,-0.2045611292123794,-0.3631675541400909,79.40155029296875,-26.007537841796875,261.7938842773437
1700075512,1.0386810302734375,0.2106781005859375,-0.2970428466796875,-0.0881293267011642,-0.1911537051200866,-0.4167269170284271,79.38748168945312,-25.85737609863281,261.54156494140625
1700075512,1.0741119384765625,0.1767425537109375,-0.311614990234375,0.0140311308205127,-0.1917566508054733,-0.4218079745769501,78.99601745605469,-25.71539306640625,260.97808837890625
1700075512,1.089263916015625,0.148284912109375,-0.299835205078125,0.0992299169301986,-0.2049438208341598,-0.4063355326652527,78.63671875,-25.23031616210937,260.67254638671875
1700075512,1.0481719970703125,0.1533355712890625,-0.3010711669921875,0.1603427976369857,-0.213782325387001,-0.4208577573299408,78.68630981445312,-25.62217712402344,259.71759033203125
1700075512,0.9848785400390624,0.179718017578125,-0.3055877685546875,0.2242011427879333,-0.230444386601448,-0.476882129907608,78.98561096191406,-25.898696899414062,258.6776123046875
1700075512,0.9235992431640624,0.199188232421875,-0.322601318359375,0.2615522444248199,-0.2532269358634949,-0.543495237827301,79.5703125,-25.78160095214844,258.36163330078125
1700075512,0.896728515625,0.207000732421875,-0.3079681396484375,0.2141306698322296,-0.2646982371807098,-0.5870968103408813,80.1341552734375,-26.173995971679688,257.23797607421875
1700075512,0.924957275390625,0.1908721923828125,-0.2876129150390625,0.1013135686516761,-0.2479821145534515,-0.603200376033783,80.80934143066406,-26.38043212890625,257.2841186523437
1700075512,0.9575653076171876,0.1571197509765625,-0.312255859375,0.0343531817197799,-0.2663965225219726,-0.5788239240646362,81.61439514160156,-26.344757080078125,256.10693359375
1700075512,0.967529296875,0.1362762451171875,-0.306549072265625,0.0070131681859493,-0.2843252122402191,-0.5500487685203552,82.62454223632812,-26.901580810546875,255.1250915527344
1700075512,0.991302490234375,0.1121368408203125,-0.29083251953125,0.0499928593635559,-0.2656705677509308,-0.5424049496650696,84.03366088867188,-27.62738037109375,254.8784942626953
1700075512,1.0126953125,0.0848846435546875,-0.2423553466796875,0.1559027731418609,-0.2005860954523086,-0.5336418151855469,85.03399658203125,-28.10018920898437,254.2301483154297
1700075512,1.007415771484375,0.0631256103515625,-0.19415283203125,0.2603098750114441,-0.1458024829626083,-0.4793421030044555,86.40306091308594,-29.050308227539062,252.90440368652344
1700075512,0.9751739501953124,0.0667572021484375,-0.18963623046875,0.3448508679866791,-0.092692382633686,-0.4391810894012451,88.15684509277344,-29.787841796875,252.8132476806641
1700075512,0.9511871337890624,0.07489013671875,-0.2113800048828125,0.4325034916400909,-0.0885402485728263,-0.4440043568611145,89.53732299804688,-30.77088928222656,252.2006072998047
1700075512,0.9322967529296876,0.0821533203125,-0.22149658203125,0.427639752626419,-0.0800327807664871,-0.4374790787696838,91.3769989013672,-32.08056640625,252.0701141357422
1700075512,0.918121337890625,0.1154022216796875,-0.2547607421875,0.3625084161758423,-0.0985782369971275,-0.4378239512443542,93.23782348632812,-33.222503662109375,251.4449462890625
1700075512,0.9150848388671876,0.1258392333984375,-0.279327392578125,0.3123011887073517,-0.1133055165410041,-0.415164440870285,94.98005676269533,-34.76161193847656,251.71896362304688
1700075512,0.9221649169921876,0.1071929931640625,-0.283447265625,0.2983757853507995,-0.1360009759664535,-0.3812733292579651,96.86442565917967,-36.4744873046875,251.42843627929688
1700075512,0.9223175048828124,0.07098388671875,-0.271240234375,0.3079493045806885,-0.1596109718084335,-0.3503228724002838,98.52561950683594,-38.12590026855469,251.3954315185547
1700075512,0.9196014404296876,0.0122528076171875,-0.2563323974609375,0.3270084857940674,-0.1558258086442947,-0.3038917183876037,100.34811401367188,-40.03465270996094,251.736328125
1700075512,0.9139862060546876,-0.019500732421875,-0.2428131103515625,0.3012178838253021,-0.1361844688653946,-0.2519933581352234,102.0459442138672,-42.13264465332031,252.3359375
1700075512,0.929534912109375,-0.00299072265625,-0.2410736083984375,0.2464854121208191,-0.1345884352922439,-0.2042229026556015,103.75843811035156,-44.41647338867188,253.07041931152344
1700075512,0.9485931396484376,0.046478271484375,-0.244842529296875,0.1933385729789734,-0.1077704057097435,-0.1511349231004715,105.31910705566406,-47.049560546875,253.9908447265625
1700075512,0.9541168212890624,0.07196044921875,-0.2278900146484375,0.1460831761360168,-0.1132589131593704,-0.0999404489994049,106.73460388183594,-49.258697509765625,254.5195159912109
1700075512,0.9340667724609376,0.0436248779296875,-0.1913604736328125,0.1934834420680999,-0.1066598668694496,-0.0237175803631544,108.11537170410156,-52.205596923828125,255.5343170166016
1700075512,0.945770263671875,-0.046295166015625,-0.20123291015625,0.2098722755908966,-0.0988088697195053,0.0898001939058303,108.94906616210938,-55.04484558105469,255.96568298339844
1700075512,0.9798583984375,-0.084625244140625,-0.25164794921875,0.2332425713539123,-0.0889985784888267,0.1698225885629654,109.82496643066406,-58.040069580078125,257.63946533203125
1700075512,1.0323028564453125,-0.11822509765625,-0.2560882568359375,0.2903844118118286,-0.0910835713148117,0.248490497469902,110.12750244140624,-61.11125183105469,258.1813659667969
1700075512,1.0660552978515625,-0.120849609375,-0.226593017578125,0.2718067467212677,-0.077888935804367,0.3668901324272156,110.96502685546876,-63.83639526367188,259.5136108398437
1700075512,1.100860595703125,-0.0615997314453125,-0.18157958984375,0.3004620969295501,-0.0798024237155914,0.4573321342468261,110.73243713378906,-66.65896606445312,260.3066101074219
1700075512,1.1568603515625,-0.0236663818359375,-0.138671875,0.3139770925045013,-0.0873849689960479,0.523615300655365,110.68296813964844,-69.28594970703125,261.2535400390625
1700075512,1.2416839599609375,-0.0260009765625,-0.1059112548828125,0.3458950817584991,-0.0515366941690444,0.6109153032302856,110.28094482421876,-72.04194641113281,262.17242431640625
1700075512,1.312957763671875,-0.0787200927734375,-0.0789947509765625,0.4262098968029022,-0.0380190201103687,0.6873397827148438,110.30548095703124,-74.13021850585938,263.14532470703125
1700075512,1.3234100341796875,-0.1212615966796875,-0.1296539306640625,0.5176337957382202,-0.0845492407679557,0.7576083540916443,109.63539123535156,-76.4853515625,264.58770751953125
1700075512,1.374053955078125,-0.117828369140625,-0.1260986328125,0.5805770754814148,-0.1289673000574112,0.8527963757514954,109.26483154296876,-78.1817626953125,264.669921875
1700075512,1.4540557861328125,-0.0925750732421875,-0.03515625,0.6022834777832031,-0.1367141753435135,0.939648985862732,108.75553894042967,-79.89447021484375,266.03289794921875
1700075512,1.4977569580078125,-0.0889434814453125,0.0267333984375,0.5766012668609619,-0.1625782549381256,1.0174822807312012,108.1005401611328,-81.30923461914062,266.2166748046875
1700075512,1.5171051025390625,-0.129241943359375,0.065673828125,0.5282111167907715,-0.1808336973190307,1.1140055656433103,107.353271484375,-82.68519592285156,266.63397216796875
1700075512,1.507049560546875,-0.21221923828125,0.0968475341796875,0.3821990191936493,-0.1674185544252395,1.262035250663757,107.3359832763672,-83.54026794433594,267.3254089355469
1700075512,1.520111083984375,-0.272857666015625,0.09783935546875,0.2501714825630188,-0.1871342062950134,1.3468871116638184,107.013916015625,-84.08164978027344,266.88800048828125
1700075512,1.50213623046875,-0.3880157470703125,0.131317138671875,0.1715584397315979,-0.1483196914196014,1.3788559436798096,106.7835693359375,-83.89532470703125,266.7640991210937
1700075512,1.489593505859375,-0.5613250732421875,0.12017822265625,0.0431120507419109,-0.1259440779685974,1.3943352699279783,106.57330322265624,-83.67388916015625,266.5458374023437
1700075512,1.4795684814453125,-0.662933349609375,0.087310791015625,-0.1343687325716018,-0.1030358374118805,1.3791403770446775,106.20289611816406,-82.94805908203125,265.7408447265625
1700075512,1.46356201171875,-0.7303314208984375,-0.00189208984375,-0.3609757721424103,0.0179281346499919,1.44165301322937,106.12310791015624,-82.76351928710938,264.9751892089844
1700075512,1.3974456787109375,-0.6832733154296875,-0.2004852294921875,-0.8800000548362732,0.2862240374088287,1.8262778520584104,106.253662109375,-81.50314331054688,265.0872802734375
1700075512,1.2357025146484375,-0.3701324462890625,-0.659423828125,-1.619284749031067,0.5562376976013184,2.219486713409424,106.49769592285156,-81.28347778320312,264.8883361816406
1700075512,1.1275177001953125,-0.121856689453125,-1.1720733642578125,-1.9852893352508545,0.6727099418640137,2.326257705688477,106.43408203125,-81.14601135253906,265.07275390625
1700075512,1.2291107177734375,-0.08123779296875,-1.3243865966796875,-2.060594320297241,0.7489914298057556,2.4542815685272217,106.2917022705078,-81.41659545898438,265.0220947265625
1700075512,1.272674560546875,0.07379150390625,-1.2464447021484375,-1.7900512218475342,0.8255144357681274,2.788391351699829,106.11988830566406,-81.42692565917969,264.1686706542969
1700075512,1.192626953125,0.3331451416015625,-0.9745635986328124,-1.2614812850952148,0.9795215725898744,3.102576732635498,106.01954650878906,-80.68417358398438,263.5589599609375
1700075512,1.2085723876953125,0.50665283203125,-0.7288360595703125,-0.7428701519966125,1.059032917022705,3.2811214923858643,106.07575988769533,-79.26969909667969,263.013427734375
1700075512,1.282989501953125,0.6796875,-0.570770263671875,-0.3750724196434021,1.1745169162750244,3.4088034629821777,106.22557067871094,-77.91238403320312,262.8968811035156
1700075512,1.4051971435546875,0.9544219970703124,-0.50079345703125,-0.2040021270513534,1.1633188724517822,3.354543685913086,106.49526977539062,-77.35650634765625,261.9124755859375
1700075512,1.61090087890625,1.1578216552734375,-0.42779541015625,-0.0166482180356979,1.1341670751571655,2.889511823654175,105.95529174804688,-76.63804626464844,261.6893310546875
1700075512,1.83148193359375,1.114715576171875,-0.3585662841796875,0.573302686214447,1.2069259881973269,2.335301637649536,106.07908630371094,-76.16587829589844,261.33154296875
1700075512,1.77703857421875,0.811981201171875,-0.352203369140625,1.1874409914016724,1.177703619003296,2.067002534866333,105.92424011230467,-75.30448913574219,260.4183044433594
1700075512,1.5126953125,0.5547637939453125,-0.3971405029296875,1.262198805809021,1.0958300828933716,2.01699447631836,105.91268920898438,-74.85324096679688,260.4100341796875
1700075512,1.3341827392578125,0.4602813720703125,-0.5314178466796875,0.9707597494125366,1.0188908576965332,2.0424015522003174,105.81883239746094,-74.52781677246094,259.880859375
1700075512,1.19708251953125,0.361663818359375,-0.634063720703125,0.4848836064338684,0.9439321160316468,2.035649538040161,106.00592041015624,-73.99565124511719,258.7603759765625
1700075512,1.1216888427734375,0.2427520751953125,-0.65692138671875,0.0072437981143593,0.8776729702949524,1.855682373046875,106.06240844726562,-73.44435119628906,258.2987670898437
1700075512,1.11700439453125,0.1003265380859375,-0.614013671875,-0.3931446373462677,0.7555824518203735,1.5848591327667236,105.79005432128906,-73.35374450683594,258.269775390625
1700075512,1.0819854736328125,-0.0098724365234375,-0.504913330078125,-0.7385504841804504,0.6745366454124451,1.3114267587661743,105.74522399902344,-72.46153259277344,257.8500366210937
1700075512,0.99041748046875,-0.0778350830078125,-0.4351806640625,-1.0376287698745728,0.6348366141319275,1.0550048351287842,105.96636962890624,-72.46292114257812,257.4718322753906
1700075512,0.8450469970703125,-0.085723876953125,-0.4158477783203125,-1.260558009147644,0.5454268455505371,0.809941828250885,105.63072204589844,-71.92951965332031,256.9141845703125
1700075512,0.6696319580078125,-0.0486907958984375,-0.3494415283203125,-1.3579455614089966,0.4178441166877746,0.4803794026374817,105.61897277832033,-71.49894714355469,257.1512451171875
1700075512,0.5252227783203125,-0.05145263671875,-0.2537841796875,-1.320015788078308,0.3079559504985809,0.1569589972496032,105.14967346191406,-71.35649108886719,256.93121337890625
1700075512,0.386962890625,-0.03009033203125,-0.184173583984375,-1.202433705329895,0.1963242441415786,-0.1624006330966949,105.2592315673828,-70.66578674316406,256.6329345703125
1700075512,0.27886962890625,-0.0083160400390625,-0.1275787353515625,-1.075415849685669,0.0487757958471775,-0.5148937106132507,105.10073852539062,-70.95191955566406,256.7539978027344
1700075512,0.305023193359375,-0.050262451171875,-0.042510986328125,-1.029532790184021,-0.0842389836907386,-0.7780214548110962,105.2701416015625,-70.42532348632812,256.51190185546875
1700075512,0.3381805419921875,-0.0644073486328125,-0.0181732177734375,-1.0254634618759155,-0.1972962915897369,-0.9596509337425232,105.2277374267578,-70.69679260253906,256.34686279296875
1700075512,0.29071044921875,-0.0684967041015625,-0.0570831298828125,-1.053594946861267,-0.3478434681892395,-1.1199921369552612,105.18385314941406,-70.22703552246094,256.0709533691406
1700075512,0.2210845947265625,-0.1034698486328125,-0.06732177734375,-1.0524165630340576,-0.4513536095619201,-1.292699933052063,105.11756896972656,-69.76618957519531,256.08892822265625
1700075512,0.1424560546875,-0.1469573974609375,-0.0952606201171875,-1.1151092052459717,-0.5334122776985168,-1.518943190574646,105.03993225097656,-69.79672241210938,255.5086975097656
1700075512,0.089599609375,-0.161407470703125,-0.12969970703125,-1.2129708528518677,-0.6300525069236755,-1.7667874097824097,104.7227020263672,-69.735107421875,256.11383056640625
1700075512,0.0752716064453125,-0.1034088134765625,-0.1563262939453125,-1.2970353364944458,-0.7261545658111572,-2.0104236602783203,104.70736694335938,-69.43460083007812,256.340576171875
1700075512,0.08154296875,-0.06103515625,-0.1466064453125,-1.4000426530838013,-0.8054096698760986,-2.2263007164001465,104.97135925292967,-69.18182373046875,255.6298828125
1700075512,0.0811614990234375,-0.0571136474609375,-0.158843994140625,-1.535444974899292,-0.8857018351554871,-2.384026288986206,105.06988525390624,-68.46974182128906,255.73095703125
1700075512,0.0568695068359375,-0.0411376953125,-0.1552581787109375,-1.6099159717559814,-0.9636672139167786,-2.480011224746704,104.95281982421876,-68.54727172851562,255.49392700195312
1700075512,0.061279296875,0.0100555419921875,-0.13067626953125,-1.638021469116211,-1.0333805084228516,-2.5262341499328613,104.64039611816406,-68.272216796875,254.8587646484375
