timestamp,acc-x,acc-y,acc-z,gyr-x,gyr-y,gyr-z,mag-x,mag-y,mag-z
1700076068,-0.18548583984375,-0.4376678466796875,-0.07781982421875,-1.986966133117676,-0.6455798149108887,-2.172801971435547,103.14523315429688,-75.91621398925781,269.3671569824219
1700076068,-0.2216339111328125,-0.538604736328125,-0.1018218994140625,-2.644325256347656,-0.7095747590065002,-2.276555061340332,102.76237487792967,-74.98939514160156,268.8709716796875
1700076068,-0.3020172119140625,-0.5020904541015625,-0.1893768310546875,-3.1742074489593506,-0.891306459903717,-2.408011674880981,102.66726684570312,-73.01394653320312,267.51873779296875
1700076068,-0.2825469970703125,-0.3576202392578125,-0.2527923583984375,-3.485123634338379,-1.098342776298523,-2.662338972091675,102.6010284423828,-71.81803894042969,266.60528564453125
1700076068,-0.2196807861328125,-0.1640777587890625,-0.209991455078125,-3.3691985607147217,-1.306344985961914,-2.94317626953125,102.39663696289062,-70.90457153320312,265.9229736328125
1700076068,-0.2059783935546875,0.04534912109375,-0.1490020751953125,-2.477156400680542,-1.5048907995224,-3.066106081008911,102.05294799804688,-70.31861877441406,265.0424194335937
1700076068,-0.1826629638671875,0.3269500732421875,-0.1312408447265625,-1.360830307006836,-1.4832723140716553,-3.135067939758301,102.21208190917967,-69.91253662109375,264.80548095703125
1700076068,-0.1386566162109375,0.53704833984375,-0.2607574462890625,-0.3833953142166137,-1.3470449447631836,-3.1870763301849365,102.0141143798828,-68.95999145507812,264.0724182128906
1700076068,-0.1026763916015625,0.7126007080078125,-0.50103759765625,0.7116672396659851,-1.237464427947998,-3.1604106426239014,101.84715270996094,-68.37962341308594,263.2649841308594
1700076068,-0.0765228271484375,0.9004669189453125,-0.8441009521484375,1.640417456626892,-1.1620404720306396,-2.997953653335572,102.00936889648438,-68.28761291503906,262.8739013671875
1700076068,-0.0555267333984375,1.1798095703125,-1.0683135986328125,1.9997234344482424,-1.0013115406036377,-2.786771059036255,101.86183166503906,-67.79106140136719,262.11822509765625
1700076068,-0.00592041015625,1.47528076171875,-1.0528106689453125,1.879251837730408,-0.8032011389732361,-2.4520230293273926,101.70835876464844,-67.96160888671875,262.21826171875
1700076068,0.0268707275390625,1.751129150390625,-0.9152984619140624,1.6295485496520996,-0.6229093670845032,-2.0007174015045166,101.76443481445312,-67.53828430175781,261.6815795898437
1700076068,0.006927490234375,1.9581146240234373,-0.8359222412109375,1.1443382501602173,-0.5361414551734924,-1.510497808456421,101.46107482910156,-67.38064575195312,261.6800842285156
1700076068,0.01226806640625,2.083740234375,-0.7811279296875,0.4338284134864807,-0.3707770109176636,-1.1172897815704346,101.40837097167967,-66.94798278808594,260.8751220703125
1700076068,0.048370361328125,1.98638916015625,-0.8084869384765625,0.0941078588366508,-0.157762199640274,-0.8936748504638672,101.50242614746094,-66.78195190429688,260.5551147460937
1700076068,0.0378570556640625,1.642486572265625,-0.8017730712890625,-0.0045838328078389,0.0074776238761842,-0.6493948101997375,101.17683410644533,-66.56019592285156,260.67626953125
1700076068,-0.0212554931640625,1.329681396484375,-0.78509521484375,-0.3094420135021209,0.763683557510376,-0.8242936134338379,100.66554260253906,-66.33787536621094,259.419189453125
1700076068,-0.05743408203125,1.036529541015625,-1.4579925537109375,0.3641417324542999,-0.2146665006875991,-0.3174083232879638,101.00881958007812,-66.16973876953125,259.4814453125
1700076068,0.7518463134765625,1.27117919921875,-0.2815093994140625,0.0188943296670913,-1.1870856285095217,-0.3208427429199219,100.91349792480467,-65.98164367675781,259.84820556640625
1700076068,2.7276153564453125,1.01031494140625,0.5514984130859375,-0.0215082205832004,-0.5014878511428833,-1.0425242185592651,100.98435974121094,-65.41130065917969,259.1512451171875
1700076068,3.36968994140625,0.217987060546875,0.3167572021484375,-0.187650054693222,0.010218814946711,-0.531692624092102,100.86602783203124,-65.46266174316406,259.2271728515625
1700076068,2.0572662353515625,0.3103179931640625,-0.04559326171875,-0.2612324059009552,0.0723780617117881,0.1349780559539795,100.9250946044922,-65.09942626953125,258.296875
1700076068,0.7440948486328125,0.2027740478515625,-0.7702178955078125,-0.2608031034469604,-0.5813824534416199,0.0672671869397163,100.5262451171875,-65.09150695800781,258.603759765625
1700076069,0.9307403564453124,-0.1619415283203125,-0.5266876220703125,-0.4311103820800781,-0.6007422804832458,0.279590904712677,100.56524658203124,-65.04350280761719,258.7058410644531
1700076069,1.2338409423828125,-0.020782470703125,-0.2936859130859375,-0.3814586699008941,-0.1594780683517456,0.3799670338630676,100.30577087402344,-64.72254943847656,257.87255859375
1700076069,0.99884033203125,0.233428955078125,-0.1579437255859375,-0.2611916661262512,-0.0340684875845909,0.2737923860549927,100.36712646484376,-64.33619689941406,258.5677490234375
1700076069,0.986328125,0.510589599609375,-0.0826416015625,-0.1866990476846695,0.0423538498580455,0.0098646152764558,100.3175048828125,-64.58854675292969,258.11456298828125
1700076069,1.0221099853515625,0.6128692626953125,-0.2088165283203125,-0.0472881533205509,0.1017167717218399,-0.2840192019939422,100.19773864746094,-64.19015502929688,258.29205322265625
1700076069,1.01055908203125,0.457366943359375,-0.2941741943359375,0.0404869727790355,0.0825792998075485,-0.4236681759357452,100.21200561523438,-63.95655822753906,257.65887451171875
1700076069,0.9396514892578124,0.294189453125,-0.4406890869140625,0.0465320833027362,-0.0233380794525146,-0.4262277483940124,100.24343872070312,-63.81344604492188,257.9571533203125
1700076069,1.001861572265625,0.1651611328125,-0.470062255859375,0.030680414289236,-0.0905948802828788,-0.3584380447864532,100.0780029296875,-63.64898681640625,257.6369323730469
1700076069,1.050933837890625,0.0807952880859375,-0.435638427734375,-0.0222792066633701,-0.10926204174757,-0.2827715277671814,100.08592224121094,-63.73829650878906,257.65289306640625
1700076069,1.044281005859375,0.0596771240234375,-0.4309234619140625,-0.059553075581789,-0.146291434764862,-0.2151432037353515,99.85719299316406,-63.34341430664063,258.645263671875
1700076069,1.039398193359375,0.092559814453125,-0.4349822998046875,-0.0655382648110389,-0.2062602341175079,-0.1882482022047042,99.54383850097656,-63.252960205078125,257.7069396972656
1700076069,0.989654541015625,0.1231231689453125,-0.451263427734375,-0.0130942305549979,-0.2684066891670227,-0.1910242885351181,99.4665069580078,-62.86529541015625,257.6577453613281
1700076069,0.9013824462890624,0.1447906494140625,-0.471405029296875,0.0432289615273475,-0.3456657826900482,-0.20718514919281,99.4782257080078,-62.32496643066406,257.47900390625
1700076069,0.8440399169921875,0.1736602783203125,-0.4677734375,0.0235977377742528,-0.4333357214927673,-0.2370245307683944,99.3599090576172,-62.00299072265625,257.2079467773437
1700076069,0.883514404296875,0.200286865234375,-0.431610107421875,-0.0371961034834384,-0.4912839829921722,-0.2734917402267456,99.52090454101562,-61.75778198242188,256.6690368652344
1700076069,0.952606201171875,0.197509765625,-0.4051361083984375,-0.0651425197720527,-0.5280880331993103,-0.3015148341655731,99.06951904296876,-61.24110412597656,257.43914794921875
1700076069,0.9996795654296876,0.1664276123046875,-0.3873443603515625,-0.0417836643755435,-0.5508130788803101,-0.3040198087692261,98.92994689941406,-61.17677307128906,256.9001159667969
1700076069,1.034698486328125,0.1267242431640625,-0.3705902099609375,0.0440380312502384,-0.5524514317512512,-0.2834700644016266,98.68394470214844,-60.65524291992188,256.664794921875
1700076069,1.0467681884765625,0.09942626953125,-0.3585662841796875,0.1509429067373275,-0.5528194904327393,-0.2552250921726227,98.55802917480467,-60.15133666992188,255.883041381836
1700076069,1.0172119140625,0.10821533203125,-0.347747802734375,0.2395084649324417,-0.5620865225791931,-0.2275167852640152,98.14434814453124,-59.86836242675781,256.5670166015625
1700076069,0.9523468017578124,0.1591949462890625,-0.3408966064453125,0.2600355744361877,-0.5687944889068604,-0.2499778866767883,98.2500457763672,-59.35421752929688,255.97203063964844
1700076069,0.9163970947265624,0.2012481689453125,-0.3244171142578125,0.1989104300737381,-0.5524975061416626,-0.3328796923160553,97.75054931640624,-59.08830261230469,255.5279083251953
1700076069,0.923065185546875,0.2039642333984375,-0.2999267578125,0.1368734240531921,-0.5061737298965454,-0.3966671824455261,97.44155883789062,-58.76564025878906,255.88699340820312
1700076069,0.93206787109375,0.186676025390625,-0.2965240478515625,0.0725841894745826,-0.4854814708232879,-0.4113425314426422,97.38034057617188,-58.04180908203125,255.0189971923828
1700076069,0.947509765625,0.15283203125,-0.307464599609375,0.0479102693498134,-0.4693168997764587,-0.3971574902534485,96.86351013183594,-57.47335815429688,255.25440979003903
1700076069,0.960784912109375,0.124359130859375,-0.3084259033203125,0.0744713023304939,-0.4542878866195678,-0.3801531791687011,97.15266418457033,-57.31539916992188,255.6765594482422
1700076069,0.9578399658203124,0.11199951171875,-0.2796783447265625,0.1285595744848251,-0.4189810156822204,-0.3796589076519012,96.92770385742188,-56.70097351074219,255.33045959472656
1700076069,0.94927978515625,0.1054840087890625,-0.2740936279296875,0.2068522423505783,-0.4170765876770019,-0.3618996143341064,96.79534912109376,-56.39372253417969,255.18560791015625
1700076069,0.9553375244140624,0.1085968017578125,-0.251739501953125,0.2419058382511139,-0.3658056855201721,-0.3466397225856781,96.32801818847656,-55.40776062011719,255.10122680664065
1700076069,0.9981842041015624,0.09637451171875,-0.2555694580078125,0.2751958966255188,-0.3203162252902984,-0.3176615834236145,95.8486785888672,-55.04708862304688,254.98977661132807
1700076069,1.0133819580078125,0.08404541015625,-0.2428741455078125,0.3496914207935333,-0.2948771715164184,-0.2611184120178222,95.32940673828124,-54.54560852050781,254.4277801513672
1700076069,1.0102691650390625,0.06195068359375,-0.2387542724609375,0.430290937423706,-0.2849952578544616,-0.1751606315374374,95.28909301757812,-53.75505065917969,254.63397216796875
1700076069,0.99908447265625,0.039031982421875,-0.2570648193359375,0.4547768235206604,-0.2708373665809631,-0.1257808357477188,94.74017333984376,-52.90576171875,254.89198303222656
1700076069,1.02142333984375,-0.0033416748046875,-0.2577972412109375,0.4594634473323822,-0.2533523738384247,-0.0675476193428039,94.37290954589844,-52.49798583984375,254.3571319580078
1700076069,1.01116943359375,-0.005889892578125,-0.2581787109375,0.4528748095035553,-0.2602089345455169,-0.0099724726751446,94.03450012207033,-51.76707458496094,254.5495758056641
1700076069,0.9876556396484376,0.0058746337890625,-0.23663330078125,0.3904231488704681,-0.2512655258178711,0.0535918548703193,93.16888427734376,-51.10533142089844,254.291015625
1700076069,0.96685791015625,0.0187835693359375,-0.2560577392578125,0.2967219352722168,-0.249832198023796,0.0926194190979003,93.1458740234375,-50.152587890625,254.55874633789065
1700076069,0.95867919921875,0.009796142578125,-0.2763824462890625,0.2863473296165466,-0.2708764970302582,0.1218691766262054,92.13595581054688,-49.45816040039063,253.9554748535156
1700076069,0.944122314453125,0.0102386474609375,-0.28289794921875,0.2453895211219787,-0.3149347901344299,0.1468190103769302,91.70352172851562,-48.63232421875,254.12417602539065
1700076069,0.977264404296875,0.015777587890625,-0.28582763671875,0.3287525773048401,-0.3418329656124115,0.1839794218540191,90.92219543457033,-47.8824462890625,254.20040893554688
1700076069,1.0203704833984375,0.0672454833984375,-0.2698822021484375,0.3437975943088531,-0.4092386364936828,0.1854332387447357,90.37245178222656,-47.26927185058594,253.9700927734375
1700076069,1.107940673828125,0.11273193359375,-0.1858978271484375,0.3656086027622223,-0.4011964201927185,0.2055134773254394,89.509765625,-46.28141784667969,253.8201141357422
1700076069,1.1594390869140625,0.1458282470703125,-0.1851043701171875,0.2947325706481933,-0.4582932591438293,0.2172122150659561,88.7332763671875,-45.39273071289063,254.0811920166016
1700076069,1.2382659912109375,0.1289520263671875,-0.1399688720703125,0.279853492975235,-0.4360249936580658,0.2537939250469208,87.94232177734375,-44.84806823730469,253.28895568847656
1700076069,1.3039703369140625,0.04449462890625,-0.0831756591796875,0.3446846902370453,-0.403175413608551,0.3400076329708099,86.42108154296875,-44.27906799316406,252.6415405273437
1700076069,1.3067169189453125,-0.0097808837890625,-0.059906005859375,0.3248465359210968,-0.4138171374797821,0.4477261006832123,85.1279296875,-43.51988220214844,250.8297271728516
1700076069,1.3467254638671875,-0.0683135986328125,-0.0428009033203125,0.1848795711994171,-0.3810168504714966,0.5837611556053162,83.45417785644531,-43.12432861328125,250.177001953125
1700076069,1.3635101318359375,-0.1266326904296875,-0.08990478515625,0.0894145667552948,-0.3586319088935852,0.6848489046096802,82.18954467773438,-43.19630432128906,248.80210876464844
1700076069,1.4081268310546875,-0.2317047119140625,-0.1039886474609375,0.1032478287816047,-0.3702366352081299,0.785437822341919,81.321044921875,-44.0064697265625,247.2591247558593
1700076069,1.4778289794921875,-0.3126220703125,-0.0747222900390625,0.1472192704677581,-0.4076463282108307,0.923653781414032,80.25785827636719,-44.04412841796875,246.3957977294922
1700076069,1.5504913330078125,-0.360198974609375,-0.0086517333984375,0.209190234541893,-0.4213483035564422,1.0930150747299194,79.13645935058594,-44.465667724609375,245.946533203125
1700076069,1.5697021484375,-0.4012908935546875,0.0621490478515625,0.3328152298927307,-0.3958738446235657,1.2236160039901731,77.7252197265625,-45.020599365234375,244.67037963867188
1700076069,1.54119873046875,-0.46868896484375,0.1584930419921875,0.4101347923278808,-0.3857964277267456,1.3157440423965454,77.27169799804688,-46.173614501953125,244.02957153320312
1700076069,1.507659912109375,-0.53070068359375,0.271820068359375,0.4343522489070892,-0.3472948372364044,1.3900976181030271,76.79237365722656,-46.95166015625,244.04034423828125
1700076069,1.4588623046875,-0.599273681640625,0.3305206298828125,0.3327827453613281,-0.1908458471298217,1.455870509147644,76.38137817382812,-47.602325439453125,242.72889709472656
1700076069,1.373046875,-0.65283203125,0.1995391845703125,-0.0020021644886583,0.3331553339958191,1.6649720668792725,76.19407653808594,-48.120849609375,242.4722442626953
1700076069,1.2674407958984375,-0.5332489013671875,-0.33953857421875,-0.6766061782836914,1.215143084526062,2.264455556869507,75.61029052734375,-48.93597412109375,242.27381896972656
1700076069,1.1198577880859375,-0.1644287109375,-1.0375213623046875,-1.364419937133789,1.536186695098877,2.824921131134033,75.73931884765625,-49.96546936035156,241.661865234375
1700076069,1.13543701171875,0.0163116455078125,-1.463104248046875,-1.7035735845565796,1.2941220998764038,3.271492481231689,75.39779663085938,-50.99972534179688,241.2139129638672
1700076069,1.4901123046875,0.1833343505859375,-1.892120361328125,-1.3277684450149536,1.1272841691970823,3.730595588684082,75.25547790527344,-51.940673828125,240.9509735107422
1700076069,1.6938323974609375,0.3983154296875,-1.7393341064453125,-0.6687256097793579,0.9257786870002748,4.3426008224487305,74.92951965332031,-53.53729248046875,240.78976440429688
1700076069,1.6281890869140625,0.7138671875,-1.0487823486328125,-0.558966338634491,0.5814011096954346,5.148429870605469,74.97242736816406,-54.76512145996094,240.7186737060547
1700076069,1.672119140625,1.0538482666015625,-0.6079864501953125,-0.9459726810455322,0.6459127068519592,5.457419395446777,74.89524841308594,-56.2872314453125,240.34754943847656
1700076069,1.8968353271484373,1.1728668212890625,-0.78045654296875,-1.2535778284072876,0.7389222979545593,4.908862113952637,74.94659423828125,-57.64128112792969,240.40847778320312
1700076069,2.2416534423828125,1.2377777099609375,-0.6975860595703125,-1.413258671760559,1.1229194402694702,3.924018621444702,74.65711975097656,-58.92781066894531,239.96958923339844
1700076069,2.3315887451171875,1.269622802734375,-0.4109039306640625,-0.7426238059997559,1.649757742881775,3.221933126449585,74.75035095214844,-59.986175537109375,240.89942932128903
1700076069,1.988555908203125,1.024444580078125,-0.2859954833984375,-0.1309814453125,1.8812636137008667,2.800314426422119,74.90496826171875,-61.179229736328125,240.7437896728516
1700076069,1.750030517578125,0.7199249267578125,-0.3919830322265625,-0.0510727725923061,1.802960634231568,2.4526379108428955,74.76022338867188,-62.44183349609375,241.07290649414065
1700076069,1.66668701171875,0.4900970458984375,-0.506439208984375,-0.2950066030025482,1.5695613622665403,2.06445860862732,74.720703125,-63.21665954589844,241.3943634033203
1700076069,1.6184539794921875,0.2552032470703125,-0.5164031982421875,-0.5553122162818909,1.2712700366973877,1.6757879257202148,74.33111572265625,-64.17819213867188,241.72341918945312
1700076069,1.498748779296875,0.0398712158203125,-0.4385986328125,-0.832503080368042,0.9846593141555786,1.2627679109573364,74.574951171875,-64.92756652832031,241.96383666992188
1700076069,1.2677459716796875,-0.184539794921875,-0.385772705078125,-0.898913562297821,0.7216359376907349,0.9765641093254088,74.37959289550781,-65.60905456542969,242.2818145751953
1700076069,0.8857574462890625,-0.32525634765625,-0.265533447265625,-0.8025116324424744,0.5327398180961609,0.8883770108222961,74.51622009277344,-66.34193420410156,242.36782836914065
1700076069,0.463958740234375,-0.448516845703125,-0.1452178955078125,-0.598856508731842,0.3913182318210602,0.7634329199790955,74.10362243652344,-66.76951599121094,242.6258544921875
1700076069,0.1348876953125,-0.6745758056640625,0.0165863037109375,-0.583621621131897,0.2988410294055938,0.4472808241844177,74.09651184082031,-67.32905578613281,243.33253479003903
1700076069,-0.093414306640625,-0.8841400146484375,0.04150390625,-0.7278565764427185,0.2167645394802093,0.0232017263770103,73.77935791015625,-67.81610107421875,243.44688415527344
1700076069,-0.2073211669921875,-0.854888916015625,-0.0475311279296875,-0.8082544803619385,0.1045594289898872,-0.4618962705135345,73.65203857421875,-68.3421630859375,242.86798095703125
1700076069,-0.0978240966796875,-0.561859130859375,0.005645751953125,-1.1218502521514893,-0.0449954383075237,-0.9500060081481934,73.79389953613281,-68.84173583984375,243.5572662353516
1700076069,0.045806884765625,-0.313140869140625,0.094482421875,-1.286429524421692,-0.1846723705530166,-1.4293947219848633,73.69607543945312,-69.591064453125,243.6289520263672
1700076069,0.0458221435546875,-0.323089599609375,0.1640167236328125,-1.3306710720062256,-0.2957269847393036,-1.806743025779724,73.69819641113281,-69.76759338378906,244.08859252929688
1700076069,-0.091278076171875,-0.4444122314453125,0.1450042724609375,-1.4286117553710938,-0.4648009836673736,-2.1203200817108154,73.63275146484375,-70.57536315917969,244.3043365478516
1700076069,-0.2207489013671875,-0.4653472900390625,0.0695037841796875,-1.6443864107131958,-0.602526068687439,-2.4909448623657227,73.08360290527344,-70.92630004882812,244.8186187744141
1700076069,-0.22113037109375,-0.404754638671875,-0.0177764892578125,-1.8262267112731927,-0.7702128291130066,-2.851820468902588,73.46139526367188,-70.92268371582031,244.69305419921875
1700076069,-0.19500732421875,-0.2884674072265625,-0.022247314453125,-1.989755272865296,-0.962058424949646,-3.1551215648651123,73.1844482421875,-71.44796752929688,244.54837036132807
1700076069,-0.1691131591796875,-0.1728057861328125,-0.026824951171875,-2.1008808612823486,-1.2046047449111938,-3.428694248199463,73.04318237304688,-71.08320617675781,244.81753540039065
1700076069,-0.1399688720703125,-0.03131103515625,-0.047088623046875,-1.9596809148788448,-1.47095787525177,-3.599269151687622,72.94137573242188,-70.79762268066406,244.70372009277344
1700076069,-0.0914306640625,0.206298828125,-0.087860107421875,-1.3240315914154053,-1.4715168476104736,-3.6412510871887207,73.11448669433594,-71.092529296875,244.3736114501953
1700076069,-0.09063720703125,0.4359130859375,-0.1191558837890625,-0.6873472332954407,-1.3140002489089966,-3.694185256958008,72.87223815917969,-70.90899658203125,244.7675628662109
1700076069,-0.0835723876953125,0.696044921875,-0.2248077392578125,0.2096933126449585,-1.2093768119812012,-3.6295206546783447,72.82182312011719,-70.79344177246094,245.1517944335937
1700076069,-4.57763671875e-05,1.0078887939453125,-0.4599761962890625,0.8320234417915344,-1.0714136362075806,-3.395528793334961,72.73753356933594,-70.9395751953125,245.28143310546875
1700076069,0.0613861083984375,1.259368896484375,-0.690216064453125,1.0736531019210815,-0.8720334768295288,-3.23633360862732,73.08692932128906,-70.64900207519531,245.38682556152344
1700076069,0.1165771484375,1.3060302734375,-0.834869384765625,1.1739720106124878,-0.6623049974441528,-2.7804272174835205,72.41201782226562,-70.05781555175781,245.3411560058593
1700076069,0.08966064453125,1.4235687255859375,-0.985137939453125,0.9088042378425598,-0.633452832698822,-2.0455963611602783,72.28067016601562,-69.96040344238281,245.43035888671875
1700076069,0.1376190185546875,1.6948699951171875,-0.9800567626953124,0.4859946668148041,-0.5586278438568115,-1.4892793893814087,72.43377685546875,-69.46151733398438,245.00048828125
1700076069,0.2319488525390625,1.8739471435546875,-0.925018310546875,0.2203329056501388,-0.458646148443222,-1.1119089126586914,72.24046325683594,-69.29135131835938,245.50833129882807
1700076069,0.163421630859375,2.0684967041015625,-0.7696990966796875,0.0572813972830772,-0.4425808787345886,-0.9135438799858092,71.84913635253906,-69.02194213867188,245.18800354003903
1700076069,0.0919342041015625,2.12677001953125,-0.498992919921875,-0.4306427240371704,0.4158360958099365,-1.0136009454727173,71.24775695800781,-68.60206604003906,245.1925506591797
1700076069,0.074676513671875,1.8372344970703125,-1.2117919921875,0.5846447944641113,0.7189152836799622,-0.4264090955257416,71.0887451171875,-68.64117431640625,245.1716461181641
1700076069,-0.188507080078125,1.8502655029296875,-1.4976806640625,0.4772869348526001,-0.4396229088306427,-0.1429233253002166,71.50680541992188,-68.87225341796875,245.3577117919922
1700076070,1.41143798828125,1.3875579833984375,-0.37127685546875,-0.444343626499176,-0.9585496783256532,-1.2147769927978516,71.43447875976562,-68.64083862304688,245.171615600586
1700076070,2.98358154296875,0.1087493896484375,0.3657379150390625,-0.2960796058177948,-0.2876181900501251,-1.0541244745254517,71.59036254882812,-68.501953125,245.4065856933593
1700076070,2.0181121826171875,0.047027587890625,0.5601654052734375,0.0784655138850212,0.4665088653564453,0.3500743806362152,71.0277099609375,-68.053466796875,245.16116333007807
1700076070,1.0410003662109375,0.392425537109375,-0.4495391845703125,0.0029340046457946,-0.47901052236557,0.797985315322876,71.2164306640625,-67.67724609375,245.33612060546875
1700076070,1.5979461669921875,0.1462554931640625,-0.4240570068359375,-0.7502532005310059,-0.712210476398468,0.8546709418296814,71.00494384765625,-67.7537841796875,245.09071350097656
1700076070,1.3189239501953125,0.1103515625,-0.5263214111328125,-0.6449297070503235,-0.3140596747398376,0.6252151727676392,70.99110412597656,-67.81358337402344,245.2762145996093
1700076070,0.683380126953125,0.21331787109375,-0.434844970703125,-0.0533140860497951,-0.1698652058839798,0.3237397074699402,70.67599487304688,-67.33877563476562,245.14285278320312
1700076070,0.711822509765625,0.3080596923828125,-0.1838226318359375,0.1549083590507507,-0.058165568858385,0.2206990867853164,70.62045288085938,-67.15472412109375,244.86952209472656
1700076070,0.9433135986328124,0.4458160400390625,-0.2127227783203125,0.1567403376102447,0.0259093604981899,0.0913059413433075,70.30233764648438,-67.66302490234375,244.8309783935547
1700076070,0.9947967529296876,0.395477294921875,-0.24749755859375,0.1405131667852401,0.0278633218258619,-0.0151981273666024,70.33366394042969,-67.26106262207031,244.7072906494141
1700076070,0.9881591796875,0.3185577392578125,-0.3803558349609375,0.0272923409938812,-0.0646993666887283,-0.0788692459464073,70.23516845703125,-67.53511047363281,244.7863311767578
1700076070,1.0615386962890625,0.26434326171875,-0.4914703369140625,-0.015229819342494,-0.1541509479284286,-0.0867258384823799,70.04032897949219,-67.44041442871094,244.8241271972656
1700076070,1.038421630859375,0.2017974853515625,-0.492095947265625,-0.0201489441096782,-0.2337472438812255,-0.0581304132938385,69.61216735839844,-67.60954284667969,244.6739501953125
1700076070,0.9669189453125,0.175262451171875,-0.4394073486328125,0.0039132488891482,-0.2580603063106537,-0.0556752458214759,69.58784484863281,-67.58879089355469,245.0805053710937
1700076070,1.011566162109375,0.178802490234375,-0.359588623046875,0.0206645317375659,-0.2493206113576889,-0.0755472183227539,69.81103515625,-67.60820007324219,244.0971069335937
1700076070,1.0861968994140625,0.1556243896484375,-0.3390350341796875,0.0546504631638526,-0.2615711390972137,-0.0524448305368423,69.90232849121094,-67.58015441894531,244.6817779541016
1700076070,1.0442657470703125,0.1519012451171875,-0.3965606689453125,0.0991532132029533,-0.3305603265762329,-0.0118832914158701,69.69721984863281,-67.64663696289062,244.4766082763672
1700076070,0.9431610107421876,0.1862945556640625,-0.431732177734375,0.0983422845602035,-0.4025724828243255,-0.0482772514224052,69.84011840820312,-67.44119262695312,244.4519958496093
1700076070,0.914764404296875,0.220428466796875,-0.4172210693359375,0.0849606990814209,-0.4268378615379333,-0.1340821683406829,69.71147155761719,-67.36306762695312,244.49948120117188
1700076070,0.976409912109375,0.229736328125,-0.3635406494140625,0.0781011953949928,-0.4307990670204162,-0.1833149641752243,69.84977722167969,-67.42753601074219,245.11773681640625
1700076070,1.06646728515625,0.2098846435546875,-0.3360443115234375,0.1069975569844245,-0.4302461743354797,-0.1681589186191558,69.73051452636719,-67.13796997070312,244.69679260253903
1700076070,1.1028289794921875,0.1772003173828125,-0.365081787109375,0.1504385024309158,-0.4590725004673004,-0.1087083742022514,70.04103088378906,-67.4097900390625,244.97987365722656
1700076070,1.0534210205078125,0.171142578125,-0.386474609375,0.1726993322372436,-0.5085425972938538,-0.0701692327857017,69.81306457519531,-67.76948547363281,244.7619171142578
1700076070,0.9868011474609376,0.180908203125,-0.370849609375,0.1351516991853714,-0.5304540395736694,-0.0988634601235389,69.92520141601562,-67.41093444824219,244.49647521972656
1700076070,0.9247283935546876,0.202728271484375,-0.3515167236328125,0.06691325455904,-0.5054373741149902,-0.1658598035573959,69.86561584472656,-67.68246459960938,244.7639617919922
1700076070,0.9140625,0.2063751220703125,-0.34039306640625,0.0493124201893806,-0.4735420048236847,-0.2119197100400924,70.09124755859375,-67.44720458984375,244.8707733154297
1700076070,0.947174072265625,0.18890380859375,-0.3278656005859375,0.0766031667590141,-0.468141108751297,-0.2067084312438964,70.08445739746094,-67.53054809570312,244.4413909912109
1700076070,0.9585418701171876,0.1743621826171875,-0.3236236572265625,0.0727559626102447,-0.4476978778839111,-0.2057544887065887,70.52876281738281,-67.47071838378906,244.6826934814453
1700076070,0.9741973876953124,0.1605072021484375,-0.3267059326171875,0.088235318660736,-0.4531829357147217,-0.194799318909645,70.50114440917969,-67.63064575195312,244.3451538085937
1700076070,0.9693756103515624,0.1658172607421875,-0.2879486083984375,0.1344662010669708,-0.4423441290855407,-0.1743808537721634,70.30319213867188,-67.647216796875,244.92022705078125
1700076070,0.9744110107421876,0.168182373046875,-0.2837677001953125,0.1833461225032806,-0.409341424703598,-0.1820536851882934,70.75531005859375,-67.48255920410156,244.4486389160156
1700076070,1.011505126953125,0.1571044921875,-0.28515625,0.2363765835762024,-0.3843836188316345,-0.1925294995307922,70.49525451660156,-67.41891479492188,244.31881713867188
1700076070,1.019378662109375,0.16595458984375,-0.274749755859375,0.2550543844699859,-0.3671772181987762,-0.1816861778497696,70.58476257324219,-67.43930053710938,244.1739959716797
1700076070,0.9826202392578124,0.1963348388671875,-0.2795562744140625,0.2568251192569732,-0.3626500964164734,-0.1988270729780197,71.16520690917969,-67.58882141113281,244.68934631347656
1700076070,0.93756103515625,0.205474853515625,-0.2393798828125,0.2661312818527221,-0.3083306550979614,-0.1984840631484985,71.09518432617188,-67.41531372070312,244.8204040527344
1700076070,0.91546630859375,0.1992340087890625,-0.1922607421875,0.3550329208374023,-0.2312087267637252,-0.1746945828199386,71.04541015625,-67.728515625,244.5436248779297
1700076070,0.9246368408203124,0.1476898193359375,-0.16619873046875,0.4119436144828796,-0.1856100708246231,-0.1273845881223678,71.09695434570312,-67.42828369140625,244.47915649414065
1700076070,0.934417724609375,0.096832275390625,-0.242431640625,0.4061538875102997,-0.21073779463768,-0.0770367309451103,71.60697937011719,-67.46800231933594,244.2869567871093
1700076070,0.95281982421875,0.081573486328125,-0.314208984375,0.3559365272521972,-0.2742089033126831,-0.0262108314782381,71.49392700195312,-67.46633911132812,244.5495147705078
1700076070,0.9648895263671876,0.08441162109375,-0.318328857421875,0.2351395487785339,-0.30498868227005,0.0063574980013072,71.87144470214844,-67.23641967773438,244.4422912597656
1700076070,0.953887939453125,0.08404541015625,-0.2996368408203125,0.1274042874574661,-0.2938784956932068,0.0447115451097488,71.93659973144531,-67.21026611328125,244.7984619140625
1700076070,0.9111175537109376,0.08447265625,-0.2808074951171875,0.1271305233240127,-0.2761314511299133,0.0695833414793014,72.14059448242188,-67.20233154296875,244.7100982666016
1700076070,0.890838623046875,0.0654449462890625,-0.2468414306640625,0.1606562584638595,-0.2995872497558594,0.1283092349767685,72.13002014160156,-67.078369140625,244.63040161132807
1700076070,0.922271728515625,0.0767364501953125,-0.224395751953125,0.1413509994745254,-0.3199391067028045,0.2004888951778412,72.38093566894531,-67.04728698730469,244.8477478027344
1700076070,0.993255615234375,0.081756591796875,-0.3079833984375,0.2351163774728775,-0.3427467048168182,0.1867291331291198,72.30763244628906,-66.97523498535156,245.5496826171875
1700076070,1.0597991943359375,0.0664215087890625,-0.344512939453125,0.2606044113636017,-0.4153655171394348,0.193345233798027,72.86033630371094,-67.06414794921875,245.3526306152344
1700076070,1.1215057373046875,0.1256256103515625,-0.2369384765625,0.2229976654052734,-0.4372031688690185,0.2559617459774017,72.81533813476562,-66.73304748535156,245.0811920166016
1700076070,1.1643829345703125,0.1349639892578125,-0.1458892822265625,0.2638913094997406,-0.3716752827167511,0.2837262451648712,73.25552368164062,-66.70680236816406,245.2496337890625
1700076070,1.1948089599609375,0.0503387451171875,-0.1724090576171875,0.273542582988739,-0.3742476403713226,0.3486104607582092,73.77455139160156,-66.45892333984375,245.3005523681641
1700076070,1.2364959716796875,-0.00445556640625,-0.1808013916015625,0.1981716752052307,-0.4120123088359833,0.4174201488494873,73.38148498535156,-66.12486267089844,245.1919860839844
1700076070,1.254302978515625,-0.04559326171875,-0.1611785888671875,0.0374842584133148,-0.4285441637039184,0.5296438932418823,73.83935546875,-66.07037353515625,245.5727081298828
1700076070,1.2438507080078125,-0.0469207763671875,-0.135772705078125,-0.1449744999408722,-0.4342065751552582,0.6461055278778076,74.3319091796875,-65.849365234375,244.8563690185547
1700076070,1.2589263916015625,-0.066497802734375,-0.094024658203125,-0.2130203992128372,-0.4110200405120849,0.7465953826904297,73.80079650878906,-65.75152587890625,245.1253204345703
1700076070,1.3353118896484375,-0.14569091796875,-0.0409698486328125,-0.2127466201782226,-0.3850403726100921,0.8436002135276794,73.94636535644531,-65.34953308105469,245.0150604248047
1700076070,1.4272308349609375,-0.2429656982421875,0.01385498046875,-0.2314571887254715,-0.3751589655876159,0.971705198287964,74.238525390625,-65.17320251464844,245.0321350097656
1700076070,1.5019378662109375,-0.3028717041015625,0.0363922119140625,-0.243107721209526,-0.3886316418647766,1.0900450944900513,74.38081359863281,-64.93070983886719,244.76551818847656
1700076070,1.594329833984375,-0.3564605712890625,0.05810546875,-0.1342560797929763,-0.4292989075183868,1.199752688407898,74.56889343261719,-64.32424926757812,245.0542907714844
1700076070,1.7257537841796875,-0.4212799072265625,0.127288818359375,-0.0327662006020545,-0.4820060431957245,1.2548948526382446,74.39324951171875,-64.08169555664062,243.9872589111328
1700076070,1.751953125,-0.4994964599609375,0.2066497802734375,-0.0572302676737308,-0.5036588907241821,1.2786438465118408,74.20652770996094,-63.81642150878906,243.962158203125
1700076070,1.5684356689453125,-0.59930419921875,0.2446441650390625,-0.2786012589931488,-0.2410104870796203,1.3879168033599854,74.30694580078125,-63.228546142578125,244.72821044921875
1700076070,1.3328399658203125,-0.61383056640625,-0.0140838623046875,-0.8103759288787842,0.4527712166309356,1.8474364280700684,74.51803588867188,-62.69415283203125,243.877685546875
1700076070,1.1684112548828125,-0.3440093994140625,-0.6212310791015625,-1.4660181999206543,1.1110819578170776,2.5099010467529297,73.40374755859375,-61.98263549804688,243.2641143798828
1700076070,1.133819580078125,-0.1235198974609375,-1.0143890380859375,-1.9907983541488647,1.1036109924316406,2.983865261077881,73.19764709472656,-61.05799865722656,242.3724060058593
1700076070,1.452545166015625,-0.0759735107421875,-1.2807769775390625,-2.042946577072144,0.8457400798797607,3.520268678665161,73.22239685058594,-60.72160339355469,241.9335021972656
1700076070,1.7913970947265625,0.1678924560546875,-1.5668182373046875,-1.2593308687210083,0.8306924104690552,4.199343681335449,72.56639099121094,-60.44203186035156,241.4320373535156
1700076070,1.811676025390625,0.493743896484375,-1.2954254150390625,-0.5485813617706299,0.7072191834449768,5.063843727111816,72.42840576171875,-59.71946716308594,241.109115600586
1700076070,1.7574005126953125,0.8962554931640625,-0.889312744140625,-0.4679911732673645,0.3604641854763031,5.856447219848633,71.96412658691406,-59.18614196777344,240.131591796875
1700076070,1.8828582763671875,1.2185821533203125,-0.7670440673828125,-0.9530526399612428,0.4661858081817627,5.88924503326416,71.4630126953125,-58.46748352050781,240.10623168945312
1700076070,2.1112060546875,1.3067474365234375,-1.0693359375,-1.4446834325790403,0.4074852168560028,5.275209903717041,71.0003662109375,-57.763519287109375,239.76402282714844
1700076070,2.321929931640625,1.4336700439453125,-0.8184356689453125,-1.3037840127944946,0.7682532668113708,4.19386100769043,70.62834167480469,-56.615570068359375,239.3819732666016
1700076070,2.3511199951171875,1.2411346435546875,-0.39959716796875,-0.21704763174057,1.3220144510269165,3.4124884605407715,70.23455810546875,-55.35527038574219,238.83425903320312
1700076070,2.020843505859375,0.766326904296875,-0.2033843994140625,0.2879140675067901,1.5701051950454712,3.0475544929504395,69.97738647460938,-54.51803588867188,239.26239013671875
1700076070,1.636016845703125,0.5766754150390625,-0.4468994140625,0.1587560921907425,1.4497660398483276,2.860119342803955,69.60958862304688,-54.18061828613281,238.95176696777344
1700076070,1.428802490234375,0.454071044921875,-0.5955657958984375,-0.2273679077625274,1.0820748805999756,2.6184639930725098,69.01072692871094,-52.93901062011719,239.1291046142578
1700076070,1.3577728271484375,0.2147064208984375,-0.55987548828125,-0.5694794654846191,0.7035746574401855,2.288895845413208,68.56312561035156,-52.54122924804688,238.06549072265625
1700076070,1.3082733154296875,-0.0433807373046875,-0.45697021484375,-0.7825637459754944,0.4199791550636291,1.9160155057907104,68.40296936035156,-52.11622619628906,238.0781097412109
1700076070,1.1842803955078125,-0.267242431640625,-0.3237457275390625,-0.929408311843872,0.2453293353319168,1.5745902061462402,68.16755676269531,-52.04803466796875,237.7252197265625
1700076070,0.9401702880859376,-0.4280853271484375,-0.1890716552734375,-1.0572608709335327,0.1006342023611068,1.3151490688323977,68.00991821289062,-51.61151123046875,237.1473083496093
1700076070,0.6354217529296875,-0.5245208740234375,-0.09765625,-1.2489370107650757,-0.0124209830537438,1.0429681539535522,68.12939453125,-51.27961730957031,236.67547607421875
1700076070,0.35699462890625,-0.5968780517578125,-0.1014556884765625,-1.316459894180298,-0.1677461266517639,0.6403970122337341,67.67332458496094,-50.96980285644531,236.2413024902344
1700076070,0.149505615234375,-0.6424560546875,-0.1265716552734375,-1.3544474840164185,-0.3442665636539459,0.2105564326047897,67.72367858886719,-51.38978576660156,235.9951934814453
1700076070,0.0230865478515625,-0.6016845703125,-0.19927978515625,-1.3872195482254028,-0.5029031038284302,-0.175190731883049,67.88612365722656,-51.17729187011719,235.4415740966797
1700076070,0.0214385986328125,-0.54913330078125,-0.1540679931640625,-1.481876254081726,-0.6580106616020203,-0.6126266717910767,68.08879089355469,-51.38427734375,234.95184326171875
1700076070,0.1537017822265625,-0.496185302734375,-0.09295654296875,-1.6136281490325928,-0.8112925887107849,-1.0500413179397583,68.24929809570312,-51.3026123046875,234.87548828125
1700076070,0.2422332763671875,-0.4126434326171875,-0.098541259765625,-1.6846528053283691,-0.9691413640975952,-1.4277832508087158,68.52688598632812,-51.694854736328125,233.8626403808593
1700076070,0.2251434326171875,-0.3600311279296875,-0.10052490234375,-1.7045024633407593,-1.115063190460205,-1.7701075077056885,68.96482849121094,-51.84553527832031,233.96881103515625
1700076070,0.1537322998046875,-0.3566131591796875,-0.1112823486328125,-1.7573909759521484,-1.232547402381897,-2.123565912246704,69.27937316894531,-51.728790283203125,233.936752319336
1700076070,0.0927276611328125,-0.3719482421875,-0.1545562744140625,-1.8544282913208008,-1.340133786201477,-2.431623935699463,69.95350646972656,-51.95259094238281,232.94387817382807
1700076070,0.0628204345703125,-0.352874755859375,-0.2060699462890625,-1.9916255474090576,-1.466548204421997,-2.7205286026000977,70.41093444824219,-52.48539733886719,232.98941040039065
1700076070,0.086181640625,-0.3358306884765625,-0.246826171875,-2.12588119506836,-1.584242582321167,-2.9981470108032227,71.2869873046875,-52.80381774902344,232.2684936523437
1700076070,0.1318359375,-0.3206939697265625,-0.2733001708984375,-2.202667713165283,-1.6758869886398315,-3.1976470947265625,71.9703369140625,-53.52780151367188,233.03433227539065
1700076070,0.138092041015625,-0.272674560546875,-0.2669525146484375,-2.2025294303894043,-1.7714521884918213,-3.347271680831909,72.42559814453125,-54.099609375,232.26080322265625
1700076070,0.1557464599609375,-0.1748199462890625,-0.2637786865234375,-2.0833816528320312,-1.865079045295716,-3.520915031433105,73.59652709960938,-55.13084411621094,231.871826171875
1700076070,0.2408447265625,-0.0596160888671875,-0.250518798828125,-1.9088683128356927,-1.9212315082550049,-3.687384366989136,74.34210205078125,-56.20333862304688,231.39979553222656
1700076070,0.30499267578125,0.0223388671875,-0.2495574951171875,-1.6746574640274048,-1.9592660665512085,-3.84787392616272,75.70811462402344,-56.88616943359375,231.531494140625
1700076070,0.3294219970703125,0.0821075439453125,-0.2978668212890625,-1.4485844373703003,-1.9610284566879272,-3.963057279586792,76.6961669921875,-57.43077087402344,231.1819763183593
1700076070,0.371246337890625,0.1406707763671875,-0.352264404296875,-1.326604962348938,-1.9122074842453003,-4.016171455383301,77.541748046875,-57.8551025390625,231.46592712402344
1700076070,0.4350433349609375,0.199310302734375,-0.4033203125,-1.304804801940918,-1.8447983264923096,-4.002167224884033,78.43356323242188,-58.237548828125,231.3014678955078
1700076070,0.474700927734375,0.2846832275390625,-0.4447174072265625,-1.2283436059951782,-1.8355598449707031,-3.9152443408966064,79.09173583984375,-58.50163269042969,231.45880126953125
1700076070,0.53173828125,0.4108428955078125,-0.4600830078125,-0.971919596195221,-1.858255743980408,-3.761390447616577,79.4622802734375,-58.23246765136719,231.8311920166016
1700076071,0.6218719482421875,0.5919036865234375,-0.5057373046875,-0.7041568160057068,-1.8035736083984373,-3.506294250488281,79.90910339355469,-57.97093200683594,232.2308807373047
1700076071,0.6839447021484375,0.8059539794921875,-0.63592529296875,-0.5549726486206055,-1.6609631776809692,-3.249316453933716,80.437255859375,-57.90679931640625,232.68991088867188
1700076071,0.765960693359375,0.947113037109375,-0.78802490234375,-0.6780868768692017,-1.508400559425354,-2.8574018478393555,80.736328125,-57.88883972167969,232.2335662841797
1700076071,0.82958984375,1.152069091796875,-0.9477386474609376,-0.9415723085403442,-1.486971139907837,-2.4719560146331787,80.95675659179688,-57.29716491699219,233.0245361328125
1700076071,0.9184722900390624,1.3224029541015625,-0.9925689697265624,-1.124850511550903,-1.5027503967285156,-2.167520761489868,80.859375,-57.17669677734375,232.9358367919922
1700076071,0.9260101318359376,1.4132843017578125,-0.974151611328125,-1.2957156896591189,-1.3831489086151123,-1.852620840072632,80.77568054199219,-56.94009399414063,232.2804107666016
1700076071,0.792938232421875,1.4681396484375,-0.968475341796875,-1.4720244407653809,-1.1683388948440552,-1.5332050323486328,80.59361267089844,-56.86570739746094,232.6940155029297
1700076071,0.664886474609375,1.4615478515625,-0.906890869140625,-1.416340470314026,-1.0000427961349487,-1.1898611783981323,80.74868774414062,-57.17570495605469,232.5775604248047
1700076071,0.646820068359375,1.412109375,-0.81036376953125,-1.277523159980774,-0.9025266170501708,-0.8312644362449646,81.2958984375,-56.923187255859375,233.2294006347656
1700076071,0.6631622314453125,1.3676605224609375,-0.77398681640625,-1.1172668933868408,-0.8233527541160583,-0.4913569390773773,81.154296875,-56.80732727050781,232.99708557128903
1700076071,0.6233673095703125,1.3124847412109375,-0.7151641845703125,-0.9113078713417052,-0.7138616442680359,-0.1914016455411911,81.2598876953125,-56.80319213867188,232.7724151611328
1700076071,0.57879638671875,1.2048187255859375,-0.632293701171875,-0.5959051847457886,-0.4032864868640899,0.0969635620713234,81.16574096679688,-56.93228149414063,233.0904235839844
1700076071,0.623931884765625,1.1180572509765625,-0.7115631103515625,-0.4412165582180023,-0.4613207578659057,0.8175854086875916,81.43617248535156,-56.99993896484375,232.5293426513672
1700076071,0.3363189697265625,1.3953857421875,-0.7750091552734375,-0.4684045016765594,-0.235952079296112,0.7688892483711243,81.51995849609375,-56.952239990234375,232.4416046142578
1700076071,0.67095947265625,1.05035400390625,-1.0168304443359375,-0.1716822832822799,0.8754244446754456,0.3877605199813843,81.21681213378906,-57.15655517578125,233.011962890625
1700076071,0.997467041015625,0.5872955322265625,-1.48834228515625,1.7538700103759766,0.8201636075973511,-0.1183543428778648,81.49275207519531,-57.445404052734375,233.1527099609375
1700076071,3.149169921875,0.098052978515625,-0.0898895263671875,0.2911151945590973,-0.4847408533096313,0.6159699559211731,81.62162780761719,-57.48765563964844,233.0803680419922
1700076071,4.2772979736328125,0.2790069580078125,0.109375,-1.531556248664856,-0.91721773147583,1.2021650075912476,81.53482055664062,-57.27960205078125,233.1110992431641
1700076071,1.855194091796875,-0.1626739501953125,-0.2975006103515625,-1.2767322063446045,-0.9591696858406068,1.5537883043289185,81.70011901855469,-57.34735107421875,232.71383666992188
1700076071,0.25213623046875,-0.2501220703125,0.1403045654296875,-0.0534589625895023,-0.5079771876335144,1.3121317625045776,81.74122619628906,-57.27336120605469,232.732666015625
1700076071,-0.42889404296875,-0.26025390625,0.1746978759765625,0.5601000785827637,0.4954542219638824,0.9027178883552552,81.91253662109375,-57.84840393066406,233.2587432861328
1700076071,-0.3330535888671875,-0.0224456787109375,-0.2730255126953125,0.6517378091812134,0.7349663972854614,0.886672854423523,81.86337280273438,-57.5262451171875,233.2462615966797
1700076071,0.59210205078125,0.3518524169921875,-0.21539306640625,0.4766072928905487,0.4129966199398041,0.8519476056098938,81.80599975585938,-57.6844482421875,233.24571228027344
1700076071,1.4207916259765625,0.47052001953125,-0.2153167724609375,0.0243468843400478,0.1478967815637588,0.7405641078948975,81.92001342773438,-57.7020263671875,233.2006378173828
1700076071,1.7215576171875,0.65966796875,-0.4505767822265625,-0.3221942782402038,-0.0190027188509702,0.464256078004837,81.93325805664062,-58.080322265625,233.21636962890625
1700076071,1.5671234130859375,0.61444091796875,-0.41265869140625,-0.2273292988538742,-0.0268140379339456,0.138280376791954,82.20405578613281,-57.922210693359375,233.07818603515625
1700076071,1.1571197509765625,0.30572509765625,-0.2119293212890625,-0.0607307255268096,0.06918466091156,0.0927658900618553,82.23675537109375,-57.856475830078125,232.54562377929688
1700076071,0.8670806884765625,0.1248626708984375,-0.0735626220703125,-0.031023696064949,0.2811208963394165,0.1447899490594864,82.38333129882812,-57.74040222167969,232.7790679931641
1700076071,0.83843994140625,-0.040985107421875,-0.11260986328125,-0.0306998547166585,0.3721972703933716,0.2922534346580505,82.56466674804688,-58.07588195800781,233.2081451416016
1700076071,0.88226318359375,-0.07843017578125,-0.1793212890625,0.0098270643502473,0.3286947906017303,0.4300083816051483,82.99253845214844,-58.2352294921875,233.1428680419922
1700076071,0.9595947265625,-0.0444793701171875,-0.283416748046875,0.0852405950427055,0.2366503626108169,0.4790195822715759,83.14068603515625,-58.026123046875,233.92662048339844
1700076071,0.9934539794921876,0.0547332763671875,-0.3263702392578125,0.1181471496820449,0.1732993423938751,0.4184361398220062,83.53985595703125,-58.45866394042969,234.46792602539065
1700076071,1.01165771484375,0.17364501953125,-0.3067474365234375,0.0955632776021957,0.1397597640752792,0.2648074328899383,83.57200622558594,-58.40635681152344,233.8925018310547
1700076071,1.0161895751953125,0.2067108154296875,-0.2998046875,0.0974669009447097,0.0993263199925422,0.1641844063997268,83.83671569824219,-58.681732177734375,233.9305114746093
1700076071,0.9928131103515624,0.1928253173828125,-0.28948974609375,0.0866097286343574,0.0405650027096271,0.1293236315250396,83.76821899414062,-58.7239990234375,234.072509765625
1700076071,0.9958953857421876,0.1439971923828125,-0.2931976318359375,0.0238789673894643,-0.0295224711298942,0.1475385874509811,83.94229125976562,-58.713775634765625,234.0199584960937
1700076071,1.014556884765625,0.10369873046875,-0.2994842529296875,-0.0571719445288181,-0.0960612818598747,0.178720474243164,83.99835205078125,-59.0335693359375,234.5097045898437
1700076071,1.0072021484375,0.072418212890625,-0.3000335693359375,-0.1071890369057655,-0.1486046612262725,0.2322761118412017,84.16981506347656,-59.17665100097656,234.2328948974609
1700076071,0.984954833984375,0.07183837890625,-0.26861572265625,-0.1602325439453125,-0.1609960794448852,0.2549284398555755,84.66111755371094,-59.09616088867188,234.0366058349609
1700076071,0.98687744140625,0.058502197265625,-0.2284393310546875,-0.192261591553688,-0.1340249180793762,0.2584901452064514,84.07945251464844,-59.05339050292969,234.6228942871093
1700076071,0.96942138671875,0.060455322265625,-0.220855712890625,-0.1441611647605896,-0.1110455617308616,0.2623538672924042,84.47688293457031,-59.19529724121094,234.3189392089844
1700076071,0.9518890380859376,0.100616455078125,-0.2491912841796875,-0.0628237053751945,-0.1376739740371704,0.2304329425096511,84.7955322265625,-59.09027099609375,234.82276916503903
1700076071,0.9840087890625,0.13861083984375,-0.254241943359375,-0.0385090410709381,-0.1647769659757614,0.1610549390316009,84.81532287597656,-59.45600891113281,234.8096923828125
1700076071,1.01776123046875,0.1457977294921875,-0.2266998291015625,-0.053956177085638,-0.1619023531675338,0.0890297442674636,84.94027709960938,-59.41224670410156,234.7583770751953
1700076071,1.0107421875,0.1258087158203125,-0.1773529052734375,-0.0993795841932296,-0.1244998499751091,0.037197969853878,85.12544250488281,-59.16546630859375,235.22080993652344
1700076071,0.988861083984375,0.0792083740234375,-0.1564178466796875,-0.1014230251312255,-0.0924718752503395,0.0424121730029583,85.11505126953125,-59.3148193359375,235.0984649658203
1700076071,0.9498443603515624,0.0559844970703125,-0.2166595458984375,-0.0559000186622142,-0.1221469491720199,0.0727397203445434,84.761962890625,-58.72389221191406,235.29884338378903
1700076071,0.9433746337890624,0.069580078125,-0.2763519287109375,-0.036446426063776,-0.1876290142536163,0.069008894264698,85.18357849121094,-58.911163330078125,235.52261352539065
1700076071,0.9979248046875,0.071075439453125,-0.2699127197265625,-0.0669854283332824,-0.2116664499044418,0.0546193048357963,85.04273986816406,-58.65144348144531,235.42349243164065
1700076071,1.0128326416015625,0.0779266357421875,-0.246734619140625,-0.1025189161300659,-0.2036870867013931,0.0651992410421371,85.24270629882812,-58.619903564453125,235.4364318847656
1700076071,0.98895263671875,0.093475341796875,-0.2186431884765625,-0.0898425355553627,-0.1852862387895584,0.0685542896389961,85.22352600097656,-58.66183471679688,235.4562530517578
1700076071,0.984161376953125,0.0760650634765625,-0.1915435791015625,-0.0541657656431198,-0.176310047507286,0.0571274682879447,85.4168701171875,-58.581573486328125,234.8323516845703
1700076071,0.97113037109375,0.06402587890625,-0.204071044921875,-0.0230629742145538,-0.1713344603776931,0.0420499816536903,85.36448669433594,-58.36749267578125,235.4832305908203
1700076071,0.964569091796875,0.0569915771484375,-0.222991943359375,-0.0145629635080695,-0.1701429635286331,0.0113328155130147,85.5592041015625,-58.16041564941406,235.75006103515625
1700076071,0.973907470703125,0.05096435546875,-0.2186431884765625,-0.0370035581290721,-0.1664323806762695,0.0334772653877735,85.88374328613281,-58.05877685546875,236.2962341308593
1700076071,0.962249755859375,0.078948974609375,-0.2373809814453125,-0.0638839080929756,-0.1813058704137802,0.0668887495994567,85.88845825195312,-57.68977355957031,235.9671173095703
1700076071,0.9649658203125,0.099578857421875,-0.2519683837890625,-0.1244740188121795,-0.2178047597408294,0.0807182788848877,85.56973266601562,-57.28443908691406,236.26055908203125
1700076071,0.99127197265625,0.0950775146484375,-0.22613525390625,-0.1652568727731704,-0.2176178097724914,0.0654085651040077,85.57839965820312,-57.27606201171875,236.2019958496093
1700076071,0.99896240234375,0.05859375,-0.21783447265625,-0.1150363087654113,-0.195814773440361,0.084921546280384,86.067138671875,-57.41139221191406,235.8750762939453
1700076071,0.974029541015625,0.0340576171875,-0.20623779296875,-0.0418076328933239,-0.200010061264038,0.1299084573984146,85.48759460449219,-56.8787841796875,236.6399688720703
1700076071,0.96649169921875,0.0501861572265625,-0.172210693359375,-0.0253034923225641,-0.1831242740154266,0.1668081581592559,85.63345336914062,-56.5440673828125,237.0141448974609
1700076071,0.971588134765625,0.0818328857421875,-0.1559295654296875,-0.0150082446634769,-0.1290277540683746,0.1807860285043716,85.45025634765625,-56.54803466796875,237.1177520751953
1700076071,0.9622039794921876,0.0989837646484375,-0.15576171875,-0.0108893988654017,-0.096074067056179,0.187818631529808,85.63996887207031,-55.94520568847656,237.0956878662109
1700076071,0.970947265625,0.0946502685546875,-0.166229248046875,0.0676903650164604,-0.0701870769262313,0.1805772334337234,86.10372924804688,-56.14077758789063,236.91168212890625
1700076071,1.0008392333984375,0.0429534912109375,-0.173248291015625,0.1043130904436111,-0.0625611171126365,0.2248355150222778,85.95878601074219,-55.79725646972656,237.25006103515625
1700076071,1.0081787109375,-0.0009307861328125,-0.1731414794921875,0.0823068544268608,-0.0530235357582569,0.319149762392044,85.51881408691406,-55.60908508300781,237.28045654296875
1700076071,0.9795989990234376,-0.02020263671875,-0.190155029296875,0.0938359498977661,-0.0504908710718154,0.4322792589664459,85.87702941894531,-54.991058349609375,237.00979614257807
1700076071,0.9407958984375,-0.02056884765625,-0.2173919677734375,0.1347413063049316,-0.0753512158989906,0.5083505511283875,85.82061767578125,-54.72798156738281,238.15611267089844
1700076071,0.939544677734375,-0.0235137939453125,-0.226226806640625,0.1577866971492767,-0.0914023518562316,0.5530351996421814,85.20158386230469,-54.05531311035156,237.7587890625
1700076071,0.9602203369140624,-0.029571533203125,-0.2419281005859375,0.1991834044456482,-0.1008770763874054,0.61799156665802,85.51773071289062,-53.80564880371094,237.8788299560547
1700076071,0.9695587158203124,0.014495849609375,-0.2164764404296875,0.1964872181415558,-0.1137827560305595,0.7082421183586121,85.17240905761719,-53.49159240722656,237.88589477539065
1700076071,0.9702301025390624,0.0856475830078125,-0.15625,0.1852457523345947,-0.0882459729909896,0.776982307434082,85.30906677246094,-53.08023071289063,238.0049591064453
1700076071,0.94500732421875,0.13702392578125,-0.1308135986328125,0.1929460167884826,-0.0482471585273742,0.7980098128318787,84.58609008789062,-52.47622680664063,238.20361328125
1700076071,0.9375762939453124,0.151031494140625,-0.10064697265625,0.1580048203468322,0.0024977787397801,0.8291237950325012,84.12802124023438,-52.07290649414063,237.2988739013672
1700076071,0.9405517578125,0.1452178955078125,-0.1095428466796875,0.1550822556018829,0.0302806738764047,0.8867788314819336,83.03346252441406,-51.519622802734375,236.77508544921875
1700076071,0.9591064453125,0.0921173095703125,-0.17041015625,0.1149649322032928,-0.0037989993579685,0.9543605446815492,82.00032043457031,-50.95945739746094,236.13526916503903
1700076071,1.005126953125,0.03765869140625,-0.2241668701171875,0.1120253354310989,-0.043298203498125,1.0372357368469238,81.05613708496094,-51.11705017089844,235.42703247070312
1700076071,1.050506591796875,0.022735595703125,-0.2513275146484375,0.1291523873805999,-0.0972418636083602,1.1130292415618896,80.28077697753906,-50.38725280761719,235.52313232421875
1700076071,1.0771484375,0.0567169189453125,-0.2690582275390625,0.1250375360250473,-0.1780269891023636,1.173275589942932,79.55357360839844,-49.38331604003906,234.7704925537109
1700076071,1.09521484375,0.126220703125,-0.226409912109375,0.1181729808449745,-0.2274307608604431,1.2428607940673828,77.8956298828125,-48.60006713867188,235.09619140625
1700076071,1.084320068359375,0.1887664794921875,-0.1544952392578125,0.1874774843454361,-0.2212692648172378,1.302482843399048,77.43510437011719,-48.58885192871094,234.8604278564453
1700076071,1.117523193359375,0.2021026611328125,-0.0650177001953125,0.2591175734996795,-0.1662813872098922,1.3649238348007202,76.59721374511719,-48.07215881347656,234.5169982910156
1700076071,1.1783599853515625,0.19927978515625,-0.05303955078125,0.2839007079601288,-0.1728346198797226,1.4606608152389526,75.25508117675781,-47.11772155761719,234.7847900390625
1700076071,1.2118988037109375,0.1897735595703125,-0.0528106689453125,0.319606214761734,-0.1772043406963348,1.5666276216506958,74.718017578125,-45.9454345703125,235.0262756347656
1700076071,1.2495574951171875,0.115966796875,-0.0550689697265625,0.3186251223087311,-0.1931470930576324,1.7190872430801392,73.55184936523438,-45.26974487304688,235.5227966308593
1700076071,1.26824951171875,0.08489990234375,-0.0720367431640625,0.319866418838501,-0.222393125295639,1.886542797088623,73.06034851074219,-44.530792236328125,235.78872680664065
1700076071,1.31280517578125,0.073272705078125,-0.0593414306640625,0.3592910468578338,-0.2474276423454284,2.0413076877593994,71.94905090332031,-43.94410705566406,235.0194396972656
1700076071,1.3782196044921875,0.0460052490234375,-0.0123748779296875,0.4554532766342163,-0.2695979177951813,2.213869333267212,71.40802001953125,-43.84446716308594,235.32107543945312
1700076071,1.424468994140625,0.023040771484375,0.023406982421875,0.5840978026390076,-0.3383061587810516,2.375506639480591,70.98794555664062,-43.4661865234375,234.822982788086
1700076071,1.54742431640625,-0.0304107666015625,0.068206787109375,0.6732098460197449,-0.4148626923561096,2.5101263523101807,70.82489013671875,-43.72117614746094,234.58200073242188
1700076071,1.76312255859375,-0.1019439697265625,0.030792236328125,0.6530819535255432,-0.4384385943412781,2.581854343414306,70.74440002441406,-43.87837219238281,234.4067840576172
1700076071,1.99078369140625,-0.2274169921875,-0.045379638671875,0.650349497795105,-0.5491302013397217,2.5962018966674805,70.68658447265625,-43.96163940429688,233.71334838867188
1700076071,2.159698486328125,-0.4123077392578125,0.05731201171875,0.5322572588920593,-0.7162960767745972,2.638600826263428,70.44224548339844,-44.22817993164063,233.18716430664065
1700076071,2.2467498779296875,-0.574676513671875,0.1426544189453125,0.2563636004924774,-0.7533528804779053,2.681321620941162,70.55693054199219,-44.64155578613281,232.96310424804688
1700076071,2.2139129638671875,-0.7273712158203125,0.04974365234375,0.0833886340260505,-0.5268182754516602,2.709897041320801,70.788818359375,-44.804962158203125,232.22174072265625
1700076071,1.981964111328125,-0.8439788818359375,-0.140411376953125,-0.5150274038314819,-0.00159443449229,3.0491390228271484,71.25274658203125,-45.06407165527344,232.6036376953125
1700076071,1.5274658203125,-0.6899566650390625,-0.724029541015625,-1.6938530206680298,0.4088956117630005,3.730815887451172,71.21456909179688,-45.23579406738281,232.0806884765625
1700076071,1.112213134765625,-0.426116943359375,-1.2412567138671875,-2.1677510738372803,0.3322479724884033,3.988711357116699,72.03857421875,-45.904083251953125,231.5826873779297
1700076071,0.9697113037109376,-0.4722900390625,-1.3130340576171875,-1.933380365371704,-0.102109856903553,3.5229406356811523,72.58546447753906,-46.3492431640625,230.84385681152344
1700076072,1.1919403076171875,-0.567779541015625,-1.41070556640625,-2.1489741802215576,-0.347767025232315,3.1518211364746094,73.51516723632812,-47.17430114746094,231.23915100097656
1700076072,1.4369049072265625,-0.3804931640625,-1.401641845703125,-2.336297035217285,-0.5199062824249268,3.0504860877990723,74.22743225097656,-48.59809875488281,230.24957275390625
1700076072,1.381072998046875,-0.14617919921875,-1.155364990234375,-2.178675889968872,-0.7075795531272888,2.95570969581604,75.18844604492188,-49.806732177734375,230.2148284912109
1700076072,1.1234283447265625,0.0121307373046875,-0.9397430419921876,-2.140761613845825,-0.9055354595184326,2.63923978805542,76.39317321777344,-51.263214111328125,229.3617248535156
1700076072,0.848907470703125,0.0897216796875,-0.8525238037109375,-2.2050318717956543,-1.074495792388916,2.265558958053589,77.03738403320312,-52.39247131347656,228.99905395507807
1700076072,0.58465576171875,0.2376861572265625,-0.78656005859375,-2.360224723815918,-1.0823949575424194,2.063981294631958,78.04817199707031,-53.64039611816406,229.050033569336
1700076072,0.4993133544921875,0.435699462890625,-0.6899261474609375,-2.59456205368042,-1.2828974723815918,1.655009150505066,79.69953918457031,-54.30525207519531,228.7855529785156
1700076072,0.6211090087890625,0.5124664306640625,-0.3009033203125,-2.650690078735352,-1.3506485223770142,0.8088364005088806,80.15086364746094,-54.87904357910156,229.14796447753903
1700076072,0.752044677734375,0.3111572265625,-0.0161895751953125,-2.128995418548584,-1.2593878507614136,0.1333234310150146,81.52731323242188,-54.66810607910156,229.6412811279297
1700076072,0.5907135009765625,-0.039093017578125,-0.046905517578125,-2.042294502258301,-1.2822518348693848,-0.1928006112575531,82.26664733886719,-54.56242370605469,230.3860015869141
1700076072,0.387451171875,-0.1082305908203125,-0.2774658203125,-2.334033966064453,-1.4271241426467896,-0.278697669506073,82.97697448730469,-54.29782104492188,231.1112823486328
1700076072,0.2932586669921875,-0.1041717529296875,-0.4427337646484375,-2.640366554260254,-1.61180317401886,-0.3113618791103363,83.63699340820312,-54.08843994140625,231.4877166748047
1700076072,0.2465057373046875,-0.15362548828125,-0.5230865478515625,-2.8682711124420166,-1.7617037296295166,-0.45801842212677,83.96507263183594,-53.79876708984375,231.8421630859375
1700076072,0.2509002685546875,-0.246795654296875,-0.5975341796875,-2.978035449981689,-1.9043498039245603,-0.7862256169319153,84.61846923828125,-54.15870666503906,231.7667236328125
1700076072,0.311676025390625,-0.36370849609375,-0.6058807373046875,-2.8861968517303467,-2.0624542236328125,-1.2034891843795776,84.70526123046875,-53.64961242675781,231.93560791015625
1700076072,0.4138641357421875,-0.4725189208984375,-0.5277557373046875,-2.6752376556396484,-2.249638795852661,-1.5560575723648071,84.90570068359375,-53.88862609863281,231.981674194336
1700076072,0.511474609375,-0.52105712890625,-0.4540863037109375,-2.507983446121216,-2.4459445476531982,-1.8145467042922967,84.93157958984375,-53.69880676269531,231.7784881591797
1700076072,0.5543060302734375,-0.498748779296875,-0.466339111328125,-2.542515516281128,-2.5698342323303223,-2.0114195346832275,85.08880615234375,-53.72489929199219,231.4674224853516
1700076072,0.542694091796875,-0.393829345703125,-0.577056884765625,-2.647300243377685,-2.66677188873291,-2.210296630859375,85.06314086914062,-53.85665893554688,231.74578857421875
1700076072,0.5234375,-0.2729949951171875,-0.666717529296875,-2.741461038589477,-2.741461515426636,-2.457956075668335,85.61235046386719,-54.39166259765625,232.2227783203125
1700076072,0.54364013671875,-0.1785125732421875,-0.7384185791015625,-2.8941166400909424,-2.8057878017425537,-2.73929762840271,85.99365234375,-54.70283508300781,231.98541259765625
1700076072,0.5914459228515625,-0.1021881103515625,-0.789337158203125,-3.0946741104125977,-2.8445448875427246,-3.0679590702056885,85.85380554199219,-54.652679443359375,231.8949279785156
1700076072,0.6678466796875,-0.057708740234375,-0.78680419921875,-3.2976739406585693,-2.8498129844665527,-3.4034459590911865,85.93849182128906,-54.72068786621094,232.06983947753903
1700076072,0.751800537109375,-0.0415802001953125,-0.743499755859375,-3.4558708667755127,-2.850900411605835,-3.715602397918701,86.03349304199219,-54.734161376953125,231.75860595703125
1700076072,0.823028564453125,-0.0488128662109375,-0.6972503662109375,-3.472318410873413,-2.8405728340148926,-3.9665541648864746,86.24200439453125,-54.75634765625,232.4585723876953
1700076072,0.88494873046875,-0.0720672607421875,-0.6668701171875,-3.4631710052490234,-2.813486099243164,-4.1822285652160645,85.82183837890625,-55.065948486328125,232.8124084472656
1700076072,0.972686767578125,-0.1055755615234375,-0.6522979736328125,-3.4722001552581787,-2.6999478340148926,-4.355655670166016,85.91476440429688,-54.81607055664063,232.53062438964844
1700076072,1.0670013427734375,-0.1048583984375,-0.68560791015625,-3.497161388397217,-2.5188100337982178,-4.447967052459717,86.41355895996094,-55.40834045410156,232.28445434570312
1700076072,1.1740264892578125,-0.052032470703125,-0.780059814453125,-3.634568452835083,-2.367145538330078,-4.537242412567139,86.12779235839844,-55.439208984375,232.11260986328125
1700076072,1.3856353759765625,-0.0031280517578125,-0.9141845703125,-3.821563959121704,-2.3157544136047363,-4.620175361633301,85.88114929199219,-55.18070983886719,232.07083129882807
1700076072,1.6586456298828125,0.0576629638671875,-1.05816650390625,-3.894618034362793,-2.377523899078369,-4.642956733703613,85.76011657714844,-55.16041564941406,231.86021423339844
1700076072,1.8642120361328125,0.166259765625,-1.1513214111328125,-3.786864042282105,-2.528146505355835,-4.57088041305542,85.86398315429688,-55.31135559082031,231.85723876953125
1700076072,1.9149169921875,0.316619873046875,-1.15570068359375,-3.4638469219207764,-2.652682542800904,-4.504640579223633,86.32998657226562,-55.647979736328125,231.86868286132807
1700076072,1.8663482666015625,0.442169189453125,-1.0629425048828125,-3.1188113689422607,-2.677990674972534,-4.403695106506348,86.78179931640625,-55.53285217285156,231.73590087890625
1700076072,1.7999420166015625,0.551361083984375,-0.957305908203125,-2.8402233123779297,-2.580070972442627,-4.219266891479492,86.78408813476562,-55.47367858886719,232.2783203125
1700076072,1.7467041015625,0.6467132568359375,-0.875335693359375,-2.454343557357788,-2.378268003463745,-3.9939157962799072,86.71464538574219,-55.73890686035156,232.61962890625
1700076072,1.666534423828125,0.7298431396484375,-0.8624114990234375,-2.033241510391236,-2.042409896850586,-3.764849185943604,86.7607421875,-55.62541198730469,232.24989318847656
1700076072,1.583282470703125,0.8248291015625,-0.98211669921875,-1.8138254880905151,-1.6810191869735718,-3.57632064819336,86.99276733398438,-55.767852783203125,232.650146484375
1700076072,1.495330810546875,0.9450836181640624,-1.1168670654296875,-1.772307276725769,-1.248970866203308,-3.414067268371582,86.96034240722656,-55.64677429199219,233.4029083251953
1700076072,1.3461761474609375,1.0931549072265625,-1.1639404296875,-1.686612606048584,-0.796424150466919,-3.120431423187256,87.40695190429688,-56.17597961425781,233.0110778808593
1700076072,1.131103515625,1.30340576171875,-1.059417724609375,-1.5184705257415771,-0.4111119210720062,-2.5383331775665283,87.68035888671875,-56.14923095703125,232.64743041992188
1700076072,0.9156494140625,1.56488037109375,-0.833404541015625,-1.3070595264434814,-0.1067227199673652,-1.6768923997879028,88.15574645996094,-56.14710998535156,232.9775238037109
1700076072,0.73614501953125,1.825408935546875,-0.6830902099609375,-1.0439873933792114,0.1676380038261413,-0.6620101928710938,87.83137512207031,-55.84944152832031,233.1317596435547
1700076072,0.6060943603515625,2.0092926025390625,-0.6872711181640625,-0.9816097617149352,0.4535632133483886,0.2341238111257553,88.09133911132812,-56.35430908203125,233.47296142578125
1700076072,0.588531494140625,1.90142822265625,-0.7204132080078125,-0.9519381523132324,0.7875422835350037,0.8798857927322388,88.28985595703125,-56.355072021484375,233.68264770507807
1700076072,0.6894378662109375,1.441650390625,-0.760650634765625,-1.1340267658233645,1.022952914237976,1.428500413894653,88.51161193847656,-56.31948852539063,234.0272979736328
1700076072,0.732513427734375,1.1079864501953125,-0.808746337890625,-1.035356879234314,1.0278440713882446,1.8295682668685915,88.92221069335938,-56.37675476074219,234.58523559570312
1700076072,0.9657440185546876,0.8836822509765625,-0.602081298828125,-1.193768858909607,1.001225471496582,2.201178789138794,89.11566162109375,-56.46978759765625,233.91165161132807
1700076072,1.00921630859375,0.7875213623046875,-0.5270843505859375,-1.1530553102493286,0.7658942341804504,1.7286163568496704,89.27743530273438,-56.77098083496094,234.904296875
1700076072,1.4138641357421875,0.03363037109375,-0.076080322265625,-0.5264667272567749,0.0370706692337989,0.0011542140273377,89.54325866699219,-57.02880859375,234.7098999023437
1700076072,2.2587127685546875,-1.2963409423828125,0.9366302490234376,-0.2495709508657455,0.559861958026886,-0.9593161344528198,89.55113220214844,-56.838226318359375,234.25418090820312
1700076072,2.023773193359375,-1.29815673828125,0.6083221435546875,-0.7552591562271118,1.79584002494812,1.2605822086334229,90.04664611816406,-56.86317443847656,235.44715881347656
1700076072,1.1128082275390625,0.3364105224609375,-0.201629638671875,-0.935235321521759,1.9652106761932373,3.463274478912353,90.04580688476562,-57.02253723144531,234.55870056152344
1700076072,1.342041015625,0.3711395263671875,0.000335693359375,-0.4895694255828857,1.8499027490615845,3.306741952896118,90.32745361328124,-56.911407470703125,234.52511596679688
1700076072,1.5680694580078125,-0.496368408203125,-0.1533203125,-0.1194028258323669,1.1772314310073853,2.559417247772217,90.75552368164062,-57.13999938964844,235.15966796875
1700076072,1.051177978515625,-0.2028961181640625,-0.4218902587890625,-0.18692646920681,0.7450518012046814,1.9610322713851929,90.65324401855467,-56.85456848144531,235.3127899169922
1700076072,0.7239990234375,0.3063201904296875,-0.549530029296875,-0.4335455894470215,0.8517431020736694,1.7078436613082886,90.47817993164062,-56.64140319824219,235.2056884765625
1700076072,0.744140625,0.6151275634765625,-0.4324951171875,-0.6709075570106506,0.93964284658432,1.638487696647644,90.88938903808594,-56.93690490722656,235.47427368164065
1700076072,0.9513397216796876,0.884918212890625,-0.224761962890625,-0.7037773132324219,0.9210273623466492,1.2296408414840698,90.99241638183594,-56.717681884765625,235.50247192382807
1700076072,1.3274993896484375,0.7581634521484375,-0.0411529541015625,-0.323038786649704,1.097753405570984,0.7736565470695496,90.46417236328124,-56.86787414550781,235.5051422119141
1700076072,1.4440460205078125,0.452880859375,-0.0377349853515625,-0.1976150721311569,1.226114273071289,0.5450497269630432,91.10671997070312,-56.40646362304688,235.3820037841797
1700076072,1.237335205078125,0.274688720703125,-0.153045654296875,-0.2051928341388702,1.1788554191589355,0.4575116336345672,91.0210418701172,-56.451202392578125,236.1632537841797
1700076072,1.0654449462890625,0.103790283203125,-0.182342529296875,-0.3356789350509643,0.8813840746879578,0.5334734916687012,90.83990478515624,-56.00439453125,236.0089569091797
1700076072,0.955535888671875,0.007415771484375,-0.2561492919921875,-0.3068209290504455,0.4819447994232178,0.7271204590797424,91.24676513671876,-55.8948974609375,236.7598876953125
1700076072,0.9990081787109376,-0.0778961181640625,-0.2755889892578125,-0.038627553731203,0.282801866531372,0.779381275177002,91.18202209472656,-55.73963928222656,236.6416015625
1700076072,1.1391754150390625,-0.1965179443359375,-0.1589508056640625,-0.1098370179533958,0.2392072528600692,0.8986732959747314,91.3677215576172,-55.983795166015625,236.41134643554688
1700076072,1.097503662109375,-0.068328857421875,-0.1181793212890625,-0.2633053958415985,0.2492404580116272,0.9227794408798218,91.35050964355467,-55.32698059082031,236.8304901123047
1700076072,1.023345947265625,0.077484130859375,-0.08477783203125,-0.3064816296100616,0.2269348800182342,0.8122401833534241,91.3131866455078,-55.23457336425781,237.62306213378903
1700076072,1.01007080078125,0.2024688720703125,-0.0748443603515625,-0.3522419333457947,0.1732785701751709,0.6038334369659424,91.41346740722656,-55.26423645019531,237.1913909912109
1700076072,1.0572357177734375,0.29534912109375,-0.07061767578125,-0.417109340429306,0.2112632393836975,0.3461499512195587,91.6578369140625,-54.82402038574219,237.82704162597656
1700076072,1.1180877685546875,0.282470703125,-0.0360260009765625,-0.3181500136852264,0.3410683870315552,0.1833152323961258,91.4264678955078,-54.77699279785156,237.5458984375
1700076072,1.0919036865234375,0.189697265625,0.008941650390625,-0.1975626051425933,0.4199290871620178,0.1197815313935279,91.32919311523438,-54.403228759765625,237.4962310791016
1700076072,1.04632568359375,0.1016693115234375,-0.032928466796875,-0.1650853604078292,0.3842909336090088,0.1012086421251297,91.4429168701172,-53.95881652832031,237.7665405273437
1700076072,1.03643798828125,0.025604248046875,-0.104766845703125,-0.116230733692646,0.2802295386791229,0.1284439861774444,91.22705078125,-53.43893432617188,238.11241149902344
1700076072,1.011749267578125,-0.022705078125,-0.1639862060546875,0.0181702151894569,0.1504901647567749,0.1753787398338318,91.3245086669922,-53.62228393554688,237.87026977539065
1700076072,0.986419677734375,-0.0341644287109375,-0.18170166015625,0.1387003511190414,0.0523822493851184,0.2024641633033752,91.68740844726562,-52.48101806640625,238.4364776611328
1700076072,0.9894256591796876,-0.00958251953125,-0.155548095703125,0.0950586050748825,0.0146809415891766,0.173923060297966,91.60580444335938,-52.04171752929688,238.6507110595703
1700076072,1.0110321044921875,0.036163330078125,-0.1429595947265625,0.0551527328789234,0.0056086173281073,0.1384846419095993,91.31784057617188,-51.39955139160156,239.05123901367188
1700076072,1.0198974609375,0.049285888671875,-0.0943450927734375,0.0973257571458816,0.0566017590463161,0.1039402484893798,91.01895141601562,-50.69113159179688,239.2017364501953
1700076072,1.0104217529296875,0.0104827880859375,-0.055877685546875,0.1568015962839126,0.1177295595407486,0.1109997555613517,90.537353515625,-50.15699768066406,239.3111724853516
1700076072,0.9791259765625,-0.0310821533203125,-0.06549072265625,0.1147441565990448,0.1354696750640869,0.1535080671310424,89.66024780273438,-49.55891418457031,238.6984405517578
1700076072,0.958526611328125,-0.05902099609375,-0.0763702392578125,0.0331837870180606,0.1630472391843795,0.2128424942493438,88.890380859375,-48.50398254394531,237.84706115722656
1700076072,0.952301025390625,-0.0843505859375,-0.09930419921875,-0.0237617883831262,0.182384192943573,0.2637024819850921,87.54649353027344,-47.67987060546875,237.305908203125
1700076072,0.9588470458984376,-0.07177734375,-0.122406005859375,-0.0048842374235391,0.2050077468156814,0.2848903238773346,86.52848815917969,-47.23539733886719,236.56549072265625
1700076072,0.98797607421875,-0.08758544921875,-0.0946807861328125,0.0485693998634815,0.2373164147138595,0.321586012840271,85.11083984375,-46.103851318359375,236.08755493164065
1700076072,0.98382568359375,-0.0873870849609375,-0.093780517578125,-0.0218299310654401,0.2318068593740463,0.3945145606994629,83.68513488769531,-44.972930908203125,236.0028839111328
1700076072,0.9730682373046876,-0.0621185302734375,-0.1155853271484375,-0.1061799675226211,0.2425561845302581,0.4732639491558075,82.10133361816406,-43.95396423339844,235.15704345703125
1700076072,0.9703216552734376,-0.0957794189453125,-0.13824462890625,-0.1071778535842895,0.2452390491962433,0.5538943409919739,80.0831298828125,-43.31101989746094,234.68023681640625
1700076072,0.9602203369140624,-0.13555908203125,-0.1645355224609375,-0.1225826442241668,0.2088259160518646,0.6304171085357666,79.13151550292969,-42.53717041015625,234.403549194336
1700076072,0.9542694091796876,-0.1338043212890625,-0.169830322265625,-0.1170794814825058,0.215034008026123,0.7406682372093201,77.37916564941406,-42.1236572265625,233.98434448242188
1700076072,0.946380615234375,-0.09173583984375,-0.1512451171875,-0.1068731844425201,0.2467538565397262,0.8136367201805115,76.06539916992188,-41.39695739746094,233.39698791503903
1700076072,0.9543914794921876,-0.0746917724609375,-0.136627197265625,-0.1133649051189422,0.2954151332378387,0.8858344554901123,75.09603881835938,-40.41313171386719,233.1826171875
1700076072,0.94708251953125,-0.0796356201171875,-0.1130828857421875,-0.1676356047391891,0.3241341412067413,0.9723361134529114,73.74220275878906,-40.17864990234375,232.6245880126953
1700076072,0.938873291015625,-0.0749969482421875,-0.1375732421875,-0.2185781449079513,0.3081232011318207,1.064510703086853,73.03955078125,-39.67547607421875,232.28494262695312
1700076072,0.9545745849609376,-0.0425262451171875,-0.12335205078125,-0.2257540374994278,0.3083296120166778,1.1552281379699707,72.400390625,-39.77207946777344,231.9405212402344
1700076072,1.0005645751953125,0.0569915771484375,-0.0517578125,-0.1979945749044418,0.327897697687149,1.1813279390335083,72.17462158203125,-39.30172729492188,232.247314453125
1700076072,1.045166015625,0.1730194091796875,-0.0437469482421875,-0.1003636196255683,0.3371162414550781,1.1720633506774902,71.278076171875,-39.53271484375,231.2414093017578
1700076072,1.0613555908203125,0.2148895263671875,-0.0916748046875,0.0219476427882909,0.317923903465271,1.1604154109954834,71.09335327148438,-39.10858154296875,231.44122314453125
1700076072,1.0428619384765625,0.1764373779296875,-0.133056640625,0.066767044365406,0.2875015437602997,1.1832419633865356,71.21865844726562,-38.7860107421875,230.8968963623047
1700076072,1.002471923828125,0.10113525390625,-0.1695404052734375,0.0826296284794807,0.2737788259983063,1.2015846967697144,70.96131896972656,-38.670654296875,230.45486450195312
1700076073,1.0135955810546875,0.013275146484375,-0.2254791259765625,0.092554435133934,0.2190484553575515,1.264588713645935,71.25843811035156,-38.24131774902344,230.4254150390625
1700076073,1.0297393798828125,-0.0031585693359375,-0.263458251953125,0.0911749154329299,0.1558508425951004,1.3504109382629397,71.5699462890625,-38.52537536621094,230.0493927001953
1700076073,1.0753326416015625,-9.1552734375e-05,-0.2142791748046875,0.1905262768268585,0.0990464240312576,1.372343897819519,72.18235778808594,-38.41419982910156,229.4322967529297
1700076073,1.1579437255859375,0.11004638671875,-0.1866912841796875,0.2097987681627273,0.032809879630804,1.353198528289795,72.93901062011719,-38.812286376953125,228.8611297607422
1700076073,1.2523345947265625,0.2987213134765625,-0.1213836669921875,0.3120087683200836,0.0155363492667675,1.2937953472137451,73.65560913085938,-38.80723571777344,228.67459106445312
1700076073,1.265350341796875,0.35150146484375,0.003021240234375,0.3805143237113952,0.0153062520548701,1.272059679031372,75.11419677734375,-39.27995300292969,228.10333251953125
1700076073,1.2498626708984375,0.331390380859375,0.0329437255859375,0.3673878610134125,-0.0461089052259922,1.3119701147079468,75.92198181152344,-39.69366455078125,227.22479248046875
1700076073,1.3236846923828125,0.258270263671875,0.0366668701171875,0.2731689512729645,-0.1208374723792076,1.3829089403152466,77.09034729003906,-40.3607177734375,227.6295928955078
1700076073,1.4164581298828125,0.17620849609375,-0.0070343017578125,0.0477893613278865,-0.2055571526288986,1.4511569738388062,78.44866943359375,-41.141021728515625,227.2071685791016
1700076073,1.51849365234375,0.0813751220703125,-0.0435333251953125,-0.1292416155338287,-0.2664170265197754,1.4759800434112549,80.16326904296875,-41.90022277832031,227.0090484619141
1700076073,1.5946044921875,-0.0057525634765625,-0.1074371337890625,-0.1671389192342758,-0.3167236149311065,1.469900369644165,81.6710205078125,-41.95588684082031,226.0617218017578
1700076073,1.642181396484375,-0.0704193115234375,-0.1486968994140625,-0.0821273624897003,-0.4046822488307953,1.47693932056427,83.29367065429688,-42.59327697753906,226.61376953125
1700076073,1.6873931884765625,-0.1425018310546875,-0.1100921630859375,0.0672605261206626,-0.5159099698066711,1.5300686359405518,84.86488342285156,-42.40260314941406,226.89321899414065
1700076073,1.7419281005859375,-0.2122802734375,-0.0346221923828125,0.1495932191610336,-0.5619975328445435,1.5609407424926758,86.22947692871094,-42.12416076660156,227.4918365478516
1700076073,1.8211212158203125,-0.3383636474609375,0.04412841796875,0.1852843761444091,-0.5085939764976501,1.5079838037490845,87.24404907226562,-41.95494079589844,227.8207855224609
1700076073,1.885101318359375,-0.5486907958984375,0.16583251953125,0.1656251847743988,-0.3880918025970459,1.4162157773971558,88.38583374023438,-41.49371337890625,228.00177001953125
1700076073,1.9029693603515625,-0.7437286376953125,0.241729736328125,0.0126907611265778,-0.2699204385280609,1.360101342201233,89.33842468261719,-41.37626647949219,228.4779815673828
1700076073,1.8159332275390625,-0.861724853515625,0.172882080078125,-0.1886511445045471,-0.1994348168373108,1.400728464126587,89.78439331054688,-40.859222412109375,228.4473419189453
1700076073,1.63616943359375,-0.8685455322265625,-0.006988525390625,-0.327030599117279,-0.1933771818876266,1.732252597808838,90.17254638671876,-41.00575256347656,229.2515869140625
1700076073,1.4053497314453125,-0.6385955810546875,-0.354400634765625,-0.8354275226593018,0.306899219751358,2.487722396850586,90.50123596191406,-40.59336853027344,229.0079498291016
1700076073,1.2491455078125,-0.1840972900390625,-1.265380859375,-1.6184102296829224,0.6134096384048462,3.335054397583008,90.51763916015624,-40.732757568359375,228.18069458007807
1700076073,1.1501617431640625,0.0564422607421875,-1.7316741943359375,-2.3073556423187256,0.5648924112319946,3.402595281600952,90.49923706054688,-40.43453979492188,227.76678466796875
1700076073,1.4170684814453125,-0.0662078857421875,-1.6993408203125,-2.657548666000366,0.4469234347343445,3.365231513977051,90.6801300048828,-40.26502990722656,228.4310913085937
1700076073,1.555694580078125,0.07940673828125,-1.3733062744140625,-2.537931442260742,0.2448699325323104,3.5330305099487305,90.81600952148438,-40.99871826171875,228.6638946533203
1700076073,1.445892333984375,0.36065673828125,-0.9633636474609376,-2.4495115280151367,0.0199934151023626,3.7205963134765625,91.40570068359376,-41.37916564941406,228.39781188964844
1700076073,1.3838348388671875,0.555633544921875,-0.5887908935546875,-2.221409320831299,0.0816639736294746,3.9067111015319824,91.00282287597656,-40.7745361328125,228.48452758789065
1700076073,1.376312255859375,0.8126373291015625,-0.332305908203125,-1.725546956062317,0.4752517342567444,3.625205993652344,90.90670776367188,-40.61445617675781,228.582748413086
1700076073,1.5550384521484375,0.968658447265625,-0.1763763427734375,-1.1538281440734863,0.5924566388130188,2.8085763454437256,90.77764892578124,-40.89857482910156,228.4123077392578
1700076073,1.7736663818359375,0.8681640625,-0.0543060302734375,-0.4973272085189819,0.7318347692489624,2.301366090774536,90.91423034667967,-40.64158630371094,227.825912475586
1700076073,1.61767578125,0.6663818359375,-0.2956695556640625,0.0273320227861404,0.8006189465522766,2.1793482303619385,90.76959228515624,-40.587738037109375,228.4348297119141
1700076073,1.32427978515625,0.4846954345703125,-0.5732879638671875,0.1793724149465561,0.8155155777931213,2.173769235610962,90.43861389160156,-40.73124694824219,227.9379119873047
1700076073,1.20855712890625,0.3790435791015625,-0.7593841552734375,0.011322695761919,0.7623796463012695,2.140088081359864,90.87423706054688,-40.22523498535156,228.2168884277344
1700076073,1.1655120849609375,0.3468017578125,-0.8524627685546875,-0.3466801941394806,0.5731663107872009,2.037520408630371,90.707275390625,-40.31687927246094,227.8119201660156
1700076073,1.1751556396484375,0.38140869140625,-0.79547119140625,-0.8144391179084778,0.3910284638404846,1.7720130681991575,90.49308776855467,-40.36314392089844,228.4785003662109
1700076073,1.175567626953125,0.3629150390625,-0.610748291015625,-1.148855447769165,0.3469931185245514,1.398466944694519,90.67762756347656,-39.91720581054688,228.4716644287109
1700076073,1.049957275390625,0.27447509765625,-0.394622802734375,-1.3137671947479248,0.378701776266098,1.059419870376587,90.54159545898438,-39.96841430664063,228.53533935546875
1700076073,0.805511474609375,0.22283935546875,-0.286468505859375,-1.468083739280701,0.3142793774604797,0.7905567288398743,91.01885986328124,-40.18132019042969,228.3526611328125
1700076073,0.5308074951171875,0.223480224609375,-0.280364990234375,-1.7236393690109253,0.178680270910263,0.5111300945281982,90.9366455078125,-40.36470031738281,228.4002685546875
1700076073,0.3408050537109375,0.18798828125,-0.3105621337890625,-2.003025770187378,0.0642208009958267,0.209224596619606,90.9196319580078,-40.39280700683594,228.47938537597656
1700076073,0.223907470703125,0.133453369140625,-0.2894287109375,-2.2336974143981934,-0.0169076099991798,-0.1088985204696655,91.05551147460938,-40.2191162109375,228.9464111328125
1700076073,0.17706298828125,0.0925445556640625,-0.21978759765625,-2.355478048324585,-0.0930974557995796,-0.434364765882492,91.7637176513672,-40.1324462890625,229.02305603027344
1700076073,0.173187255859375,0.0816192626953125,-0.151580810546875,-2.402689218521118,-0.2318111211061477,-0.7415638566017151,91.57089233398438,-40.337921142578125,229.0096435546875
1700076073,0.1826934814453125,0.0970611572265625,-0.1091461181640625,-2.405332088470459,-0.3664773404598236,-1.0229785442352295,91.67909240722656,-40.29463195800781,229.3495635986328
1700076073,0.158447265625,0.109619140625,-0.0824737548828125,-2.425612211227417,-0.5046693086624146,-1.3284832239151,92.0725555419922,-40.43910217285156,229.4266357421875
1700076073,0.139862060546875,0.0892333984375,-0.073028564453125,-2.503822326660156,-0.6729517579078674,-1.6314116716384888,92.26817321777344,-40.26844787597656,229.74539184570312
1700076073,0.1426239013671875,0.0648040771484375,-0.0952606201171875,-2.465991973876953,-0.8575594425201416,-1.933247685432434,92.27586364746094,-40.435546875,229.5121917724609
1700076073,0.1627197265625,0.0347747802734375,-0.056488037109375,-2.3502023220062256,-1.0775141716003418,-2.162014961242676,92.71658325195312,-40.27310180664063,229.7720489501953
1700076073,0.1525421142578125,0.040374755859375,-0.0124359130859375,-2.201590061187744,-1.2635674476623535,-2.396079540252685,92.86878967285156,-40.95018005371094,229.76080322265625
1700076073,0.13720703125,0.05084228515625,-0.0433807373046875,-2.0766234397888184,-1.398412585258484,-2.6676113605499268,93.48956298828124,-40.851104736328125,230.00509643554688
1700076073,0.1222076416015625,0.0364837646484375,-0.0813751220703125,-2.0697245597839355,-1.5070815086364746,-2.959728240966797,93.8264617919922,-40.66889953613281,230.54171752929688
1700076073,0.1278839111328125,0.0334320068359375,-0.1702423095703125,-2.1800832748413086,-1.6258782148361206,-3.1758999824523926,93.98396301269533,-40.90348815917969,230.3204498291016
1700076073,0.1411285400390625,0.0612335205078125,-0.2039642333984375,-2.3200502395629883,-1.704938888549805,-3.296480417251587,94.02101135253906,-41.105224609375,230.577377319336
1700076073,0.130767822265625,0.0549774169921875,-0.257415771484375,-2.4799883365631104,-1.784640908241272,-3.35506534576416,94.15104675292967,-41.04084777832031,230.8029937744141
1700076073,0.126220703125,0.096710205078125,-0.3212432861328125,-2.463526725769043,-1.917429685592652,-3.3705155849456787,94.60984802246094,-41.24557495117188,230.96339416503903
1700076073,0.15228271484375,0.2535400390625,-0.37445068359375,-2.2684319019317627,-1.9686979055404663,-3.3848907947540283,94.7686004638672,-41.16889953613281,231.45513916015625
1700076073,0.21551513671875,0.5078582763671875,-0.440338134765625,-1.7804895639419556,-2.0051019191741943,-3.3484060764312744,95.28865051269533,-41.240966796875,231.29933166503903
1700076073,0.206512451171875,0.7769012451171875,-0.490234375,-1.2958067655563354,-1.9278652667999268,-3.258869171142578,95.14186096191406,-41.24940490722656,231.6588897705078
1700076073,0.170867919921875,0.974853515625,-0.676055908203125,-0.9414066672325134,-1.741868495941162,-3.108785629272461,95.2062530517578,-41.10984802246094,231.3643341064453
1700076073,0.17498779296875,1.0654754638671875,-0.9207611083984376,-0.6773483753204346,-1.5670175552368164,-2.862834930419922,95.61415100097656,-41.09019470214844,231.9961853027344
1700076073,0.1792449951171875,1.194732666015625,-1.1740264892578125,-0.5571324825286865,-1.418887495994568,-2.599849462509156,95.72067260742188,-41.22654724121094,232.0488739013672
1700076073,0.2400054931640625,1.3380279541015625,-1.305511474609375,-0.4669464230537414,-1.2135199308395386,-2.2450671195983887,95.940185546875,-41.38078308105469,231.91961669921875
1700076073,0.27667236328125,1.4698486328125,-1.297515869140625,-0.2767008244991302,-0.934625208377838,-1.7724567651748655,95.86238098144533,-41.083587646484375,232.414794921875
1700076073,0.23297119140625,1.56915283203125,-1.2522430419921875,-0.0877274572849273,-0.6233978271484375,-1.313309907913208,96.2348175048828,-41.17657470703125,233.04335021972656
1700076073,0.175994873046875,1.639434814453125,-1.2667694091796875,0.0023089605383574,-0.3377511501312256,-1.0196995735168457,96.38800048828124,-41.12001037597656,233.0140991210937
1700076073,0.195465087890625,1.6704254150390625,-1.2479705810546875,-0.0186202898621559,-0.1616245806217193,-0.6708172559738159,96.69886779785156,-40.87278747558594,232.87586975097656
1700076073,0.1718597412109375,1.7714691162109375,-1.082672119140625,0.0026620957069098,0.06361785531044,-0.5395992994308472,96.39013671875,-40.74171447753906,233.12559509277344
1700076073,0.1885833740234375,1.64208984375,-0.9627838134765624,0.0381034426391124,0.7549672722816467,-0.7201877236366272,96.76016235351562,-40.301177978515625,233.54991149902344
1700076073,0.19097900390625,1.377166748046875,-1.38623046875,1.0178204774856567,0.6180978417396545,-0.2729234099388122,96.72183227539062,-40.62506103515625,233.83253479003903
1700076073,0.1811370849609375,1.6449432373046875,-1.0652008056640625,1.1892439126968384,-0.6007406711578369,0.2935791611671448,96.51773071289062,-40.21237182617188,233.7675170898437
1700076073,1.1058349609375,1.7330780029296875,0.04376220703125,0.1576229184865951,-0.7704437375068665,-0.5590366721153259,96.7550811767578,-39.8321533203125,234.32955932617188
1700076073,2.416015625,0.5115509033203125,0.8943328857421875,0.4024310708045959,-0.2831297218799591,-0.0687199383974075,96.98416137695312,-39.46012878417969,234.1720428466797
1700076073,2.1279449462890625,0.5371856689453125,0.8910675048828125,-0.1483609676361084,0.0848432481288909,0.6458796858787537,96.82598876953124,-39.281005859375,234.37185668945312
1700076073,2.157577514648437,0.5235748291015625,-0.432159423828125,-0.7507211565971375,-0.1664970964193344,0.6432053446769714,97.28607177734376,-39.106292724609375,234.9203491210937
1700076073,1.8646240234375,0.0125579833984375,-0.7426605224609375,-1.0328435897827148,-0.3711687624454498,0.7801690697669983,97.302001953125,-38.71830749511719,235.32814025878903
1700076073,0.6828155517578125,-0.0917816162109375,-0.7647552490234375,-0.5635421872138977,-0.5154143571853638,0.8229580521583557,97.08511352539062,-38.5859375,235.44854736328125
1700076073,0.329010009765625,-0.094268798828125,-0.4370269775390625,-0.3414105772972107,-0.2420688271522522,0.8337888717651367,97.14527893066406,-38.252044677734375,235.62306213378903
1700076073,0.52655029296875,0.320343017578125,0.0489959716796875,-0.4459202289581299,0.0890656933188438,0.5225250124931335,97.28912353515624,-37.836212158203125,235.3407287597656
1700076073,0.891998291015625,0.6459197998046875,0.07879638671875,-0.2669827044010162,0.1321593672037124,0.1245086416602134,97.15220642089844,-37.155792236328125,235.8776092529297
1700076073,1.252593994140625,0.566009521484375,-0.1905517578125,-0.1448152363300323,0.1586485058069229,-0.0432023331522941,97.29617309570312,-36.936614990234375,235.7216644287109
1700076073,1.2319488525390625,0.382080078125,-0.2776947021484375,-0.1794129014015197,0.1489993333816528,-0.0872680619359016,97.28945922851562,-36.21565246582031,235.3425445556641
1700076073,1.0970611572265625,0.12811279296875,-0.319976806640625,-0.2305437326431274,0.0892371982336044,-0.0326543487608432,97.1593780517578,-35.33552551269531,235.87144470214844
1700076073,1.0549774169921875,-0.01416015625,-0.415740966796875,-0.1962715089321136,-0.0067796092480421,0.0568811260163784,97.14768981933594,-34.32539367675781,236.25115966796875
1700076073,1.1107025146484375,-0.0870361328125,-0.445953369140625,-0.0961457043886184,-0.0924135521054267,0.1599337458610534,97.27444458007812,-33.536865234375,236.36105346679688
1700076073,1.1384429931640625,-0.0887298583984375,-0.4458770751953125,-0.0463608391582965,-0.1579970866441726,0.2583782970905304,96.91822814941406,-32.52143859863281,236.19744873046875
1700076073,1.051971435546875,-0.0125274658203125,-0.41680908203125,-0.091234304010868,-0.2120776325464248,0.3296279609203338,95.9998779296875,-31.389373779296875,235.46568298339844
1700076073,0.934173583984375,0.108673095703125,-0.38580322265625,-0.1700359135866165,-0.2674394249916076,0.2764707505702972,94.58802795410156,-30.03741455078125,234.1687927246093
1700076073,0.91070556640625,0.1950225830078125,-0.359283447265625,-0.1850034147500991,-0.2838714122772217,0.1382335126399994,93.8797607421875,-28.33184814453125,233.2323608398437
1700076073,0.929412841796875,0.2232666015625,-0.342193603515625,-0.0992131382226944,-0.2982953488826751,0.0112774223089218,92.43568420410156,-26.803482055664062,232.9242248535156
1700076073,0.92376708984375,0.2322235107421875,-0.33197021484375,-0.0219037011265754,-0.3238430619239807,-0.0658304095268249,90.4281005859375,-24.54730224609375,231.71856689453125
1700076073,0.9382171630859376,0.2271881103515625,-0.3182220458984375,-0.0104806041345,-0.3329489231109619,-0.1167338043451309,87.59745788574219,-21.8153076171875,231.5147857666016
1700076073,0.971771240234375,0.1997222900390625,-0.292266845703125,-0.0568731352686882,-0.3093724846839905,-0.1647569984197616,85.07940673828125,-19.77938842773437,230.9517059326172
1700076073,1.01837158203125,0.1484222412109375,-0.2673492431640625,-0.0761032924056053,-0.2793882191181183,-0.1854819804430008,82.72708129882812,-17.751495361328125,229.551986694336
1700076073,1.02685546875,0.107818603515625,-0.261444091796875,-0.0542358085513114,-0.2621421217918396,-0.1779612153768539,81.17134094238281,-16.799423217773438,229.03009033203125
1700076073,1.027191162109375,0.0803070068359375,-0.252349853515625,-0.0491246692836284,-0.2490969002246856,-0.1590959131717682,79.6815185546875,-15.3148193359375,228.72059631347656
1700076073,1.0041656494140625,0.083953857421875,-0.2833099365234375,-0.0584784895181655,-0.2517384886741638,-0.1468704044818878,78.49879455566406,-13.829605102539062,228.5304718017578
1700076073,0.94403076171875,0.1156768798828125,-0.300537109375,-0.0445706620812416,-0.2619218826293945,-0.1638046503067016,77.51200866699219,-12.206329345703123,228.7017059326172
1700076073,0.9290924072265624,0.13824462890625,-0.306182861328125,0.0164343677461147,-0.2919069528579712,-0.1916756927967071,76.83717346191406,-11.115921020507812,228.0369873046875
1700076073,0.9420013427734376,0.13995361328125,-0.2770233154296875,0.0243538096547126,-0.2638369798660278,-0.2413031607866287,75.77949523925781,-10.53753662109375,227.48294067382807
1700076073,0.980499267578125,0.116241455078125,-0.277801513671875,0.0432611890137195,-0.2390575855970382,-0.2640990316867828,75.56834411621094,-9.496963500976562,227.2857360839844
1700076074,1.000457763671875,0.09173583984375,-0.249786376953125,0.0806562304496765,-0.2140579670667648,-0.2460228204727172,75.95611572265625,-8.616714477539062,226.42987060546875
1700076074,1.0139617919921875,0.0673828125,-0.2382049560546875,0.0810751467943191,-0.1907294690608978,-0.1905435770750045,76.293212890625,-8.266708374023438,225.6189117431641
1700076074,1.014984130859375,0.054168701171875,-0.2603912353515625,0.0991239175200462,-0.1831977814435959,-0.1378971487283706,76.781982421875,-7.909332275390625,224.79830932617188
1700076074,0.972991943359375,0.0513763427734375,-0.2809906005859375,0.1362403929233551,-0.2013895660638809,-0.101510114967823,77.00910949707031,-7.223983764648437,223.8790283203125
1700076074,0.9303436279296876,0.0784454345703125,-0.252288818359375,0.1392300575971603,-0.1493466049432754,-0.1050995215773582,78.54776000976562,-7.068038940429688,223.0816345214844
1700076074,0.9666595458984376,0.07684326171875,-0.2197113037109375,0.2122986763715744,-0.0889272093772888,-0.0926638916134834,79.81221008300781,-7.68927001953125,221.899169921875
1700076074,0.99285888671875,0.0646209716796875,-0.1943206787109375,0.3103256523609161,-0.0755853056907653,-0.0552398189902305,81.3255615234375,-7.335159301757812,221.2448883056641
1700076074,1.0023651123046875,0.06085205078125,-0.25311279296875,0.3651329576969147,-0.0946641936898231,-0.0243602003902196,83.34658813476562,-7.72705078125,219.37046813964844
1700076074,1.0513153076171875,0.0413360595703125,-0.275421142578125,0.3539964258670807,-0.1247704252600669,-0.0008000136003829,85.76071166992188,-8.581527709960938,218.5018920898437
1700076074,1.084136962890625,0.0189056396484375,-0.24676513671875,0.2856115102767944,-0.1197447776794433,0.0442865043878555,88.0458984375,-9.207839965820312,217.18328857421875
1700076074,1.08819580078125,-0.00244140625,-0.237091064453125,0.3100689053535461,-0.0956980288028717,0.0754367038607597,91.17990112304688,-10.185211181640623,215.8840484619141
1700076074,1.063690185546875,-0.0498809814453125,-0.2420196533203125,0.3810608088970184,-0.1286554485559463,0.165574848651886,94.20011901855467,-11.1240234375,214.8109893798828
1700076074,1.0348968505859375,-0.027679443359375,-0.245086669921875,0.3935992419719696,-0.1787252724170684,0.2209808528423309,97.6624755859375,-13.10479736328125,213.2165679931641
1700076074,1.0576171875,0.0078887939453125,-0.2496490478515625,0.4158097207546234,-0.1728050708770752,0.2582331597805023,101.04971313476562,-14.88934326171875,212.19732666015625
1700076074,1.0738067626953125,0.032440185546875,-0.2519378662109375,0.5064083337783813,-0.2217161506414413,0.3021292388439178,105.02931213378906,-16.937774658203125,211.1322784423828
1700076074,1.10052490234375,0.0791778564453125,-0.174072265625,0.5369958281517029,-0.2702842056751251,0.3880819678306579,109.12721252441406,-20.113433837890625,209.7413787841797
1700076074,1.1880340576171875,0.1276092529296875,-0.0632171630859375,0.5768782496452332,-0.2009613364934921,0.4061967730522156,112.7647705078125,-22.919403076171875,208.13172912597656
1700076074,1.2910614013671875,0.0703277587890625,-0.0160980224609375,0.6290404796600342,-0.1123031079769134,0.4591774344444275,117.3898468017578,-25.75337219238281,207.8833770751953
1700076074,1.335174560546875,0.008544921875,-0.065948486328125,0.5627826452255249,-0.1494459509849548,0.5551002621650696,121.62785339355467,-29.39936828613281,207.63064575195312
1700076074,1.3545379638671875,-0.029815673828125,-0.10009765625,0.4540843963623047,-0.1649524718523025,0.6765686273574829,125.90798950195312,-32.529754638671875,207.0033416748047
1700076074,1.356353759765625,-0.093841552734375,-0.1074066162109375,0.3688198328018188,-0.168070763349533,0.7693334221839905,129.94212341308594,-37.23114013671875,207.3016967773437
1700076074,1.32403564453125,-0.1720428466796875,-0.086517333984375,0.3718859553337097,-0.1347913742065429,0.8624913692474365,133.89703369140625,-40.81135559082031,207.35183715820312
1700076074,1.3114471435546875,-0.22186279296875,-0.0967864990234375,0.4279382824897766,-0.1548694670200348,0.9177674055099488,137.80252075195312,-45.29347229003906,208.08876037597656
1700076074,1.3320770263671875,-0.265960693359375,-0.078948974609375,0.4416937828063965,-0.2142774015665054,1.0047297477722168,141.45648193359375,-49.79193115234375,208.661865234375
1700076074,1.397064208984375,-0.2812957763671875,-0.0314483642578125,0.3441837430000305,-0.2914422452449798,1.1462913751602173,144.26881408691406,-54.15229797363281,209.62071228027344
1700076074,1.4652252197265625,-0.29022216796875,0.02203369140625,0.2198269069194793,-0.3121168911457062,1.2538492679595947,147.56072998046875,-58.834075927734375,210.7300262451172
1700076074,1.5560150146484375,-0.3439178466796875,0.0696868896484375,0.1756330728530883,-0.304249107837677,1.287832498550415,150.20346069335938,-62.53575134277344,211.449951171875
1700076074,1.599578857421875,-0.4272308349609375,0.147735595703125,0.1764517277479171,-0.3255179226398468,1.2751166820526123,152.45510864257812,-66.61882019042969,212.83924865722656
1700076074,1.52288818359375,-0.50830078125,0.2343902587890625,0.0793661922216415,-0.2976790964603424,1.2788177728652954,154.19485473632812,-70.65475463867188,213.5833435058593
1700076074,1.38226318359375,-0.5720062255859375,0.1692047119140625,-0.2258251458406448,0.1317191421985626,1.474041223526001,155.87637329101562,-74.07624816894531,215.02804565429688
1700076074,1.2834930419921875,-0.446990966796875,-0.290924072265625,-0.8085761666297913,0.9322105050086976,1.963724970817566,157.15052795410156,-77.69146728515625,216.7137451171875
1700076074,1.1956787109375,-0.1570281982421875,-0.945068359375,-1.5767210721969604,1.2640262842178345,2.2891690731048584,158.5856475830078,-80.7427978515625,217.8755340576172
1700076074,1.2630157470703125,-0.035430908203125,-1.5076141357421875,-2.372889757156372,0.9474821090698242,2.664421558380127,159.2356719970703,-83.3922119140625,219.3959045410156
1700076074,1.46746826171875,0.1123199462890625,-1.9502716064453125,-1.9815417528152464,0.8436537384986877,3.1431775093078613,160.70782470703125,-85.22901916503906,220.8801422119141
1700076074,1.4560546875,0.2205657958984375,-1.6351470947265625,-1.1669055223464966,1.0668865442276,3.722723960876465,161.39877319335938,-86.51173400878906,221.36924743652344
1700076074,1.407318115234375,0.4214935302734375,-1.024139404296875,-0.4326502084732055,1.0133585929870603,4.374049186706543,162.03692626953125,-87.66932678222656,222.20762634277344
1700076074,1.451416015625,0.7436676025390625,-0.569854736328125,-0.004235225263983,1.0428531169891355,4.804537296295166,163.23426818847656,-87.50978088378906,222.9596405029297
1700076074,1.57757568359375,1.001373291015625,-0.68609619140625,-0.049279399216175,0.9502025246620178,4.75304651260376,163.95140075683594,-87.70851135253906,223.60504150390625
1700076074,1.884033203125,1.207000732421875,-0.8004913330078125,-0.5139128565788269,0.9525059461593628,4.069599628448486,165.03492736816406,-87.59205627441406,222.85015869140625
1700076074,2.203643798828125,1.299468994140625,-0.67138671875,-0.4125758409500122,1.583125114440918,3.007465362548828,164.5961456298828,-87.07144165039062,221.46292114257807
1700076074,2.2050018310546875,1.094451904296875,-0.367279052734375,0.5383060574531555,2.056844472885132,2.474050283432007,165.29193115234375,-86.78117370605469,221.3565368652344
1700076074,1.8231201171875,0.8002777099609375,-0.209381103515625,0.8166927099227905,2.1366961002349854,2.271071672439575,165.59335327148438,-86.55839538574219,223.163330078125
1700076074,1.5732421875,0.66986083984375,-0.4532012939453125,0.6073509454727173,1.8309946060180664,2.037768602371216,165.6126708984375,-85.72843933105469,224.7410430908203
1700076074,1.5814666748046875,0.4647064208984375,-0.496795654296875,0.2932779490947723,1.4480438232421875,1.6588358879089355,166.1669921875,-85.1226806640625,225.68820190429688
1700076074,1.6318206787109375,0.1813507080078125,-0.4032135009765625,-0.094218909740448,1.133098602294922,1.2081032991409302,166.1290740966797,-84.07777404785156,225.25445556640625
1700076074,1.51068115234375,-0.0633697509765625,-0.27191162109375,-0.276112288236618,0.9652395844459534,0.8879601955413818,166.84408569335938,-83.31979370117188,224.18557739257807
1700076074,1.1136322021484375,-0.2525787353515625,-0.0691375732421875,-0.3325017988681793,0.880615234375,0.7493983507156372,166.36318969726562,-82.24432373046875,224.1674346923828
1700076074,0.62115478515625,-0.3954620361328125,0.0767364501953125,-0.3928386270999908,0.7575750350952148,0.609612226486206,166.51544189453125,-81.41244506835938,224.66387939453125
1700076074,0.23388671875,-0.528076171875,0.0471954345703125,-0.5031685829162598,0.569719135761261,0.2960958480834961,166.8820343017578,-80.73654174804688,223.79405212402344
1700076074,0.0053863525390625,-0.646759033203125,-0.010589599609375,-0.5430707335472107,0.3812634646892547,-0.0966972485184669,166.6327667236328,-81.36613464355469,224.11192321777344
1700076074,-0.025787353515625,-0.6834564208984375,0.088165283203125,-0.5411689877510071,0.266141414642334,-0.3763020038604736,166.84173583984375,-81.27577209472656,224.50059509277344
1700076074,0.0224761962890625,-0.510589599609375,0.14788818359375,-0.7764933705329895,0.1046377271413803,-0.756062924861908,166.64984130859375,-81.07044982910156,224.14889526367188
1700076074,0.1372528076171875,-0.309356689453125,0.0748443603515625,-0.99769389629364,-0.129558265209198,-1.1643846035003662,166.8070526123047,-80.97044372558594,223.98678588867188
1700076074,0.17059326171875,-0.258880615234375,0.1100921630859375,-1.1139856576919556,-0.2615900635719299,-1.5414754152297974,166.9094696044922,-80.54513549804688,223.5465850830078
1700076074,0.08135986328125,-0.317474365234375,0.118682861328125,-1.282903790473938,-0.3710081577301025,-1.82038164138794,166.36196899414062,-80.22853088378906,223.5452880859375
1700076074,-0.0652923583984375,-0.34100341796875,0.074493408203125,-1.4861035346984863,-0.4933924078941345,-2.086643934249878,166.8770751953125,-79.89653015136719,223.1446685791016
1700076074,-0.155609130859375,-0.3474884033203125,-0.0028228759765625,-1.7343308925628662,-0.5984343886375427,-2.4062657356262207,166.63272094726562,-79.66090393066406,222.7442169189453
1700076074,-0.1558685302734375,-0.330810546875,-0.072418212890625,-1.9779212474823,-0.7111992835998535,-2.676846742630005,166.57916259765625,-79.47721862792969,222.78765869140625
1700076074,-0.14459228515625,-0.2564697265625,-0.08929443359375,-2.138769149780273,-0.923576295375824,-2.920480728149414,166.38011169433594,-78.93644714355469,222.9755249023437
1700076074,-0.1375732421875,-0.135894775390625,-0.081390380859375,-1.9445112943649288,-1.2103019952774048,-3.1241846084594727,166.9152374267578,-79.09817504882812,223.0760955810547
1700076074,-0.1121368408203125,0.064361572265625,-0.060791015625,-1.1163108348846436,-1.2846274375915527,-3.2090766429901123,166.82537841796875,-78.99354553222656,223.5679168701172
1700076074,-0.0951080322265625,0.2572174072265625,-0.0070037841796875,-0.3830864131450653,-1.2252514362335205,-3.3262977600097656,166.75885009765625,-78.77104187011719,222.92303466796875
1700076074,-0.1049652099609375,0.4837799072265625,-0.117523193359375,0.3966104686260223,-1.1741647720336914,-3.455852508544922,166.88943481445312,-78.62471008300781,224.11659240722656
1700076074,-0.076263427734375,0.7445526123046875,-0.3877410888671875,0.9697048664093018,-1.0331294536590576,-3.4858882427215576,166.68589782714844,-77.87669372558594,223.9563446044922
1700076074,0.003662109375,0.9531707763671876,-0.55108642578125,1.3450443744659424,-0.896843433380127,-3.3195362091064453,167.00135803222656,-78.31228637695312,223.58071899414065
1700076074,0.0656585693359375,1.1281280517578125,-0.6092681884765625,1.548827052116394,-0.7405098080635071,-3.0122644901275635,166.87783813476562,-78.00047302246094,223.98309326171875
1700076074,0.0812225341796875,1.2258453369140625,-0.7451019287109375,1.3499594926834106,-0.569273829460144,-2.523780584335327,166.932373046875,-77.75025939941406,224.3593292236328
1700076074,0.0655059814453125,1.3692779541015625,-0.8768768310546875,0.9254077076911926,-0.4810542464256286,-1.898054361343384,167.18504333496094,-77.5616455078125,224.29478454589844
1700076074,0.070465087890625,1.6241455078125,-0.9423065185546876,0.4385201036930084,-0.3930996060371399,-1.3533086776733398,166.8643341064453,-77.4927978515625,223.95602416992188
1700076074,0.1618194580078125,1.8343963623046875,-0.929656982421875,0.1207684949040412,-0.3014898002147674,-0.8595762252807617,167.05752563476562,-77.34483337402344,224.26983642578125
1700076074,0.1472320556640625,2.025299072265625,-0.8522796630859375,0.0552382208406925,-0.2344926595687866,-0.5757439732551575,167.44546508789062,-77.40257263183594,224.6656036376953
1700076074,0.096527099609375,2.046051025390625,-0.7587890625,-0.1889547407627105,0.5387865304946899,-0.7304917573928833,167.3307647705078,-77.26734924316406,224.7740631103516
1700076074,0.1381378173828125,1.7987060546875,-1.3126983642578125,0.5925956964492798,0.7253281474113464,-0.4971154928207397,167.30833435058594,-77.126220703125,224.81930541992188
1700076074,0.110382080078125,1.7734375,-1.387481689453125,0.6044566035270691,-0.4738035202026367,-0.3134274184703827,167.24635314941406,-76.89518737792969,225.0747528076172
1700076074,1.5127105712890625,1.38427734375,-0.330352783203125,-0.0114742293953895,-0.7674039602279663,-1.1699053049087524,167.4525146484375,-77.06501770019531,225.5860595703125
1700076074,2.5814361572265625,0.2811737060546875,0.1566162109375,-0.0028778119012713,-0.2655384540557861,-1.1645084619522097,167.58848571777344,-77.167724609375,225.25503540039065
1700076074,1.654022216796875,-0.021728515625,0.4978485107421875,0.3633196055889129,0.124721422791481,-0.010203368961811,167.79586791992188,-77.04891967773438,225.63926696777344
1700076074,0.703369140625,0.2919769287109375,0.02197265625,0.1260886937379837,-0.2347443252801895,0.6951529383659363,167.39710998535156,-77.30137634277344,225.71026611328125
1700076074,1.11517333984375,0.402679443359375,-0.548492431640625,-0.6992416977882385,-0.6895331740379333,0.5448241829872131,167.2642822265625,-77.25241088867188,226.55178833007807
1700076074,1.855926513671875,0.2767486572265625,-0.24249267578125,-0.9550689458847046,-0.1500909626483917,0.3959055244922638,167.35037231445312,-77.42852783203125,226.5695343017578
1700076074,1.2061614990234375,0.339019775390625,-0.2736053466796875,-0.4749092757701874,-0.0096150767058134,0.1742604821920395,167.2689208984375,-77.26657104492188,226.9255523681641
1700076074,0.7585906982421875,0.1792755126953125,-0.4218902587890625,-0.1815362423658371,-0.074889950454235,0.1536822319030761,167.7552032470703,-77.12171936035156,226.7020721435547
1700076074,0.858154296875,0.1179962158203125,-0.42767333984375,-0.0440500155091285,0.063843697309494,0.2157211005687713,167.55044555664062,-77.155517578125,227.0267333984375
1700076074,0.8773651123046875,0.1448211669921875,-0.2637786865234375,-0.0860158428549766,0.1662672758102417,0.1811218559741974,167.64076232910156,-76.99127197265625,227.7710876464844
1700076074,0.8735809326171875,0.288360595703125,-0.2420501708984375,-0.1793655008077621,0.1357365250587463,0.0386192984879016,167.6575927734375,-76.69960021972656,227.5951538085937
1700076074,0.984405517578125,0.4180450439453125,-0.3917083740234375,-0.2067100405693054,0.0852198228240013,-0.1237565651535987,167.36619567871094,-76.4801025390625,228.21438598632807
1700076074,1.0792083740234375,0.3834228515625,-0.425872802734375,-0.1847887635231018,0.0577317401766777,-0.2060181498527526,167.6113739013672,-76.41656494140625,227.8192901611328
1700076074,1.0141143798828125,0.25115966796875,-0.4359893798828125,-0.1606336236000061,0.0160514041781425,-0.2234983295202255,167.3837127685547,-76.3868408203125,227.8558959960937
1700076074,1.00054931640625,0.132232666015625,-0.453948974609375,-0.0983031317591667,-0.0589120537042617,-0.1719496548175811,167.5424346923828,-75.91493225097656,227.8747100830078
1700076074,1.053924560546875,0.09393310546875,-0.4603424072265625,-0.0333331897854805,-0.1285454630851745,-0.1115797907114029,167.70396423339844,-75.91920471191406,227.66873168945312
1700076074,1.04583740234375,0.107513427734375,-0.44073486328125,0.0074091805145144,-0.184532031416893,-0.0974205657839775,167.3977813720703,-75.63441467285156,227.9989624023437
1700076074,0.9858245849609376,0.1778411865234375,-0.4131622314453125,0.0283458866178989,-0.2186276763677597,-0.1361232101917266,167.62477111816406,-75.06413269042969,228.2793884277344
1700076074,1.00006103515625,0.2296295166015625,-0.367919921875,0.0626215711236,-0.2204833775758743,-0.1901227980852127,167.516845703125,-74.6187744140625,228.3712158203125
1700076074,1.0121917724609375,0.2296600341796875,-0.3700103759765625,0.0828208476305008,-0.2292137444019317,-0.2256677448749542,167.4715118408203,-73.91780090332031,228.2618103027344
1700076074,1.009429931640625,0.192169189453125,-0.378173828125,0.0911823734641075,-0.246788740158081,-0.2149668931961059,167.55047607421875,-73.21896362304688,228.74322509765625
1700076074,0.994598388671875,0.1801300048828125,-0.385467529296875,0.0582907386124134,-0.2659046351909637,-0.2065134942531585,167.8641815185547,-72.57081604003906,229.23953247070312
1700076074,0.988433837890625,0.1815338134765625,-0.387451171875,0.0495987124741077,-0.2802039682865143,-0.2140326648950576,168.05979919433594,-71.89447021484375,228.97262573242188
1700076074,0.9660491943359376,0.1926727294921875,-0.404205322265625,0.0819763615727424,-0.2929003238677978,-0.2517566084861755,167.9808807373047,-71.16889953613281,229.30555725097656
1700076074,0.954132080078125,0.2021331787109375,-0.3928070068359375,0.124496653676033,-0.3133472502231598,-0.291875809431076,167.84230041503906,-70.232666015625,229.2627868652344
1700076074,0.9469757080078124,0.216644287109375,-0.392669677734375,0.1355152130126953,-0.3511607050895691,-0.3320509195327759,167.47006225585938,-69.11526489257812,229.7157440185547
1700076075,0.937255859375,0.2219085693359375,-0.38714599609375,0.1346238553524017,-0.3787297308444977,-0.3738111555576324,167.755615234375,-68.36514282226562,230.1470184326172
1700076075,0.9202880859375,0.218170166015625,-0.3807220458984375,0.1386177986860275,-0.3929299712181091,-0.4019554257392883,167.36463928222656,-67.22079467773438,230.4011383056641
1700076075,0.9220123291015624,0.1998291015625,-0.364013671875,0.1566916108131408,-0.3910402059555053,-0.4259345233440399,167.68698120117188,-66.17105102539062,230.4574737548828
1700076075,0.968170166015625,0.1573333740234375,-0.3227691650390625,0.1709792017936706,-0.3595706820487976,-0.4181077778339386,167.30221557617188,-64.75833129882812,230.8543395996093
1700076075,1.0167999267578125,0.1157684326171875,-0.3092041015625,0.2182178199291229,-0.3182986080646515,-0.3756742775440216,167.4813690185547,-63.73738098144531,231.51548767089844
1700076075,1.0377349853515625,0.0934600830078125,-0.3145294189453125,0.235596016049385,-0.3093360066413879,-0.3022232353687286,166.91883850097656,-62.62934875488281,231.785873413086
1700076075,1.02642822265625,0.1000518798828125,-0.3140411376953125,0.2453303933143615,-0.3136788308620453,-0.2437849640846252,167.05877685546875,-61.24557495117188,231.9460601806641
1700076075,0.9906463623046876,0.116180419921875,-0.3103790283203125,0.29752117395401,-0.2755559384822845,-0.2287333160638809,166.77499389648438,-60.03926086425781,232.5662078857422
1700076075,0.9703826904296876,0.1273040771484375,-0.314208984375,0.3684898912906647,-0.2538498640060425,-0.2524034976959228,166.30369567871094,-58.44776916503906,233.04800415039065
1700076075,0.9923095703125,0.1582794189453125,-0.3097076416015625,0.4591811597347259,-0.2818188965320587,-0.2566751837730407,165.89627075195312,-57.09075927734375,233.77951049804688
1700076075,1.017974853515625,0.20086669921875,-0.289581298828125,0.5054314732551575,-0.2668255567550659,-0.2707705199718475,165.36328125,-55.5101318359375,233.86740112304688
1700076075,1.01751708984375,0.2122344970703125,-0.2910003662109375,0.5111450552940369,-0.2418150305747985,-0.2990064024925232,164.74624633789062,-53.5997314453125,234.80235290527344
1700076075,1.0037078857421875,0.1968994140625,-0.2973175048828125,0.5023115873336792,-0.2565763890743255,-0.3157816529273987,164.10333251953125,-51.46649169921875,236.49917602539065
1700076075,1.0301513671875,0.1391143798828125,-0.3166351318359375,0.4727457165718078,-0.265093982219696,-0.2816742956638336,163.3046875,-49.877685546875,237.39453125
1700076075,1.05029296875,0.0579986572265625,-0.3446197509765625,0.4366340339183807,-0.3035803735256195,-0.2085880935192108,161.98226928710938,-47.94113159179688,238.59957885742188
1700076075,1.071441650390625,0.0168609619140625,-0.33355712890625,0.4609566926956177,-0.3837830722332001,-0.1576138585805893,160.8572540283203,-46.14295959472656,239.2921600341797
1700076075,1.091339111328125,0.0320587158203125,-0.259368896484375,0.4786901473999023,-0.4236082732677459,-0.1294386833906173,159.60301208496094,-44.22663879394531,240.7463531494141
1700076075,1.04241943359375,0.0891571044921875,-0.2396087646484375,0.422520101070404,-0.4262272119522095,-0.1415632516145706,158.18490600585938,-43.24885559082031,241.9441070556641
1700076075,0.9889678955078124,0.162994384765625,-0.2501068115234375,0.3751427233219147,-0.4343605041503906,-0.1622501611709594,156.56072998046875,-42.08735656738281,243.6255798339844
1700076075,1.0053863525390625,0.191314697265625,-0.2458038330078125,0.4386210441589355,-0.4269023239612579,-0.167943999171257,154.87681579589844,-41.25192260742188,243.88653564453125
1700076075,1.05963134765625,0.1356353759765625,-0.2519683837890625,0.5720632672309875,-0.4269550442695617,-0.1540130078792572,153.0046844482422,-39.82701110839844,244.4767303466797
1700076075,1.1024017333984375,0.062255859375,-0.2257537841796875,0.6944107413291931,-0.4181530475616455,-0.1238194108009338,150.5000457763672,-38.36480712890625,243.61587524414065
1700076075,1.137359619140625,0.0289764404296875,-0.1647796630859375,0.6664568781852722,-0.3868206739425659,-0.0591743737459182,148.4140625,-37.25263977050781,243.7500457763672
1700076075,1.1283416748046875,0.020477294921875,-0.15618896484375,0.5344133377075195,-0.3845151960849762,0.0467198342084884,146.38894653320312,-36.48602294921875,243.4924468994141
1700076075,1.101593017578125,0.0008087158203125,-0.1749114990234375,0.304801195859909,-0.4099813997745514,0.1809386312961578,144.34474182128906,-36.16253662109375,243.4210357666016
1700076075,1.14617919921875,-0.0886688232421875,-0.13592529296875,0.1180816292762756,-0.3638296127319336,0.3627971112728119,142.7451171875,-36.0069580078125,243.5762176513672
1700076075,1.2087554931640625,-0.2076416015625,-0.100250244140625,0.0092092109844088,-0.3140745759010315,0.5074171423912048,141.0800018310547,-35.2442626953125,243.05377197265625
1700076075,1.244598388671875,-0.322357177734375,-0.1103668212890625,0.0619379356503486,-0.2801821231842041,0.6259453892707825,139.57443237304688,-35.3228759765625,242.9828186035156
1700076075,1.2836151123046875,-0.3754425048828125,-0.0946197509765625,0.1697932928800583,-0.3116223216056824,0.768621563911438,138.36566162109375,-35.4542236328125,243.4447784423828
1700076075,1.336883544921875,-0.389068603515625,-0.0212249755859375,0.1610099226236343,-0.3291097283363342,0.9474392533302308,137.59649658203125,-36.10221862792969,242.4190368652344
1700076075,1.38922119140625,-0.395233154296875,0.0235137939453125,0.0855966582894325,-0.3132266104221344,1.1260771751403809,136.43820190429688,-37.267120361328125,242.2536773681641
1700076075,1.425384521484375,-0.405609130859375,0.0659942626953125,0.1414828300476074,-0.270850658416748,1.2324854135513306,135.9566192626953,-38.88763427734375,242.0500640869141
1700076075,1.4615020751953125,-0.462615966796875,0.1566925048828125,0.2518223822116852,-0.2578347325325012,1.3228679895401,135.24264526367188,-40.62474060058594,242.6734161376953
1700076075,1.4608154296875,-0.489410400390625,0.24969482421875,0.3456716537475586,-0.2481405586004257,1.3618398904800415,134.83212280273438,-42.328216552734375,242.8332061767578
1700076075,1.429962158203125,-0.5213470458984375,0.284698486328125,0.2988940179347992,-0.0891796797513961,1.4205151796340942,134.6328582763672,-44.431915283203125,242.9873809814453
1700076075,1.3596954345703125,-0.5152740478515625,0.1086883544921875,-0.0633131936192512,0.3883171081542969,1.732613205909729,134.53883361816406,-46.43621826171875,242.60888671875
1700076075,1.245147705078125,-0.318450927734375,-0.373992919921875,-0.6238396167755127,0.9431385397911072,2.2383735179901123,134.44900512695312,-48.19554138183594,243.48757934570312
1700076075,1.1802215576171875,-0.0855712890625,-0.8448638916015625,-0.9698883891105652,1.0775117874145508,2.407480239868164,134.68736267089844,-50.75962829589844,243.60885620117188
1700076075,1.378173828125,-0.0680694580078125,-1.119842529296875,-1.186371088027954,0.8108555674552917,2.407921552658081,135.07508850097656,-53.61473083496094,244.9875946044922
1700076075,1.6302947998046875,0.0525970458984375,-1.323760986328125,-1.0087907314300537,0.6430261135101318,2.798513412475586,135.45855712890625,-56.21589660644531,245.2024688720703
1700076075,1.567169189453125,0.404632568359375,-1.197265625,-0.3530406057834625,0.7680668234825134,3.5630342960357666,135.6758270263672,-59.16754150390625,246.4030303955078
1700076075,1.3733978271484375,0.73260498046875,-0.85162353515625,0.4229842722415924,0.9316363334655762,4.351856708526611,136.20033264160156,-62.59735107421875,246.99713134765625
1700076075,1.31884765625,0.9795684814453124,-0.727691650390625,0.5671654343605042,1.0282834768295288,4.778657913208008,135.9408416748047,-66.02604675292969,248.46609497070312
1700076075,1.5659332275390625,1.1622772216796875,-0.82928466796875,-0.0349918045103549,1.164474606513977,4.815374374389648,136.118408203125,-69.51856994628906,249.75750732421875
1700076075,1.9966888427734373,1.43267822265625,-0.982452392578125,-0.3297163844108581,1.270931601524353,4.134878635406494,136.29196166992188,-73.32090759277344,251.18133544921875
1700076075,2.46063232421875,1.4256591796875,-0.7662811279296875,0.2058535665273666,1.568024516105652,3.020183801651001,135.8992462158203,-77.37626647949219,252.44155883789065
1700076075,2.493804931640625,1.015167236328125,-0.4959259033203125,0.7069709897041321,1.882282018661499,2.422517776489258,135.14016723632812,-81.74671936035156,254.2543334960937
1700076075,2.000579833984375,0.7416229248046875,-0.5229339599609375,0.6442122459411621,1.9615848064422607,2.3068950176239014,134.16717529296875,-86.11537170410156,255.99221801757807
