timestamp,acc-x,acc-y,acc-z,gyr-x,gyr-y,gyr-z,mag-x,mag-y,mag-z
1700075184,1.2487945556640625,0.70831298828125,-0.4750213623046875,1.0091066360473633,0.6180310249328613,2.233439683914185,98.8325653076172,-73.12580871582031,238.19227600097656
1700075184,1.409332275390625,0.6282196044921875,-0.4832000732421875,0.9864526987075806,0.5208352208137512,2.3382937908172607,98.4970245361328,-72.29487609863281,237.46568298339844
1700075184,1.6083984375,0.5623016357421875,-0.495391845703125,0.9189221262931824,0.3898106217384338,2.470418930053711,98.88430786132812,-72.00605773925781,237.17584228515625
1700075184,1.75860595703125,0.485015869140625,-0.48468017578125,0.8074851036071777,0.2607516944408417,2.561558246612549,98.5883331298828,-71.38633728027344,237.3211212158203
1700075184,1.8162078857421875,0.396820068359375,-0.516571044921875,0.6737523078918457,0.0849654898047447,2.58669114112854,98.3911590576172,-71.0501708984375,236.7141265869141
1700075184,1.7833251953125,0.3340301513671875,-0.5465850830078125,0.5147576332092285,-0.0830520093441009,2.532309293746948,98.2806396484375,-70.38314819335938,237.1395568847656
1700075184,1.65008544921875,0.3086700439453125,-0.5908050537109375,0.2890517711639404,-0.2286648750305175,2.3677570819854736,98.06544494628906,-69.52154541015625,236.812255859375
1700075184,1.4250030517578125,0.295623779296875,-0.6050262451171875,0.1581491529941558,-0.2580403387546539,1.9119949340820312,98.00798034667967,-69.10713195800781,236.68345642089844
1700075184,1.187225341796875,0.15582275390625,-0.5346832275390625,0.3002250790596008,-0.1619540154933929,1.2454270124435425,97.57850646972656,-68.41218566894531,236.7557678222656
1700075184,0.8741455078125,-0.05615234375,-0.46636962890625,0.037135649472475,-0.1105502098798751,1.1435827016830444,97.10704040527344,-67.52015686035156,235.84190368652344
1700075184,0.235504150390625,0.12689208984375,-0.5291595458984375,-0.6239504218101501,0.0914830416440963,0.97858864068985,96.81661987304688,-66.62855529785156,236.42282104492188
1700075184,-0.320343017578125,0.240203857421875,-0.6066131591796875,-0.6707983613014221,0.0154993310570716,0.3801292181015014,96.43145751953124,-66.31486511230469,235.894760131836
1700075184,-0.5030059814453125,0.0550994873046875,-0.2008209228515625,-0.1290916800498962,-0.2180993109941482,-0.3353726863861084,96.0195770263672,-65.07382202148438,235.28289794921875
1700075184,-0.60821533203125,-0.0915069580078125,0.24932861328125,0.3244742155075073,-0.5410699248313904,-0.9551520347595216,95.7351531982422,-64.29141235351562,235.224853515625
1700075184,-0.4334869384765625,-0.0548248291015625,0.3950042724609375,0.3563895523548126,-0.7386083006858826,-1.688767910003662,95.211669921875,-63.067474365234375,234.6823883056641
1700075184,0.07550048828125,-0.1139984130859375,0.0904693603515625,0.2604965567588806,-0.7995080947875977,-2.32539176940918,94.7213897705078,-62.31330871582031,235.0539703369141
1700075184,0.2718963623046875,-0.372344970703125,-0.0967559814453125,0.1646278351545334,-0.7897223234176636,-2.736379861831665,94.56298828125,-61.46368408203125,234.0484619140625
1700075184,0.2827911376953125,-0.51611328125,-0.07763671875,-0.0351444035768508,-0.8175275921821594,-2.9542102813720703,94.28634643554688,-60.297943115234375,234.361083984375
1700075184,0.33111572265625,-0.5165863037109375,-0.131103515625,-0.3649212419986725,-0.8436633348464966,-3.081058979034424,93.7490234375,-59.362884521484375,234.16094970703125
1700075184,0.3588409423828125,-0.3656463623046875,-0.202392578125,-0.7307152152061462,-0.790803849697113,-3.3028249740600586,93.46937561035156,-58.777679443359375,233.87274169921875
1700075184,0.404998779296875,-0.2801971435546875,-0.24835205078125,-1.0175155401229858,-0.7008398771286011,-3.540456771850586,92.89920043945312,-58.01416015625,233.3568115234375
1700075184,0.4627838134765625,-0.200653076171875,-0.2898101806640625,-1.1088947057724,-0.6252050399780273,-3.726662397384644,92.2663116455078,-56.42256164550781,233.3257598876953
1700075184,0.5319061279296875,-0.0416412353515625,-0.306732177734375,-1.0602662563323977,-0.5747746229171753,-3.8999974727630615,91.74473571777344,-55.6690673828125,233.4954833984375
1700075184,0.65234375,0.1410675048828125,-0.335662841796875,-0.9440948367118835,-0.586678147315979,-4.04220724105835,90.75169372558594,-54.846282958984375,233.0674743652344
1700075184,0.8250885009765625,0.2965850830078125,-0.3409271240234375,-0.8031481504440308,-0.719901442527771,-4.121504783630371,90.15281677246094,-53.89546203613281,233.17526245117188
1700075184,1.031463623046875,0.469757080078125,-0.234375,-0.6079242825508118,-0.9488017559051514,-4.1112260818481445,89.88922119140625,-52.84056091308594,233.5960998535156
1700075184,1.194610595703125,0.68878173828125,-0.08758544921875,-0.1716444641351699,-1.0468833446502686,-4.093991756439209,88.81527709960938,-52.01493835449219,233.11952209472656
1700075184,1.2106781005859375,0.895965576171875,-0.0872955322265625,0.6898474097251892,-1.1144447326660156,-4.218235015869141,88.27737426757812,-50.89479064941406,233.5295867919922
1700075184,1.177490234375,1.0151214599609375,-0.096435546875,1.429206132888794,-1.1258704662322998,-4.43384313583374,87.56825256347656,-49.83879089355469,234.0508270263672
1700075184,1.1671905517578125,1.0579986572265625,-0.1527862548828125,1.8195784091949463,-1.02856183052063,-4.631222248077393,86.82444763183594,-48.68843078613281,233.79644775390625
1700075184,1.103515625,1.0594940185546875,-0.29608154296875,1.911393880844116,-0.8508005738258362,-4.666860580444336,86.02964782714844,-47.73724365234375,234.0867156982422
1700075184,0.97265625,1.068389892578125,-0.4200286865234375,1.7274320125579834,-0.7697067856788635,-4.419497013092041,85.6094970703125,-47.026397705078125,234.3330078125
1700075184,0.8508148193359375,1.145416259765625,-0.4356689453125,1.4293763637542725,-0.7285305857658386,-4.120857238769531,84.82528686523438,-46.948272705078125,233.8953552246093
1700075184,0.879302978515625,1.1108551025390625,-0.38751220703125,1.0774065256118774,-0.6281669735908508,-3.9688353538513184,84.41180419921875,-46.1024169921875,233.8286895751953
1700075184,1.0649871826171875,0.8973388671875,-0.36077880859375,0.6937654614448547,-0.4600634574890136,-3.83296251296997,83.73861694335938,-45.77105712890625,234.16677856445312
1700075184,1.201446533203125,0.7166595458984375,-0.3903045654296875,0.1740378439426422,-0.4049517512321472,-3.678169012069702,83.54386901855469,-45.46331787109375,233.78453063964844
1700075184,1.2439727783203125,0.605865478515625,-0.378021240234375,-0.3171723484992981,-0.4512356221675873,-3.38110899925232,83.22543334960938,-45.583831787109375,233.9156951904297
1700075184,1.25335693359375,0.5995941162109375,-0.381988525390625,-0.5304180383682251,-0.5682455897331238,-2.979992628097534,83.00381469726562,-45.381683349609375,233.4986114501953
1700075184,1.189453125,0.623748779296875,-0.33349609375,-0.5048354864120483,-0.6794283390045166,-2.623368978500366,83.24720764160156,-45.42121887207031,234.5940704345703
1700075184,1.0761871337890625,0.6099853515625,-0.313568115234375,-0.4744711816310882,-0.7379350066184998,-2.367774486541748,83.73922729492188,-45.62187194824219,233.55230712890625
1700075184,1.0247802734375,0.568756103515625,-0.2905426025390625,-0.3634253442287445,-0.7279385924339294,-2.1812424659729004,83.94807434082031,-46.06268310546875,233.88609313964844
1700075184,1.018035888671875,0.54510498046875,-0.237274169921875,-0.1705498993396759,-0.6584671139717102,-2.085612535476685,85.08045959472656,-46.58869934082031,233.93753051757807
1700075185,1.0361785888671875,0.521148681640625,-0.1951446533203125,0.098046138882637,-0.5770809054374695,-2.0109667778015137,85.67536926269531,-47.510498046875,234.10235595703125
1700075185,1.0433197021484375,0.509185791015625,-0.170745849609375,0.3349995613098144,-0.5328497886657715,-1.938677430152893,86.60005187988281,-48.0999755859375,234.37310791015625
1700075185,1.02203369140625,0.4828033447265625,-0.17742919921875,0.6232547760009766,-0.5018977522850037,-1.7992010116577148,87.50914001464844,-49.45808410644531,234.7977294921875
1700075185,0.9877777099609376,0.4504241943359375,-0.1754150390625,0.8481733798980713,-0.4159660637378692,-1.6288909912109375,88.91717529296875,-50.3106689453125,234.96026611328125
1700075185,0.9441680908203124,0.3826751708984375,-0.2146148681640625,0.928366243839264,-0.294045478105545,-1.4587904214859009,89.62582397460938,-51.30317687988281,235.2167816162109
1700075185,0.8833160400390625,0.31011962890625,-0.2844390869140625,0.9218111038208008,-0.1654883027076721,-1.2459865808486938,90.77577209472656,-52.195098876953125,235.83241271972656
1700075185,0.8072509765625,0.2734222412109375,-0.3332672119140625,0.9086511135101318,-0.0667188391089439,-0.9745553135871888,91.85450744628906,-53.45550537109375,236.17149353027344
1700075185,0.7455596923828125,0.255950927734375,-0.354248046875,0.9690369367599488,-0.0454745404422283,-0.6795838475227356,92.66423034667967,-54.86875915527344,236.2406311035156
1700075185,0.7238616943359375,0.2349090576171875,-0.322998046875,1.0532714128494265,-0.0165848359465599,-0.3732982277870178,93.6671142578125,-55.71302795410156,236.4951019287109
1700075185,0.7100067138671875,0.2277374267578125,-0.3030548095703125,1.0863739252090454,0.1215397492051124,-0.1060023307800293,94.53419494628906,-56.84974670410156,238.0634155273437
1700075185,0.666259765625,0.2525482177734375,-0.3698577880859375,1.1437158584594729,0.2443631440401077,0.1272679418325424,95.35739135742188,-58.40509033203125,238.6003875732422
1700075185,0.6035919189453125,0.2855987548828125,-0.3982086181640625,1.2186460494995115,0.2176343202590942,0.3201271295547485,96.02708435058594,-59.89350891113281,238.8882751464844
1700075185,0.642059326171875,0.2684783935546875,-0.268402099609375,1.3069628477096558,0.2078815549612045,0.4365499019622803,97.00296020507812,-61.37855529785156,239.57823181152344
1700075185,0.74871826171875,0.153167724609375,-0.125030517578125,1.225964069366455,0.453084647655487,0.5836299061775208,98.02566528320312,-63.00068664550781,240.6558990478516
1700075185,0.799224853515625,0.0720062255859375,-0.2006988525390625,0.9600985646247864,0.8873567581176758,0.6673804521560669,98.82252502441406,-64.329833984375,241.15098571777344
1700075185,0.619659423828125,0.068450927734375,-0.607391357421875,0.807394802570343,1.1303545236587524,0.789160966873169,99.33885192871094,-65.76078796386719,241.4295959472656
1700075185,0.6143341064453125,0.0774383544921875,-0.7203216552734375,0.7090477347373962,1.5139609575271606,1.251584529876709,99.64649963378906,-66.73497009277344,242.0419464111328
1700075185,0.7824859619140625,0.3854217529296875,-0.9577484130859376,1.1423975229263306,3.485755681991577,1.829321384429932,100.54953002929688,-68.26808166503906,243.1998443603516
1700075185,0.225494384765625,0.8119049072265625,-2.534027099609375,0.9219027161598206,0.3994882702827453,3.1610987186431885,100.75729370117188,-69.89093017578125,243.6019592285156
1700075185,1.1047515869140625,1.348876953125,-0.6634979248046875,-0.8520605564117432,-1.3937722444534302,2.103725910186768,101.02580261230467,-71.81816101074219,244.4308624267578
1700075185,3.794952392578125,-0.091339111328125,0.959869384765625,-0.9345319867134094,0.5730888247489929,0.4748927652835846,100.95811462402344,-73.2706298828125,244.72645568847656
1700075185,2.7876434326171875,-1.3392333984375,0.327545166015625,-0.3177270889282226,1.996456265449524,0.6165340542793274,101.63589477539062,-74.27250671386719,245.48817443847656
1700075185,1.1732635498046875,-0.94171142578125,1.2186279296875,-0.8666378855705261,1.881837248802185,1.3081804513931274,101.8726806640625,-75.48527526855469,246.399154663086
1700075185,0.5441436767578125,-0.311920166015625,0.320831298828125,-1.431505560874939,1.17730975151062,1.7076319456100464,101.70913696289062,-76.18235778808594,246.45584106445312
1700075185,0.3924407958984375,-0.210906982421875,-0.492828369140625,-1.3392155170440674,1.0260616540908811,1.5018821954727173,101.7008819580078,-77.08563232421875,246.6030731201172
1700075185,0.713775634765625,-0.5052032470703125,-0.84149169921875,-0.6798046231269836,0.931568682193756,0.8731189370155334,101.97702026367188,-77.42570495605469,246.8111267089844
1700075185,1.3629913330078125,-0.795623779296875,-0.6396484375,0.0610130205750465,0.594982922077179,1.001515507698059,102.14166259765624,-77.84263610839844,247.4120178222656
1700075185,1.8177947998046875,-0.3430328369140625,-0.47125244140625,0.4495226740837097,0.2299567610025406,1.4532198905944824,101.88671875,-78.41036987304688,247.70330810546875
1700075185,1.9288482666015625,0.1826171875,-0.2772216796875,0.0507201701402664,-0.1860529631376266,1.6253468990325928,101.92181396484376,-79.03431701660156,247.722885131836
1700075185,1.727203369140625,0.459716796875,-0.064483642578125,-0.6753137111663818,-0.2756209373474121,1.4245730638504028,102.18254089355467,-78.91726684570312,248.07069396972656
1700075185,1.35870361328125,0.6223907470703125,-0.049224853515625,-1.0554178953170776,0.1344992220401764,1.1199966669082642,101.89767456054688,-79.27825927734375,248.495361328125
1700075185,1.1601104736328125,0.615142822265625,0.0168304443359375,-0.826383113861084,0.6194318532943726,0.8359712958335876,101.80046081542967,-79.667724609375,247.7657623291016
1700075185,1.55426025390625,0.162994384765625,0.1140899658203125,-0.4001572728157043,0.8535303473472595,0.7318457365036011,101.8819580078125,-79.5089111328125,248.25485229492188
1700075185,1.886383056640625,-0.0174407958984375,0.0407257080078125,-0.3692057430744171,0.6277299523353577,1.2449820041656494,101.28213500976562,-79.32327270507812,247.4180450439453
1700075185,1.5775909423828125,0.2326202392578125,-0.400787353515625,-0.1067043393850326,0.2530786097049713,1.5532811880111694,101.8914031982422,-79.11862182617188,247.5704498291016
1700075185,1.166168212890625,0.1458587646484375,-0.6173858642578125,0.2300161570310592,0.0620210282504558,1.305088996887207,101.47422790527344,-78.7828369140625,247.0892333984375
1700075185,0.7797698974609375,0.062225341796875,-0.5716400146484375,0.406091570854187,0.101096786558628,0.8885112404823303,101.4931182861328,-78.63192749023438,246.98085021972656
1700075185,0.469757080078125,0.2693634033203125,-0.449554443359375,0.5149336457252502,0.268159806728363,0.6471902132034302,101.43069458007812,-78.40780639648438,246.57505798339844
1700075185,0.441741943359375,0.412139892578125,-0.33270263671875,0.7289788126945496,0.2893513739109039,0.5248054265975952,101.35139465332033,-77.91963195800781,246.31838989257807
1700075185,0.7846832275390625,0.3255767822265625,-0.25274658203125,0.7571289539337158,0.2176316529512405,0.5166106224060059,101.168701171875,-77.472412109375,245.82662963867188
1700075185,1.0664520263671875,0.2461395263671875,-0.3002777099609375,0.586226761341095,0.2053896337747573,0.5079109072685242,100.5128173828125,-76.23779296875,244.65505981445312
1700075185,1.1392822265625,0.1497650146484375,-0.3565521240234375,0.3645518720149994,0.2085058093070984,0.5586787462234497,100.4346160888672,-74.85676574707031,243.90966796875
1700075185,1.088623046875,0.0598297119140625,-0.322296142578125,0.2149975299835205,0.2243886291980743,0.691509485244751,100.56549072265624,-74.86351013183594,244.55519104003903
1700075185,0.982025146484375,0.0413970947265625,-0.3473968505859375,0.1774064749479293,0.2413513660430908,0.794471263885498,101.05447387695312,-75.05442810058594,244.33775329589844
1700075185,0.935302734375,0.0294952392578125,-0.3787689208984375,0.1739302575588226,0.2417577654123306,0.8479939103126526,100.39454650878906,-74.74224853515625,243.7576904296875
1700075185,0.9058074951171876,0.0561065673828125,-0.4106903076171875,0.1446519941091537,0.2136459648609161,0.8660773038864136,99.98318481445312,-74.16290283203125,243.064208984375
1700075185,0.8351593017578125,0.176116943359375,-0.443115234375,0.1020944118499755,0.1916610449552536,0.8008372783660889,99.51361083984376,-73.51017761230469,242.02159118652344
1700075185,0.8130035400390625,0.3294830322265625,-0.40509033203125,0.1327186375856399,0.2138238698244094,0.6965670585632324,99.1806640625,-72.96878051757812,242.20106506347656
1700075185,0.836273193359375,0.431060791015625,-0.3024749755859375,0.239464521408081,0.2638092637062073,0.593402087688446,99.49319458007812,-72.92877197265625,241.64295959472656
1700075185,0.87701416015625,0.4188995361328125,-0.259613037109375,0.4412801861763,0.27369225025177,0.5733330249786377,99.092529296875,-72.37762451171875,241.22593688964844
1700075185,0.9124603271484376,0.293914794921875,-0.287200927734375,0.5589075088500977,0.3211593925952911,0.6439587473869324,98.82864379882812,-72.08158874511719,240.9863128662109
1700075185,0.9272308349609376,0.1579742431640625,-0.36053466796875,0.5950178503990173,0.3665668070316314,0.7854551672935486,98.83990478515624,-70.97438049316406,240.5597381591797
1700075185,0.9118804931640624,0.076690673828125,-0.3813934326171875,0.5717537999153137,0.4361829161643982,0.964750587940216,98.83860778808594,-70.41439819335938,241.09109497070312
1700075185,0.8952178955078125,0.0576324462890625,-0.3530120849609375,0.5214927196502686,0.5332343578338623,1.1355937719345093,98.8065185546875,-70.0357666015625,241.1251983642578
1700075185,0.9102020263671876,0.0462646484375,-0.29046630859375,0.4781908094882965,0.6049695014953613,1.2940174341201782,98.47210693359376,-69.73062133789062,241.2577514648437
1700075185,0.912109375,0.0339813232421875,-0.274566650390625,0.4983818233013153,0.6484195590019226,1.4161227941513062,98.10292053222656,-68.97615051269531,240.6401824951172
1700075185,0.8601837158203125,0.0495452880859375,-0.3545684814453125,0.6191332936286926,0.6713021993637085,1.4444868564605713,98.00796508789062,-68.43753051757812,240.5817108154297
1700075185,0.7673187255859375,0.16387939453125,-0.434600830078125,0.7442784309387207,0.7131791114807129,1.386676788330078,97.94117736816406,-68.02804565429688,240.40106201171875
1700075185,0.70880126953125,0.40069580078125,-0.4309844970703125,0.8678304553031921,0.7679312825202942,1.3100275993347168,97.91130065917967,-67.9080810546875,240.46340942382807
1700075185,0.7762908935546875,0.5971832275390625,-0.317352294921875,0.9888610243797302,0.8357726335525513,1.2780914306640625,98.16189575195312,-67.599853515625,240.29537963867188
1700075185,0.907379150390625,0.636505126953125,-0.293731689453125,1.125115990638733,0.9173705577850342,1.3453885316848757,98.23785400390624,-67.16604614257812,240.64816284179688
1700075185,1.0713348388671875,0.4512481689453125,-0.320159912109375,1.2123806476593018,1.0229241847991943,1.585520625114441,97.79605102539062,-67.24923706054688,240.56707763671875
1700075185,1.2484588623046875,0.21282958984375,-0.3755340576171875,1.1425107717514038,1.0894811153411863,1.9291200637817385,98.086669921875,-66.72438049316406,240.8496551513672
1700075185,1.553192138671875,0.0145111083984375,-0.3848724365234375,0.9772999286651612,1.181443214416504,2.288483142852783,97.8381805419922,-66.94500732421875,240.2267303466797
1700075185,1.643402099609375,-0.16644287109375,-0.506591796875,1.0625005960464478,1.274442195892334,2.7129602432250977,98.00149536132812,-66.49319458007812,240.7799224853516
1700075185,1.2302398681640625,-0.2178192138671875,-0.5785980224609375,1.1234630346298218,1.3271290063858032,2.8795173168182373,97.94377136230467,-66.47850036621094,240.434799194336
1700075185,0.8824920654296875,0.0874176025390625,-0.539276123046875,1.130461812019348,1.3549151420593262,2.7256383895874023,98.3767547607422,-66.31051635742188,240.55514526367188
1700075185,0.6314697265625,0.5342864990234375,-0.479461669921875,1.2958816289901731,1.3961405754089355,2.3546974658966064,98.1444854736328,-65.9525146484375,240.5003356933593
1700075185,0.4971923828125,0.858184814453125,-0.3794097900390625,1.638457417488098,1.4289827346801758,2.0835094451904297,98.20994567871094,-65.64602661132812,239.81707763671875
1700075185,0.69122314453125,1.0243072509765625,-0.324798583984375,1.9216309785842896,1.3896158933639526,2.015740394592285,98.2250518798828,-65.56211853027344,239.6090087890625
1700075185,1.0026397705078125,0.8697662353515625,-0.320892333984375,2.006606101989746,1.3430936336517334,2.1242823600769043,97.64065551757812,-65.09193420410156,239.6000366210937
1700075185,1.1387481689453125,0.559906005859375,-0.3534088134765625,1.890858769416809,1.3230727910995483,2.355521440505981,97.66691589355467,-64.68402099609375,240.3096160888672
1700075185,1.1281585693359375,0.347564697265625,-0.3906097412109375,1.725428819656372,1.3025637865066528,2.599167823791504,97.34016418457033,-64.15228271484375,240.34669494628903
1700075185,1.0414276123046875,0.3142852783203125,-0.4297943115234375,1.601203441619873,1.30165433883667,2.7030746936798096,97.68557739257812,-63.48876953125,239.74891662597656
1700075185,1.0462799072265625,0.3763427734375,-0.455078125,1.5587726831436155,1.2289884090423584,2.6985867023468018,97.31434631347656,-63.363677978515625,239.383544921875
1700075185,1.1142425537109375,0.4286041259765625,-0.5355072021484375,1.5565390586853027,1.0655105113983154,2.638991594314575,97.00665283203124,-62.94351196289063,239.5889129638672
1700075185,1.1571502685546875,0.4986114501953125,-0.5945281982421875,1.5656428337097168,0.9413073062896729,2.509306192398072,96.8618621826172,-62.12496948242188,239.4058074951172
1700075185,1.2070159912109375,0.4917755126953125,-0.4571075439453125,1.4755971431732178,0.7928786873817444,2.392306327819824,96.46876525878906,-61.62889099121094,239.3541259765625
1700075185,1.2582855224609375,0.448822021484375,-0.3992156982421875,1.268863320350647,0.631877601146698,2.3141655921936035,95.810302734375,-60.81977844238281,239.2427520751953
1700075185,1.2329864501953125,0.3821868896484375,-0.5006103515625,0.967367708683014,0.4950829744338989,2.193061828613281,95.77516174316406,-60.0355224609375,239.44119262695312
1700075185,1.1436004638671875,0.2943878173828125,-0.5291290283203125,0.6169508099555969,0.4793554246425628,2.008124589920044,95.54058837890624,-59.26618957519531,239.3501739501953
1700075185,0.97515869140625,0.2319488525390625,-0.618255615234375,0.4198068678379059,0.5207561254501343,1.7318017482757568,95.2357177734375,-58.36567687988281,239.168701171875
1700075185,0.761932373046875,0.166229248046875,-0.715087890625,0.4088223874568939,0.5191704630851746,1.4627302885055542,94.51406860351562,-57.523834228515625,238.9392242431641
1700075185,0.50701904296875,0.173065185546875,-0.793243408203125,0.3907413780689239,0.5309685468673706,1.1958101987838743,94.13504028320312,-56.50721740722656,238.80633544921875
1700075185,0.28143310546875,0.2444610595703125,-0.9985198974609376,0.4311452805995941,0.5784494876861572,0.7877126932144165,93.6415557861328,-55.68644714355469,238.7522430419922
1700075185,0.146087646484375,0.2619476318359375,-1.19232177734375,0.604537308216095,0.7418959736824036,0.3896348476409912,93.14901733398438,-55.03195190429688,238.5725860595703
1700075185,0.0363922119140625,0.314605712890625,-1.2288970947265625,0.8359489440917969,0.9619404077529908,-0.0828767716884613,92.54708862304688,-53.96418762207031,238.62994384765625
1700075185,-0.093292236328125,0.483734130859375,-1.0919036865234375,0.9485647082328796,1.0232900381088257,-0.8984290957450867,92.03578186035156,-52.83769226074219,238.2949676513672
1700075185,-0.079498291015625,0.669952392578125,-0.66143798828125,0.9960289001464844,0.720799446105957,-1.6803350448608398,91.43496704101562,-52.30250549316406,238.43801879882807
1700075185,0.12847900390625,0.5600433349609375,0.248291015625,1.350956678390503,0.3892081975936889,-2.32815933227539,90.78208923339844,-51.49087524414063,238.1889038085937
1700075185,0.4019317626953125,-0.2059326171875,0.7588958740234375,0.8188924789428711,0.4350348114967346,-2.8201446533203125,89.92706298828125,-49.73602294921875,238.209701538086
1700075185,0.414825439453125,-0.7380218505859375,0.289642333984375,-0.2699979245662689,0.5696826577186584,-3.028817892074585,88.99700927734375,-49.19854736328125,237.87310791015625
1700075185,0.343719482421875,-0.762786865234375,-0.2947235107421875,-1.0441924333572388,0.7026249766349792,-3.449855327606201,88.23953247070312,-48.197296142578125,237.9979705810547
1700075185,0.432220458984375,-0.749786376953125,-0.602508544921875,-1.2741034030914309,0.8391149044036865,-3.944445133209229,87.58303833007812,-46.74464416503906,237.98719787597656
1700075185,0.6165771484375,-0.77935791015625,-0.4179840087890625,-1.3710744380950928,0.8737820982933044,-4.155369281768799,87.04078674316406,-46.31568908691406,238.108154296875
1700075185,0.7888031005859375,-0.466461181640625,-0.1177520751953125,-1.229322910308838,0.8544840216636658,-4.492674827575684,86.12214660644531,-45.36741638183594,237.779296875
1700075185,0.978515625,-0.043182373046875,-0.0430908203125,-0.8575077652931213,0.7843853831291199,-4.902111053466797,85.10227966308594,-44.45089721679688,238.398193359375
1700075185,1.152862548828125,0.3276214599609375,0.10748291015625,-0.2919066846370697,0.5901429057121277,-5.221822738647461,84.569091796875,-43.394378662109375,238.5529937744141
1700075185,1.3258056640625,0.6753692626953125,0.331573486328125,0.3758982717990875,0.3909110426902771,-5.495490074157715,83.54342651367188,-42.454498291015625,238.5841217041016
1700075186,1.45538330078125,0.9337158203125,0.421783447265625,1.0365318059921265,0.3029646575450897,-5.894859790802002,82.54067993164062,-41.38603210449219,239.1123504638672
1700075186,1.549530029296875,0.94781494140625,0.3560943603515625,1.5668500661849976,0.2464313507080078,-6.132636547088623,81.63348388671875,-40.43669128417969,239.2332763671875
1700075186,1.501708984375,0.793609619140625,0.329071044921875,1.8547478914260864,0.180587351322174,-6.195082664489746,81.08616638183594,-39.76927185058594,238.96832275390625
1700075186,1.3988037109375,0.634124755859375,0.3395843505859375,1.9965673685073853,0.1156096830964088,-6.201519012451172,80.45452880859375,-39.02961730957031,239.38829040527344
1700075186,1.430755615234375,0.5120849609375,0.3436737060546875,1.930629014968872,0.0659494549036026,-6.159112930297852,79.64944458007812,-38.3480224609375,239.21246337890625
1700075186,1.5225677490234375,0.453521728515625,0.3542633056640625,1.6364961862564087,-0.0236749686300754,-6.001973628997803,79.26310729980469,-37.85466003417969,238.9504852294922
1700075186,1.612213134765625,0.48040771484375,0.3596649169921875,1.3448857069015503,-0.1691900938749313,-5.689433574676514,78.84562683105469,-37.70600891113281,239.03814697265625
1700075186,1.730072021484375,0.568115234375,0.357330322265625,1.2259206771850586,-0.3735370934009552,-5.348262310028076,78.34785461425781,-37.28462219238281,238.66946411132807
1700075186,1.856536865234375,0.6337432861328125,0.358734130859375,1.2422420978546145,-0.5793325901031494,-5.105413913726807,78.27458190917969,-37.93809509277344,238.8922119140625
1700075186,1.9125518798828125,0.700042724609375,0.3098602294921875,1.2889944314956665,-0.7302936315536499,-5.035716533660889,78.0196533203125,-37.92437744140625,238.39122009277344
1700075186,1.8828125,0.767181396484375,0.2068939208984375,1.2847185134887695,-0.8144274353981018,-5.028363227844238,78.56710815429688,-37.7757568359375,238.936752319336
1700075186,1.7925567626953125,0.856109619140625,0.1295318603515625,1.2803213596343994,-0.832653284072876,-5.067948818206787,79.21974182128906,-37.74240112304688,238.91677856445312
1700075186,1.71246337890625,0.8816070556640625,0.0917510986328125,1.3042980432510376,-0.8287528157234192,-5.076789379119873,79.9195556640625,-38.05194091796875,239.57261657714844
1700075186,1.615478515625,0.814117431640625,0.0517578125,1.2992335557937622,-0.8471928238868713,-4.981725692749023,80.923095703125,-38.536529541015625,239.2396545410156
1700075186,1.4725189208984375,0.704254150390625,0.0207061767578125,1.3987566232681274,-0.8649654388427734,-4.831660270690918,81.84933471679688,-38.77308654785156,239.42086791992188
1700075186,1.3831634521484375,0.575836181640625,0.0055389404296875,1.5055395364761353,-0.8552677631378174,-4.663870334625244,83.27690124511719,-39.55488586425781,239.4945831298828
1700075186,1.353668212890625,0.5166015625,-0.033172607421875,1.576948165893555,-0.8781954646110535,-4.501991271972656,84.23211669921875,-40.7822265625,239.5305328369141
1700075186,1.33758544921875,0.4778594970703125,-0.07012939453125,1.6778969764709473,-0.8489366769790649,-4.350858688354492,85.10578918457031,-41.63325500488281,239.5807037353516
1700075186,1.3328399658203125,0.46636962890625,-0.1105194091796875,1.751295804977417,-0.8529676198959351,-4.189667701721191,86.3624267578125,-42.73590087890625,239.42987060546875
1700075186,1.29986572265625,0.4521636962890625,-0.0760955810546875,1.7915468215942385,-0.8573498725891113,-3.964156866073608,87.54039001464844,-44.01123046875,239.0269927978516
1700075186,1.2421875,0.44488525390625,-0.0565948486328125,1.974628210067749,-0.8811313509941101,-3.6884710788726807,88.38430786132812,-45.08949279785156,238.75607299804688
1700075186,1.197052001953125,0.4515228271484375,-0.0225067138671875,2.1426923274993896,-0.911017894744873,-3.446098804473877,89.72854614257812,-46.39405822753906,238.8809051513672
1700075186,1.165771484375,0.4620513916015625,-0.02911376953125,2.3006653785705566,-0.948618233203888,-3.2159173488616943,90.84489440917967,-47.74171447753906,238.42349243164065
1700075186,1.1368408203125,0.498138427734375,-0.026580810546875,2.479146242141724,-0.9581568837165833,-2.9889039993286133,91.6904296875,-49.02032470703125,238.63162231445312
1700075186,1.1098175048828125,0.532745361328125,-0.0356292724609375,2.619545221328736,-0.9371626377105712,-2.7387235164642334,92.79475402832033,-49.90638732910156,239.23538208007807
1700075186,1.080841064453125,0.5488128662109375,-0.0681304931640625,2.7130467891693115,-0.91372948884964,-2.4653964042663574,94.17645263671876,-51.05445861816406,239.75946044921875
1700075186,1.02783203125,0.541473388671875,-0.112762451171875,2.74638032913208,-0.8772274255752563,-2.154554843902588,94.8251495361328,-51.74021911621094,240.34393310546875
1700075186,0.9526824951171876,0.543701171875,-0.1545257568359375,2.746577024459839,-0.8214091658592224,-1.8401331901550293,95.63906860351562,-53.07196044921875,240.84884643554688
1700075186,0.8847198486328125,0.52972412109375,-0.1883697509765625,2.672208786010742,-0.7161424160003662,-1.5170667171478271,96.9484405517578,-54.09288024902344,241.4780120849609
1700075186,0.8194732666015625,0.5230712890625,-0.22509765625,2.558678388595581,-0.6351668238639832,-1.175695538520813,97.4323272705078,-55.23011779785156,241.85292053222656
1700075186,0.780914306640625,0.521087646484375,-0.242218017578125,2.388436079025269,-0.5665709972381592,-0.816804826259613,98.21205139160156,-56.50244140625,241.9125061035156
1700075186,0.789031982421875,0.5195770263671875,-0.275604248046875,2.099451780319214,-0.4961729943752289,-0.4447210133075714,98.7979736328125,-57.60267639160156,242.5516815185547
1700075186,0.809295654296875,0.50506591796875,-0.3396453857421875,1.7382351160049438,-0.441650390625,-0.0483478233218193,98.97210693359376,-58.920440673828125,242.08213806152344
1700075186,0.8158416748046875,0.4921112060546875,-0.3779754638671875,1.3988267183303833,-0.390993595123291,0.3360246121883392,99.63917541503906,-60.16940307617188,242.6720733642578
1700075186,0.796661376953125,0.5048675537109375,-0.3726959228515625,1.149474859237671,-0.3275411128997803,0.6602585911750793,99.73973083496094,-61.6473388671875,242.66796875
1700075186,0.763763427734375,0.538238525390625,-0.351165771484375,0.9865778684616088,-0.2563811838626861,0.9316075444221495,100.51252746582033,-62.644134521484375,242.73944091796875
1700075186,0.7532501220703125,0.5768585205078125,-0.343994140625,0.8541138172149658,-0.1731259822845459,1.0910792350769043,100.40402221679688,-63.59494018554688,242.9075622558593
1700075186,0.8083038330078125,0.5509033203125,-0.38592529296875,0.8328791260719299,-0.0424971282482147,0.9094482064247132,100.7377471923828,-64.60856628417969,242.6139373779297
1700075186,0.926361083984375,0.2403564453125,-0.5873565673828125,0.661479115486145,0.039023034274578,0.4331961572170257,101.14398193359376,-65.61909484863281,243.28184509277344
1700075186,1.009002685546875,-0.1794586181640625,-0.705841064453125,0.6120295524597168,-0.0047047403641045,-0.8241303563117981,101.52430725097656,-66.3154296875,242.875244140625
1700075186,1.3282012939453125,-0.9080047607421876,-0.5342254638671875,0.8252973556518555,-0.1919270902872085,-1.812206029891968,101.2551727294922,-66.46597290039062,243.44680786132807
1700075186,1.4669342041015625,-1.4322357177734375,-0.341461181640625,0.8390073180198669,-0.2168667912483215,-0.3678246140480041,101.8739776611328,-67.43843078613281,243.37548828125
1700075186,1.1019287109375,-1.12396240234375,-0.782989501953125,0.8961273431777954,0.4259161651134491,1.8117852210998533,102.00892639160156,-67.99801635742188,243.17469787597656
1700075186,1.3423309326171875,-0.9561767578125,-0.930389404296875,-0.0407559499144554,0.3432170152664184,2.294774293899536,101.93717956542967,-68.48696899414062,243.6240234375
1700075186,1.953948974609375,-1.1506500244140625,-0.33380126953125,-1.5504093170166016,0.2472561299800872,2.5269312858581543,101.86631774902344,-68.45510864257812,243.6598052978516
1700075186,1.417633056640625,-0.7001953125,-0.1171722412109375,-2.469547748565674,0.3424636125564575,2.6137826442718506,101.6527862548828,-68.80787658691406,243.87518310546875
1700075186,0.6025390625,-0.2848358154296875,-0.1766510009765625,-2.2215285301208496,0.3946716785430908,2.185089111328125,101.64134216308594,-68.69668579101562,243.44073486328125
1700075186,0.284271240234375,-0.215789794921875,-0.131378173828125,-1.0878187417984009,0.5251652598381042,1.52379047870636,101.32838439941406,-68.56893920898438,243.3268280029297
1700075186,0.3042449951171875,-0.0756988525390625,-0.2869873046875,-0.3747946321964264,0.7833461761474609,1.3651310205459597,101.47413635253906,-68.677734375,243.24891662597656
1700075186,0.5807952880859375,0.2656707763671875,-0.4567718505859375,0.1425797790288925,0.6408071517944336,1.615175485610962,101.15695190429688,-68.60140991210938,243.1778564453125
1700075186,1.0025482177734375,0.5886688232421875,-0.2393798828125,0.6342675089836121,0.4305061101913452,1.5962350368499756,101.58563232421876,-67.94670104980469,243.31837463378903
1700075186,1.4160614013671875,0.6756744384765625,-0.2708587646484375,1.1805201768875122,0.3284585773944855,1.1772146224975586,101.50788879394533,-67.2098388671875,243.3617706298828
1700075186,1.5278167724609375,0.6066741943359375,-0.3918609619140625,1.6246017217636108,0.2657429873943329,0.7957634329795837,101.22731018066406,-66.91670227050781,243.09552001953125
1700075186,1.2917327880859375,0.532501220703125,-0.35028076171875,2.0574252605438232,0.3040035665035248,0.5529230833053589,100.78024291992188,-66.4432373046875,242.27813720703125
1700075186,1.023712158203125,0.3350830078125,-0.2973480224609375,2.3077197074890137,0.3421251177787781,0.4051474928855896,99.95028686523438,-65.958984375,241.90252685546875
1700075186,0.897552490234375,0.1215972900390625,-0.2743072509765625,2.307545661926269,0.3329132497310638,0.28582563996315,99.3936767578125,-65.14773559570312,241.27362060546875
1700075186,0.90386962890625,-0.0537872314453125,-0.20843505859375,1.95473062992096,0.3409080505371094,0.2183011770248413,98.39894104003906,-63.9039306640625,239.84814453125
1700075186,0.9405670166015624,-0.172760009765625,-0.187469482421875,1.2404402494430542,0.4143157005310058,0.2888467013835907,98.16827392578124,-62.54209899902344,239.64498901367188
1700075186,0.936676025390625,-0.160003662109375,-0.3575592041015625,0.5931730270385742,0.4310171604156494,0.3349625468254089,98.13888549804688,-62.49568176269531,240.3159637451172
1700075186,0.977325439453125,-0.1838531494140625,-0.485565185546875,0.3333494663238525,0.4023770093917846,0.4056092798709869,98.35145568847656,-62.619537353515625,240.6534881591797
1700075186,0.9486236572265624,-0.146209716796875,-0.6435394287109375,0.2105087637901306,0.1658281087875366,0.4477325081825256,97.60774230957033,-62.4232177734375,239.05471801757807
1700075186,0.9620819091796876,-0.100799560546875,-0.67144775390625,0.1486339420080185,0.0035345472861081,0.4597217738628387,96.73585510253906,-62.12947082519531,238.8056182861328
1700075186,0.9634246826171876,-0.0672454833984375,-0.595001220703125,0.2880112826824188,-0.0230286195874214,0.4132184684276581,96.30574035644533,-61.83758544921875,238.3706817626953
1700075186,0.9185638427734376,-0.01617431640625,-0.46826171875,0.4780389964580536,-0.0096891121938824,0.3314301371574402,95.30012512207033,-61.62660217285156,237.9546813964844
1700075186,0.9041748046875,0.0392608642578125,-0.3998870849609375,0.6526869535446167,-0.0203036740422248,0.2480904906988144,95.33992004394533,-61.56704711914063,237.077880859375
1700075186,0.947174072265625,0.0695648193359375,-0.3699188232421875,0.7457814812660217,-0.0196099206805229,0.1811612695455551,94.78352355957033,-61.03736877441406,237.05929565429688
1700075186,0.977142333984375,0.074462890625,-0.3589324951171875,0.7983059883117676,-0.0074768248014152,0.1465367078781128,94.6334991455078,-60.300811767578125,237.2057342529297
1700075186,0.9575042724609376,0.064605712890625,-0.3572845458984375,0.8372349739074707,0.0072826803661882,0.0985814332962036,95.0224609375,-60.00032043457031,236.888427734375
1700075186,0.964691162109375,0.016754150390625,-0.3334503173828125,0.7721593379974365,0.0099775325506925,0.0635614022612571,94.3359832763672,-59.679290771484375,236.7653045654297
1700075186,0.9749908447265624,-0.0717315673828125,-0.284210205078125,0.656165599822998,0.0010349043877795,0.1246860027313232,94.14707946777344,-59.41056823730469,236.59043884277344
1700075186,0.927825927734375,-0.1278228759765625,-0.2902069091796875,0.5753381252288818,0.0098803276196122,0.1950368732213974,93.94326782226562,-59.38600158691406,236.35289001464844
1700075186,0.8979949951171875,-0.160491943359375,-0.4041748046875,0.5052841901779175,-0.0210877079516649,0.1938115507364273,93.5703125,-59.4136962890625,235.9410095214844
1700075186,0.9173583984375,-0.207244873046875,-0.4935150146484375,0.4819043278694153,-0.0804551616311073,0.253364622592926,93.06903076171876,-59.18864440917969,235.62762451171875
1700075186,0.8992462158203125,-0.1558837890625,-0.471099853515625,0.469631940126419,-0.1299891620874405,0.2977158427238464,93.13687133789062,-58.18292236328125,235.1627655029297
1700075186,0.8867340087890625,-0.07733154296875,-0.4580535888671875,0.433097094297409,-0.1730580627918243,0.2778840661048889,92.93687438964844,-57.98167419433594,235.30162048339844
1700075186,0.8956451416015625,-0.022430419921875,-0.4399871826171875,0.3909754753112793,-0.1955793499946594,0.2549348175525665,92.45849609375,-57.769775390625,235.47720336914065
1700075186,0.8889007568359375,0.0520782470703125,-0.4302215576171875,0.3217889666557312,-0.2129972279071808,0.1868750751018524,92.42713928222656,-57.49224853515625,234.7916412353516
1700075186,0.9313812255859376,0.0703582763671875,-0.41571044921875,0.2365555465221405,-0.2176329940557479,0.1341370344161987,92.21249389648438,-57.0367431640625,235.4017791748047
1700075186,0.96185302734375,0.04986572265625,-0.3831787109375,0.2017088830471038,-0.2143461108207702,0.144837886095047,91.888427734375,-56.599395751953125,235.3550262451172
1700075186,0.945587158203125,0.0200042724609375,-0.368255615234375,0.2343685626983642,-0.2079361528158188,0.1880932003259658,92.17697143554688,-56.31105041503906,235.32379150390625
1700075186,0.9345245361328124,-0.0023193359375,-0.3582763671875,0.3266244530677795,-0.2040202468633651,0.1943114250898361,91.3832550048828,-55.98722839355469,235.2180938720703
1700075186,0.957550048828125,-0.020599365234375,-0.3152008056640625,0.4282445609569549,-0.1880268901586532,0.1962502002716064,91.58665466308594,-55.497161865234375,235.1304626464844
1700075186,0.978118896484375,-0.002716064453125,-0.2548980712890625,0.5352594256401062,-0.1634832024574279,0.1844116598367691,91.30799865722656,-55.473052978515625,234.50201416015625
1700075186,0.974456787109375,0.022186279296875,-0.2544097900390625,0.6233056783676147,-0.131781205534935,0.1774901002645492,91.2675323486328,-55.18280029296875,234.9045867919922
1700075186,0.9546966552734376,0.042877197265625,-0.3035430908203125,0.6836675405502319,-0.1087525784969329,0.1723054498434066,90.97508239746094,-54.59394836425781,235.3663330078125
1700075186,0.951080322265625,0.034332275390625,-0.306610107421875,0.6995362639427185,-0.0841132774949073,0.1831327974796295,90.68710327148438,-54.66958618164063,234.9476318359375
1700075186,0.951751708984375,-0.005889892578125,-0.3026275634765625,0.7046111822128296,-0.058778628706932,0.2297069579362869,90.77191162109376,-53.95079040527344,235.05093383789065
1700075186,0.947479248046875,-0.076629638671875,-0.3087615966796875,0.6975988149642944,-0.0389122441411018,0.2981280982494354,90.58381652832033,-53.828369140625,234.9898223876953
1700075186,0.9398956298828124,-0.1419830322265625,-0.3401641845703125,0.6307041645050049,-0.0356501378118991,0.3839990496635437,90.32942199707033,-53.44975280761719,234.9994659423828
1700075186,0.920623779296875,-0.1661834716796875,-0.38323974609375,0.5610548257827759,-0.0280428193509578,0.466680109500885,89.88002014160156,-53.15318298339844,234.6199645996093
1700075186,0.8944854736328125,-0.1595306396484375,-0.3988494873046875,0.5314362049102783,-0.0087519465014338,0.5352980494499207,89.93942260742188,-53.019866943359375,234.18994140625
1700075186,0.8716278076171875,-0.1259002685546875,-0.3715057373046875,0.4936246275901794,0.0147219542413949,0.5873852372169495,89.33625793457031,-52.615997314453125,233.98385620117188
1700075186,0.8759918212890625,-0.0635528564453125,-0.3430328369140625,0.4467977285385132,0.0484085455536842,0.6173340678215027,88.80178833007812,-52.09886169433594,234.2278289794922
1700075186,0.8890838623046875,0.00555419921875,-0.3314971923828125,0.4312350153923034,0.0930303409695625,0.6228790283203125,88.40298461914062,-51.58659362792969,233.84127807617188
1700075186,0.9038848876953124,0.044525146484375,-0.32037353515625,0.4855166375637054,0.1387349814176559,0.6227386593818665,87.86285400390625,-51.11674499511719,234.0672302246093
1700075186,0.911041259765625,0.0575103759765625,-0.29974365234375,0.5611016750335693,0.1759742200374603,0.6372246742248535,87.63729858398438,-50.37239074707031,234.0465850830078
1700075186,0.9177093505859376,0.078094482421875,-0.2759857177734375,0.573002278804779,0.2174886465072631,0.663932740688324,86.70295715332031,-49.55912780761719,233.5079040527344
1700075186,0.9320220947265624,0.0984649658203125,-0.2806243896484375,0.5537723898887634,0.2548067271709442,0.6813167333602905,86.2227783203125,-48.984466552734375,233.3917694091797
1700075186,0.9473724365234376,0.0716552734375,-0.307830810546875,0.5501257181167603,0.2925455868244171,0.6978310346603394,85.52870178222656,-48.600372314453125,233.6390380859375
1700075186,0.955322265625,0.011138916015625,-0.3278350830078125,0.5616558790206909,0.3167912662029266,0.7384181022644043,85.07571411132812,-47.40562438964844,234.2202911376953
1700075187,0.95660400390625,-0.03515625,-0.3455352783203125,0.594592273235321,0.3273570835590362,0.7859662175178528,84.54618835449219,-46.90692138671875,234.22120666503903
1700075187,0.964080810546875,-0.0388946533203125,-0.37811279296875,0.6089397668838501,0.3369346261024475,0.8069345951080322,83.76904296875,-46.291107177734375,233.73028564453125
1700075187,0.9728851318359376,0.0026397705078125,-0.397979736328125,0.6823098659515381,0.35504812002182,0.8072171807289124,82.64497375488281,-45.3275146484375,233.28973388671875
1700075187,0.961883544921875,0.0802001953125,-0.37957763671875,0.7384927272796631,0.37417733669281,0.7933415770530701,81.45758056640625,-44.09979248046875,233.3504943847656
1700075187,0.9445648193359376,0.1837615966796875,-0.3622894287109375,0.7829986214637756,0.3826736211776733,0.7691563367843628,80.41395568847656,-43.554046630859375,233.14407348632807
1700075187,0.9573211669921876,0.265655517578125,-0.3340301513671875,0.8110523819923401,0.3939749896526336,0.7404599785804749,79.07582092285156,-42.60382080078125,233.4980010986328
1700075187,0.97625732421875,0.2911529541015625,-0.3360137939453125,0.8664557337760925,0.4054116904735565,0.7164060473442078,77.79106140136719,-41.719268798828125,233.2796325683593
1700075187,0.9798431396484376,0.2493438720703125,-0.332855224609375,0.896236002445221,0.4135628044605255,0.7247846126556396,76.62864685058594,-40.73173522949219,233.5843200683593
1700075187,0.984375,0.1923675537109375,-0.321502685546875,0.92702454328537,0.4215504229068756,0.7983536124229431,75.38031005859375,-39.93121337890625,234.32379150390625
1700075187,0.9941864013671876,0.161163330078125,-0.3015899658203125,0.8987606763839722,0.4136416316032409,0.8963033556938171,74.66935729980469,-38.97502136230469,234.4441833496093
1700075187,1.05108642578125,0.14837646484375,-0.247833251953125,0.766372561454773,0.4736461341381073,0.9930387139320374,73.28370666503906,-37.97120666503906,234.9613494873047
1700075187,1.0714569091796875,0.125701904296875,-0.2458648681640625,0.7279266119003296,0.5599088668823242,1.0846282243728638,71.82806396484375,-36.97483825683594,235.1338653564453
1700075187,1.0534820556640625,0.0943450927734375,-0.3008575439453125,0.8371950387954712,0.6198734045028687,1.1845308542251587,70.42149353027344,-36.436767578125,235.0263061523437
1700075187,1.065460205078125,0.078826904296875,-0.3139801025390625,0.9781596064567566,0.69300377368927,1.2753593921661377,68.89706420898438,-35.56385803222656,235.8574676513672
1700075187,1.10498046875,0.0752716064453125,-0.26531982421875,1.0995733737945557,0.7579995393753052,1.3665361404418943,67.86824035644531,-34.71092224121094,236.7186737060547
1700075187,1.1597747802734375,0.08135986328125,-0.2116851806640625,1.2460699081420898,0.8105996251106262,1.4261398315429688,66.19320678710938,-34.20887756347656,236.6191253662109
1700075187,1.28900146484375,0.060028076171875,-0.1840362548828125,1.385184407234192,0.8332868814468384,1.522513747215271,65.25770568847656,-33.65855407714844,237.5037384033203
1700075187,1.4319915771484375,0.0350494384765625,-0.18658447265625,1.5135098695755005,0.8238150477409363,1.64802348613739,64.02285766601562,-33.23487854003906,237.5541534423828
1700075187,1.57720947265625,0.0081329345703125,-0.1791534423828125,1.7839277982711792,0.8918486833572388,1.7124745845794678,62.72573852539063,-33.037933349609375,237.39015197753903
1700075187,1.7151641845703125,-0.083892822265625,-0.11968994140625,2.04852294921875,0.9640315771102904,1.8262780904769893,61.90020751953125,-32.46392822265625,237.65480041503903
1700075187,1.7600555419921875,-0.131683349609375,-0.0480499267578125,2.0593042373657227,1.065767526626587,2.0062825679779053,60.89842224121094,-32.43003845214844,237.9907989501953
1700075187,1.7371978759765625,-0.1128082275390625,-0.0585479736328125,1.8057345151901243,1.13998281955719,2.252804756164551,60.11636352539063,-32.41047668457031,238.68942260742188
1700075187,1.664276123046875,-0.0515594482421875,-0.0791015625,1.7242127656936646,1.2464627027511597,2.261988401412964,59.25776672363281,-32.26397705078125,238.6129150390625
1700075187,1.6480255126953125,-0.11346435546875,-0.129180908203125,1.8875244855880733,1.3515262603759766,2.0413308143615723,58.295989990234375,-32.368499755859375,239.14898681640625
1700075187,1.560272216796875,-0.162384033203125,-0.2974090576171875,2.2625882625579834,1.2782951593399048,1.808671951293945,57.804718017578125,-32.27561950683594,239.26173400878903
1700075187,1.3156280517578125,-0.055084228515625,-0.490020751953125,2.776323080062866,1.037140965461731,1.637075424194336,57.16993713378906,-32.20635986328125,239.3537750244141
1700075187,1.012420654296875,0.13616943359375,-0.7249755859375,3.1853787899017334,0.965729832649231,1.4761691093444824,56.73516845703125,-31.768310546875,240.18804931640625
1700075187,0.824371337890625,0.3336944580078125,-1.059051513671875,2.9164934158325195,1.0333014726638794,1.2776517868041992,56.99589538574219,-31.872955322265625,240.3485107421875
1700075187,0.69989013671875,0.4936065673828125,-1.3037872314453125,2.376149177551269,1.2041703462600708,0.977152705192566,57.69239807128906,-31.631668090820312,240.37925720214844
1700075187,0.628570556640625,0.5981292724609375,-1.2504425048828125,2.061578750610352,1.3755128383636477,0.4804483652114868,58.61813354492188,-31.45782470703125,241.005615234375
1700075187,0.6051177978515625,0.589385986328125,-0.919952392578125,2.149003028869629,1.4826555252075195,-0.1273281276226043,59.28829956054688,-31.69830322265625,241.31304931640625
1700075187,0.59234619140625,0.406158447265625,-0.6063690185546875,2.325270891189575,1.4753832817077637,-0.6610298752784729,60.05589294433594,-31.749664306640625,240.83914184570312
1700075187,0.5587005615234375,0.117706298828125,-0.447906494140625,2.465245485305786,1.41042160987854,-1.142566442489624,60.946624755859375,-32.4591064453125,240.50369262695312
1700075187,0.516754150390625,-0.1456146240234375,-0.2549591064453125,2.627227067947388,1.3345531225204468,-1.4941295385360718,61.881591796875,-32.90480041503906,239.7244415283203
1700075187,0.4418487548828125,-0.3337554931640625,-0.0417633056640625,2.7189321517944336,1.2615162134170532,-1.6606135368347168,62.72154235839844,-33.390625,239.3932037353516
1700075187,0.3356781005859375,-0.404083251953125,0.01806640625,2.633028745651245,1.1991015672683716,-1.7737427949905396,63.61570739746094,-33.72187805175781,238.8360290527344
1700075187,0.305328369140625,-0.41094970703125,-0.0285186767578125,2.368723630905152,1.1547585725784302,-2.022188186645508,64.81498718261719,-34.35929870605469,238.9328765869141
1700075187,0.38433837890625,-0.3311004638671875,-0.0167999267578125,2.045478343963623,1.125157594680786,-2.26370906829834,65.9591064453125,-34.48808288574219,239.1282653808593
1700075187,0.4646453857421875,-0.15533447265625,0.052978515625,1.7360918521881104,1.0743197202682495,-2.4492971897125244,68.14723205566406,-34.28886413574219,239.82369995117188
1700075187,0.5392913818359375,0.0478515625,0.0850372314453125,1.4648232460021973,0.9658510088920592,-2.6123569011688232,68.94500732421875,-34.54437255859375,240.6875457763672
1700075187,0.63690185546875,0.223388671875,0.10498046875,1.2458184957504272,0.8086486458778381,-2.817676544189453,70.83052062988281,-34.34745788574219,240.9461212158203
1700075187,0.74981689453125,0.28900146484375,0.134613037109375,1.1053476333618164,0.6650927662849426,-3.109950065612793,72.54397583007812,-34.527984619140625,241.586654663086
1700075187,0.8427581787109375,0.2257843017578125,0.1495513916015625,0.9101467728614808,0.5422472953796387,-3.359604358673096,74.21647644042969,-34.19273376464844,242.0956268310547
1700075187,0.863250732421875,0.134521484375,0.1436920166015625,0.6048219799995422,0.4172734022140503,-3.5064518451690674,76.15763854980469,-34.35368347167969,242.95884704589844
1700075187,0.8372955322265625,0.074310302734375,0.1240692138671875,0.3170426785945892,0.3116026222705841,-3.559620857238769,77.57695007324219,-34.716522216796875,243.3620147705078
1700075187,0.7989349365234375,0.0510101318359375,0.0904693603515625,0.1300080716609954,0.2084554731845855,-3.590142011642456,79.64268493652344,-34.950347900390625,243.7633819580078
1700075187,0.7821502685546875,0.0589752197265625,0.05902099609375,0.0482556782662868,0.0983033999800682,-3.684493780136109,81.3629150390625,-34.6708984375,245.0745849609375
1700075187,0.8157806396484375,0.095458984375,0.0270538330078125,0.0332295931875705,-0.0135445706546306,-3.823244333267212,82.99386596679688,-34.87040710449219,244.98452758789065
1700075187,0.8796539306640625,0.1676025390625,0.0300140380859375,0.1008981168270111,-0.1679815500974655,-3.887622117996216,85.37271118164062,-35.31935119628906,245.89898681640625
1700075187,0.9430694580078124,0.3075408935546875,0.120147705078125,0.1804528683423996,-0.3331561088562011,-3.841650247573853,87.11357116699219,-35.50471496582031,246.00509643554688
1700075187,1.013641357421875,0.514068603515625,0.201934814453125,0.2888400554656982,-0.4814630448818207,-3.752274751663208,89.52507019042969,-36.15524291992188,247.207763671875
1700075187,1.0913848876953125,0.684906005859375,0.1907806396484375,0.5143077969551086,-0.6255711913108826,-3.7390658855438232,91.78269958496094,-37.39398193359375,246.8319396972656
1700075187,1.170257568359375,0.732391357421875,0.139923095703125,0.8226253986358643,-0.7520804405212402,-3.8413686752319336,94.13742065429688,-37.950042724609375,247.95962524414065
1700075187,1.2378387451171875,0.7081298828125,0.0764923095703125,1.0139175653457642,-0.8624814748764038,-3.933804273605346,96.28652954101562,-38.843841552734375,248.7801818847656
1700075187,1.2624969482421875,0.6983489990234375,0.007049560546875,0.9409603476524352,-0.945996105670929,-4.017697811126709,98.2873077392578,-39.80827331542969,249.05416870117188
1700075187,1.2703399658203125,0.658050537109375,-0.095611572265625,0.7667256593704224,-1.045902132987976,-4.027333736419678,100.17570495605467,-40.81455993652344,250.0274810791016
1700075187,1.25262451171875,0.614105224609375,-0.1308441162109375,0.4918248653411865,-1.1248401403427124,-3.9504473209381104,101.84779357910156,-41.82240295410156,250.80946350097656
1700075187,1.2127532958984375,0.6003265380859375,-0.1533966064453125,0.1995743662118911,-1.1650727987289429,-3.78115439414978,103.93107604980467,-43.07354736328125,252.0033721923828
1700075187,1.1708221435546875,0.6173553466796875,-0.1689453125,0.0927392542362213,-1.1691434383392334,-3.486332893371582,105.85246276855467,-44.09962463378906,252.5505523681641
1700075187,1.1803131103515625,0.6611785888671875,-0.177215576171875,0.1332829594612121,-1.2099803686141968,-3.17602014541626,107.44189453125,-45.31394958496094,253.454345703125
1700075187,1.24603271484375,0.6838226318359375,-0.1984405517578125,0.2834815084934234,-1.243894100189209,-2.9121694564819336,108.51545715332033,-46.39631652832031,254.3968505859375
1700075187,1.3053741455078125,0.708160400390625,-0.265045166015625,0.3887035250663757,-1.2592309713363647,-2.742863655090332,109.81478881835938,-47.69953918457031,255.3794708251953
1700075187,1.314697265625,0.7275543212890625,-0.3243255615234375,0.3718366622924804,-1.2013291120529177,-2.560784101486206,111.31781005859376,-48.64753723144531,256.0884094238281
1700075187,1.1950225830078125,0.769287109375,-0.333770751953125,0.3923102617263794,-1.0566147565841677,-2.2979040145874023,112.2484893798828,-49.98980712890625,257.123779296875
1700075187,0.98321533203125,0.7962799072265625,-0.32794189453125,0.4715179800987243,-0.8482511639595032,-1.9373199939727783,113.40065002441406,-50.41746520996094,257.9974365234375
1700075187,0.7737884521484375,0.763763427734375,-0.32586669921875,0.5337507128715515,-0.6569059491157532,-1.5257049798965454,114.13882446289062,-51.15657043457031,259.1216735839844
1700075187,0.6558837890625,0.679046630859375,-0.3060455322265625,0.5689913034439087,-0.5072144865989685,-1.1113286018371582,114.72305297851562,-52.024658203125,259.80474853515625
1700075187,0.626434326171875,0.579803466796875,-0.2690277099609375,0.6246143579483032,-0.3633779287338257,-0.6946938037872314,115.40914916992188,-52.83332824707031,260.4501342773437
1700075187,0.6475067138671875,0.48162841796875,-0.23040771484375,0.7203326225280762,-0.2500846683979034,-0.3188727796077728,115.87423706054688,-53.288360595703125,261.302978515625
1700075187,0.700653076171875,0.422821044921875,-0.1915283203125,0.8368632197380066,-0.171752855181694,-0.0031955270096659,116.54791259765624,-52.999786376953125,262.189208984375
1700075187,0.739044189453125,0.4158172607421875,-0.15472412109375,0.954598903656006,-0.1133481264114379,0.2333922386169433,116.61907958984376,-52.94474792480469,262.532470703125
1700075187,0.7456207275390625,0.4061431884765625,-0.1255950927734375,1.0526248216629028,-0.0623142421245574,0.4146848022937774,116.6703643798828,-52.91471862792969,262.7378845214844
1700075187,0.7355194091796875,0.344635009765625,-0.0925445556640625,1.1342597007751465,-0.0141048999503254,0.5426901578903198,116.98558044433594,-52.10545349121094,263.4644775390625
1700075187,0.7469635009765625,0.24163818359375,-0.0611419677734375,1.170534372329712,-0.000638626050204,0.613131582736969,116.85366821289062,-51.804931640625,264.07183837890625
1700075187,0.7583160400390625,0.1421051025390625,-0.033111572265625,1.1603949069976809,-0.0030972564127296,0.6418705582618713,116.98292541503906,-51.0347900390625,264.26171875
1700075187,0.7508392333984375,0.064300537109375,-0.017578125,1.1403738260269165,-0.0156042594462633,0.6349697709083557,116.77375793457033,-50.57550048828125,264.03741455078125
1700075187,0.730926513671875,0.0048065185546875,0.0027008056640625,1.0937753915786743,-0.0212115459144115,0.5951405763626099,116.7091064453125,-50.07554626464844,264.18084716796875
1700075187,0.72314453125,-0.04339599609375,0.02703857421875,0.8529822826385498,-0.0318514071404933,0.6030983924865723,116.82606506347656,-50.01364135742188,263.8642578125
1700075187,0.7447052001953125,-0.0228271484375,-0.02215576171875,0.5413513779640198,0.0117986025288701,0.5191664695739746,117.60362243652344,-50.874755859375,264.61834716796875
1700075187,0.750946044921875,-0.106292724609375,-0.129791259765625,0.1975024193525314,0.0589639842510223,0.5318534970283508,118.146484375,-50.902099609375,265.12506103515625
1700075187,0.7593536376953125,-0.144927978515625,-0.2059326171875,-0.2564485669136047,0.043227631598711,0.6582239866256714,117.63929748535156,-49.91046142578125,264.9991455078125
1700075187,0.7827911376953125,-0.1220245361328125,-0.228729248046875,-0.5959779024124146,-0.0591637194156646,0.7051904201507568,117.7881317138672,-48.97007751464844,264.60235595703125
1700075187,0.78582763671875,-0.16558837890625,-0.1804046630859375,-0.7149639129638672,-0.10337645560503,0.7321442365646362,117.24911499023438,-48.16383361816406,264.08404541015625
1700075187,0.7867279052734375,-0.2159271240234375,-0.1152191162109375,-0.8374424576759338,-0.0083005400374531,0.8087479472160339,117.00755310058594,-46.82241821289063,263.0350952148437
1700075187,0.745361328125,-0.1799163818359375,-0.1985321044921875,-1.0631301403045654,0.3200272619724273,0.996666431427002,116.8986358642578,-45.8011474609375,262.7533874511719
1700075187,0.6335296630859375,-0.055450439453125,-0.5154571533203125,-1.378618836402893,0.9682172536849976,1.1231272220611572,116.5338134765625,-45.03314208984375,261.5692443847656
1700075187,0.433624267578125,0.0999755859375,-1.1400909423828125,-1.095728635787964,0.919405996799469,1.5134140253067017,116.4483642578125,-44.33541870117188,260.8392944335937
1700075187,0.3240814208984375,0.324676513671875,-1.0599517822265625,-0.5352250933647156,2.348546504974365,2.129354238510132,116.2117156982422,-43.6627197265625,259.99530029296875
1700075187,0.3018035888671875,0.69451904296875,-2.0625152587890625,0.8506679534912109,3.569324493408203,3.00790810585022,115.66389465332033,-42.46896362304688,260.71221923828125
1700075187,-0.3349456787109375,1.48822021484375,-3.994232177734375,-0.1165718883275985,-2.252986431121826,3.680015563964844,115.3612060546875,-41.53038024902344,260.39703369140625
1700075187,2.8225860595703125,1.4694366455078125,1.18792724609375,-0.6347617506980896,-0.0898156389594078,1.0613586902618408,115.03799438476562,-41.20831298828125,260.6824951171875
1700075187,4.0070648193359375,-1.032470703125,0.3280487060546875,1.4853945970535278,2.3718197345733643,-0.434443324804306,115.11727905273438,-40.90182495117188,260.7142333984375
1700075187,1.956756591796875,-1.568511962890625,0.9240875244140624,1.7996052503585815,2.192825555801392,-0.3551168143749237,115.355712890625,-40.48081970214844,261.41131591796875
1700075187,1.00408935546875,-0.53961181640625,0.5981903076171875,0.4792611300945282,1.1580071449279783,0.3711788654327392,114.96054077148438,-40.15826416015625,261.83892822265625
1700075187,0.5437164306640625,-0.0302276611328125,-0.498077392578125,-0.6006299257278442,0.4518921077251434,0.893993079662323,115.07232666015624,-40.05595397949219,262.82537841796875
1700075187,0.561676025390625,-0.2656097412109375,-0.67596435546875,-0.6613838076591492,0.4527403116226196,0.6060294508934021,114.8600616455078,-39.89393615722656,262.4237060546875
1700075187,1.17462158203125,-0.7566070556640625,-0.2179718017578125,-0.328756034374237,0.4765412509441376,0.6326442956924438,114.65408325195312,-39.35641479492188,262.8085632324219
1700075187,1.6968994140625,-0.631195068359375,0.168121337890625,-0.683447539806366,0.450996994972229,1.246131181716919,114.53977966308594,-38.99578857421875,262.4835205078125
1700075187,1.8847503662109373,0.036956787109375,0.1096954345703125,-1.0475685596466064,0.24421426653862,1.669700026512146,114.46888732910156,-38.92729187011719,262.8694763183594
1700075188,1.9554290771484373,0.395782470703125,0.2315673828125,-1.5601847171783447,0.2107830792665481,1.5634821653366089,114.32823181152344,-38.84660339355469,262.4628295898437
1700075188,1.8403472900390625,0.4352569580078125,0.2528228759765625,-1.778496026992798,0.6050289273262024,1.1651132106781006,114.67658996582033,-38.6156005859375,263.1624755859375
1700075188,1.830718994140625,0.13348388671875,0.025726318359375,-0.9365341663360596,0.945916712284088,0.7457327842712402,114.16470336914062,-38.05026245117188,263.3185729980469
1700075188,1.8524169921875,-0.253448486328125,-0.1451263427734375,-0.0724214687943458,0.8029193878173828,1.0063576698303225,114.272216796875,-38.32185363769531,263.4769287109375
1700075188,1.498138427734375,-0.0969085693359375,-0.4818878173828125,0.4261726140975952,0.4031120240688324,1.4413381814956665,114.28756713867188,-38.14378356933594,263.71453857421875
1700075188,1.1152191162109375,0.1186065673828125,-0.6750640869140625,0.5393947958946228,-0.0934543162584304,1.231173753738403,114.16575622558594,-38.16139221191406,264.3912658691406
1700075188,0.863983154296875,0.2078857421875,-0.666229248046875,0.3885954022407532,-0.4544322192668915,0.6825562119483948,114.154541015625,-38.09611511230469,263.8870849609375
1700075188,0.744720458984375,0.438323974609375,-0.5906219482421875,0.2460076361894607,-0.3810003399848938,0.2285380959510803,113.92961120605467,-38.0693359375,264.2419738769531
1700075188,0.74310302734375,0.762542724609375,-0.2671356201171875,0.0394739061594009,-0.1602210998535156,-0.1155455037951469,114.09577941894533,-38.138427734375,264.95068359375
1700075188,0.8000946044921875,0.9137420654296876,-0.0565948486328125,0.1940863877534866,-0.0491004325449466,-0.428128719329834,113.85948181152344,-37.870513916015625,264.7674560546875
1700075188,0.9884796142578124,0.5735931396484375,-0.224639892578125,0.2415367215871811,-0.1468112766742706,-0.507103681564331,113.9421844482422,-37.464447021484375,264.568603515625
1700075188,1.054962158203125,0.31298828125,-0.4059600830078125,0.1101376861333847,-0.270399272441864,-0.4136781394481659,113.79319763183594,-37.35731506347656,265.311767578125
1700075188,1.0596466064453125,0.1320648193359375,-0.4410400390625,-0.0829681232571601,-0.2768358588218689,-0.2693768739700317,113.5181884765625,-37.41143798828125,265.80078125
1700075188,1.061187744140625,-0.063323974609375,-0.3437652587890625,-0.2117260992527008,-0.2107716202735901,-0.0911362990736961,113.8026885986328,-36.9737548828125,265.7373962402344
1700075188,1.0066070556640625,-0.2020416259765625,-0.2190093994140625,-0.2198644578456878,-0.1197301298379898,0.0950551405549049,113.33424377441406,-36.85829162597656,266.1869506835937
1700075188,0.906982421875,-0.23797607421875,-0.197113037109375,-0.0403463579714298,-0.0387391410768032,0.2129804491996765,113.62809753417967,-37.223388671875,265.7059326171875
1700075188,0.847869873046875,-0.18035888671875,-0.224090576171875,0.1682332158088684,0.0020378509070724,0.3087735474109649,113.3134307861328,-36.86921691894531,265.83270263671875
1700075188,0.8160858154296875,-0.054290771484375,-0.241058349609375,0.2800382971763611,0.0541103743016719,0.3709636926651001,113.34661865234376,-37.10057067871094,266.4855651855469
1700075188,0.8221893310546875,0.0105133056640625,-0.2535400390625,0.3384329080581665,0.1110519543290138,0.4485133290290832,113.24577331542967,-36.79612731933594,266.06353759765625
1700075188,0.8599090576171875,-0.0028076171875,-0.223052978515625,0.3110367059707641,0.1721744239330291,0.5755692720413208,113.54083251953124,-36.632598876953125,266.7738647460937
1700075188,0.903289794921875,-0.0578765869140625,-0.199066162109375,0.3062363564968109,0.2460124343633651,0.747700035572052,113.29795837402344,-36.965911865234375,266.73260498046875
1700075188,0.90185546875,-0.087890625,-0.2377166748046875,0.3033915758132934,0.3035758733749389,0.9133073687553406,112.99600219726562,-36.57275390625,267.8609313964844
1700075188,0.9051513671875,-0.0808563232421875,-0.2703094482421875,0.2981704473495483,0.3632157444953918,1.07383930683136,113.14797973632812,-36.83909606933594,267.6676940917969
1700075188,0.9133758544921876,-0.042724609375,-0.263519287109375,0.3001739382743835,0.4438626766204834,1.221107006072998,113.268798828125,-36.56135559082031,267.5733642578125
1700075188,0.904541015625,0.0153656005859375,-0.2389068603515625,0.335029125213623,0.544309139251709,1.350016474723816,113.18972778320312,-36.661468505859375,268.28497314453125
1700075188,0.903839111328125,0.029388427734375,-0.1832122802734375,0.3484432101249695,0.6628522872924805,1.435535192489624,113.07870483398438,-36.34245300292969,268.21112060546875
1700075188,0.94342041015625,-0.031890869140625,-0.148193359375,0.3099453449249267,0.7470324039459229,1.5190672874450684,113.02565002441406,-36.477081298828125,268.5609741210937
1700075188,0.965606689453125,-0.0732269287109375,-0.2451171875,0.332719624042511,0.7885404229164124,1.6574732065200806,112.89358520507812,-36.5474853515625,268.384765625
1700075188,0.9303131103515624,-0.0390625,-0.4145965576171875,0.5122944712638855,0.802086591720581,1.7869515419006348,112.90908813476562,-36.00343322753906,269.2442626953125
1700075188,0.87115478515625,0.029876708984375,-0.465789794921875,0.6922066807746887,0.8068986535072327,1.7713438272476196,112.4356689453125,-35.86140441894531,269.22314453125
1700075188,0.83050537109375,0.1988067626953125,-0.3648529052734375,0.8137373924255371,0.863143265247345,1.6709636449813845,112.59349060058594,-35.11376953125,269.5604858398437
1700075188,0.820770263671875,0.4440155029296875,-0.2397308349609375,0.9301226139068604,0.9634230136871338,1.5589559078216553,112.19015502929688,-35.201995849609375,269.3158569335937
1700075188,0.8585052490234375,0.608184814453125,-0.1786651611328125,1.125990629196167,0.9956424832344056,1.4566937685012815,111.90324401855467,-34.96379089355469,269.67730712890625
1700075188,0.9491119384765624,0.5906219482421875,-0.189300537109375,1.2981568574905396,0.959816575050354,1.4370803833007812,111.80744934082033,-34.61436462402344,269.908447265625
1700075188,0.973968505859375,0.4438323974609375,-0.266754150390625,1.2606507539749146,0.9730868339538574,1.521544337272644,111.77864074707033,-34.29762268066406,269.56646728515625
1700075188,0.8842926025390625,0.294677734375,-0.3719940185546875,1.068456530570984,1.0199376344680786,1.6463762521743774,111.691162109375,-34.1376953125,269.9388427734375
1700075188,0.8267669677734375,0.1962738037109375,-0.4216461181640625,0.8842416405677795,1.019234299659729,1.806102275848389,111.39012145996094,-33.88957214355469,270.50933837890625
1700075188,0.9734344482421876,0.1449127197265625,-0.4309844970703125,0.7507877349853516,1.022425889968872,1.9546712636947632,111.35768127441406,-33.51741027832031,270.1102294921875
1700075188,1.270233154296875,0.1253204345703125,-0.4797515869140625,0.68403559923172,1.0000656843185425,2.0572333335876465,110.89158630371094,-33.08406066894531,270.29180908203125
1700075188,1.34185791015625,0.09869384765625,-0.5000457763671875,0.7396064400672913,0.9825847148895264,2.218748092651367,110.54344177246094,-32.7222900390625,270.3309936523437
1700075188,1.0308990478515625,0.1410675048828125,-0.5340423583984375,0.7956146001815796,0.9387232661247252,2.247340202331543,110.52110290527344,-32.37870788574219,270.3212890625
1700075188,0.7896575927734375,0.3086700439453125,-0.5252838134765625,0.8213402032852173,0.868600606918335,2.148155212402344,110.0607452392578,-32.065338134765625,269.7479858398437
1700075188,0.6502227783203125,0.53204345703125,-0.4496307373046875,0.934709906578064,0.8288862705230713,1.997013092041016,110.19369506835938,-31.605880737304688,270.4452514648437
1700075188,0.521820068359375,0.716033935546875,-0.3509521484375,1.096611738204956,0.790433943271637,1.849457740783692,110.400634765625,-31.14630126953125,270.5863037109375
1700075188,0.5625152587890625,0.8453826904296875,-0.331634521484375,1.1890082359313965,0.7567715644836426,1.7978785037994385,109.40249633789062,-30.618560791015625,270.95806884765625
1700075188,0.8296661376953125,0.8117218017578125,-0.2903289794921875,1.124933838844299,0.709517240524292,1.8098161220550537,109.42057800292967,-30.604278564453125,269.97723388671875
1700075188,0.9685211181640624,0.5938873291015625,-0.292816162109375,1.0061715841293335,0.6927968263626099,1.899580359458924,109.10655212402344,-30.28033447265625,271.06982421875
1700075188,0.751434326171875,0.3754425048828125,-0.4369049072265625,0.9046289324760436,0.6811844110488892,2.0116355419158936,109.13279724121094,-30.051559448242188,270.4871826171875
1700075188,0.5153961181640625,0.3894805908203125,-0.6059112548828125,0.8683146238327026,0.6175225973129272,1.9720937013626096,108.956787109375,-29.54356384277344,271.2490234375
1700075188,0.6746978759765625,0.561981201171875,-0.65374755859375,0.9186717867851256,0.5683721303939819,1.8882395029067995,108.46844482421876,-29.4140625,271.06317138671875
1700075188,1.0269012451171875,0.7179412841796875,-0.4715118408203125,0.9850942492485046,0.5570254325866699,1.843945860862732,108.00349426269533,-28.603988647460938,270.9544372558594
1700075188,1.21075439453125,0.7185516357421875,-0.40423583984375,1.0519176721572876,0.4381661713123321,1.9099067449569704,107.9599609375,-28.370895385742188,271.58184814453125
1700075188,1.3128814697265625,0.6651153564453125,-0.4579010009765625,0.9821069836616516,0.2697049677371979,2.001079559326172,107.72390747070312,-27.88642883300781,271.51519775390625
1700075188,1.510528564453125,0.6111602783203125,-0.4567108154296875,0.8170133233070374,0.1195178776979446,2.083282232284546,106.94401550292967,-27.2744140625,271.78692626953125
1700075188,1.6328125,0.533111572265625,-0.4149322509765625,0.5786500573158264,-0.044931523501873,2.148108720779419,106.6885986328125,-26.60540771484375,271.9327392578125
1700075188,1.66455078125,0.455108642578125,-0.4355621337890625,0.3229359686374664,-0.2287602126598358,2.131147861480713,106.43708801269533,-26.09381103515625,271.75653076171875
1700075188,1.619110107421875,0.3980865478515625,-0.514129638671875,0.0891567766666412,-0.3857154846191406,1.9485433101654053,105.75982666015624,-25.5106201171875,271.7804260253906
1700075188,1.48388671875,0.3516082763671875,-0.561004638671875,-0.1090170294046402,-0.4767063558101654,1.6842306852340698,105.51570129394533,-25.125,272.1532287597656
1700075188,1.1984710693359375,0.3573455810546875,-0.536041259765625,-0.2450872510671615,-0.4820550680160522,1.460502028465271,104.82069396972656,-24.48388671875,272.7027282714844
1700075188,0.824005126953125,0.386138916015625,-0.4643707275390625,-0.3166373372077942,-0.4217451214790344,1.2532683610916138,104.2251434326172,-23.74946594238281,273.1146850585937
1700075188,0.4720611572265625,0.4011993408203125,-0.440582275390625,-0.3323979079723358,-0.3183457553386688,0.99321711063385,103.65786743164062,-23.24749755859375,273.0072021484375
1700075188,0.193084716796875,0.3766021728515625,-0.459869384765625,-0.3449445962905884,-0.2414890527725219,0.5809677839279175,102.73582458496094,-22.5006103515625,273.3945617675781
1700075188,0.0138092041015625,0.28533935546875,-0.48516845703125,-0.3459707200527191,-0.2495837360620498,0.1530976742506027,102.12033081054688,-22.139434814453125,273.69439697265625
1700075188,-0.07427978515625,0.1983642578125,-0.4680633544921875,-0.3327435851097107,-0.2847896516323089,-0.1765681058168411,101.60031127929688,-21.679840087890625,274.4737548828125
1700075188,-0.132080078125,0.158050537109375,-0.4134521484375,-0.1556886583566665,-0.3879964649677276,-0.5871961116790771,101.2794189453125,-21.153244018554688,274.8437805175781
1700075188,-0.1025238037109375,0.0324554443359375,-0.201568603515625,0.1874492615461349,-0.5622484087944031,-1.184638500213623,100.4457550048828,-21.090728759765625,276.4887084960937
1700075188,-0.02081298828125,-0.1408538818359375,0.11566162109375,0.3707098960876465,-0.7131646871566772,-1.8493709564208984,100.41374206542967,-21.213912963867188,276.3731994628906
1700075188,-0.00616455078125,-0.2696380615234375,0.211700439453125,0.0106819393113255,-0.8046885132789612,-2.303100347518921,100.0191650390625,-20.981674194335938,276.76641845703125
1700075188,-0.0157623291015625,-0.208770751953125,-0.1572113037109375,-0.18428435921669,-0.889741063117981,-2.650906562805176,100.1299285888672,-21.304840087890625,277.58111572265625
1700075188,0.111480712890625,-0.2501220703125,-0.2443695068359375,-0.2441327720880508,-0.8915773034095764,-2.973315954208374,100.85704040527344,-21.82208251953125,278.26983642578125
1700075188,0.3149261474609375,-0.4115447998046875,-0.085174560546875,-0.3724140524864197,-0.8517492413520813,-3.237884521484375,101.2103271484375,-22.51275634765625,278.6793212890625
1700075188,0.4908905029296875,-0.4885711669921875,-0.0122528076171875,-0.697871744632721,-0.8462013006210327,-3.325361490249634,102.21678161621094,-23.355880737304688,279.129638671875
1700075188,0.616302490234375,-0.4064788818359375,-0.0224456787109375,-1.2647892236709597,-0.8976080417633057,-3.249479055404663,103.20956420898438,-24.481689453125,279.30145263671875
1700075188,0.7089385986328125,-0.2079925537109375,-0.1228790283203125,-1.740465760231018,-1.016384243965149,-3.220921516418457,104.24607849121094,-25.890899658203125,279.6810302734375
1700075188,0.8046722412109375,-0.0463714599609375,-0.201019287109375,-1.909855604171753,-1.1673146486282349,-3.331278085708618,105.15713500976562,-26.896209716796875,280.316162109375
1700075188,0.9069671630859376,0.0848541259765625,-0.2799072265625,-1.8460489511489868,-1.2748072147369385,-3.5333151817321777,106.70179748535156,-28.666732788085938,280.5063781738281
1700075188,0.99481201171875,0.212646484375,-0.36102294921875,-1.6876376867294312,-1.331022024154663,-3.715212821960449,107.52513122558594,-30.19256591796875,280.5775146484375
1700075188,1.0652923583984375,0.3545379638671875,-0.3719940185546875,-1.582007646560669,-1.391376495361328,-3.8248002529144287,108.99008178710938,-31.6976318359375,280.3060913085937
1700075188,1.12542724609375,0.5029296875,-0.3271026611328125,-1.442038893699646,-1.4763145446777344,-3.8134994506835938,110.465087890625,-33.16058349609375,280.7308044433594
1700075188,1.1456756591796875,0.6535797119140625,-0.2869720458984375,-1.1920591592788696,-1.5626661777496338,-3.748836994171143,111.68753051757812,-35.298553466796875,280.3090209960937
1700075188,1.1546173095703125,0.7537384033203125,-0.287200927734375,-0.6859711408615112,-1.6593892574310305,-3.7723684310913086,112.87747192382812,-36.84111022949219,280.5124816894531
1700075188,1.218505859375,0.73284912109375,-0.2708587646484375,-0.1370007246732711,-1.6752073764801023,-3.8722097873687744,114.4104461669922,-39.17372131347656,280.632568359375
1700075188,1.2574310302734375,0.6737060546875,-0.300445556640625,0.2155469357967376,-1.6684116125106812,-3.963823318481445,115.89227294921876,-41.2183837890625,280.05914306640625
1700075188,1.2487030029296875,0.65423583984375,-0.330718994140625,0.2711031436920166,-1.6050589084625244,-4.008861541748047,116.95973205566406,-43.74267578125,279.8035583496094
1700075188,1.226837158203125,0.6790313720703125,-0.371307373046875,0.0973854064941406,-1.5016478300094604,-3.970743179321289,117.94630432128906,-45.520843505859375,280.23638916015625
1700075188,1.213897705078125,0.72821044921875,-0.4414215087890625,-0.1013018563389778,-1.3815689086914062,-3.825702667236328,118.925048828125,-48.07893371582031,280.4604187011719
1700075188,1.2439422607421875,0.7694244384765625,-0.5111846923828125,-0.1560998558998108,-1.3344799280166626,-3.703191757202149,119.68692016601562,-50.55467224121094,279.515625
1700075188,1.2986602783203125,0.76336669921875,-0.50701904296875,-0.0629158467054367,-1.3300055265426636,-3.596877098083496,120.71214294433594,-53.08213806152344,279.6514892578125
1700075188,1.3697967529296875,0.7607574462890625,-0.4704132080078125,0.0460721552371978,-1.3102470636367798,-3.5067014694213867,121.49777221679688,-55.55567932128906,279.72906494140625
1700075188,1.419189453125,0.74658203125,-0.4418182373046875,0.144852265715599,-1.2447221279144287,-3.38094449043274,121.65380859375,-58.21861267089844,279.99932861328125
1700075188,1.425567626953125,0.7334442138671875,-0.43157958984375,0.3902699947357178,-1.2233539819717407,-3.171840190887451,122.18817138671876,-60.65400695800781,279.98211669921875
1700075188,1.3713836669921875,0.72796630859375,-0.372039794921875,0.5650436878204346,-1.2264684438705444,-2.9397428035736084,122.72007751464844,-63.59739685058594,280.7636108398437
1700075188,1.2643585205078125,0.6833953857421875,-0.3651123046875,0.6316688060760498,-1.1822563409805298,-2.7404208183288574,122.69786071777344,-66.22857666015625,281.0985412597656
1700075188,1.148193359375,0.601806640625,-0.332550048828125,0.7416077852249146,-1.0766041278839111,-2.534884691238404,122.52725219726562,-69.24942016601562,281.649169921875
1700075188,1.05389404296875,0.5377655029296875,-0.25836181640625,0.8958548903465271,-0.9666446447372437,-2.286459684371948,122.23185729980467,-71.66085815429688,282.4872741699219
1700075188,0.9921112060546876,0.5206146240234375,-0.2165679931640625,1.0254970788955688,-0.8793507218360901,-2.019146203994751,122.15887451171876,-74.8197021484375,282.6326904296875
1700075188,0.938079833984375,0.5256195068359375,-0.23541259765625,1.1392416954040527,-0.8020697832107544,-1.758609652519226,121.60166931152344,-76.953125,283.3148803710937
1700075188,0.8864593505859375,0.523590087890625,-0.265106201171875,1.2298038005828855,-0.7150752544403076,-1.5080336332321167,121.29890441894533,-79.18682861328125,284.5162048339844
1700075188,0.8204803466796875,0.4904022216796875,-0.280975341796875,1.2261319160461426,-0.5825638175010681,-1.284924864768982,120.73030090332033,-81.33856201171875,284.78143310546875
1700075188,0.7339630126953125,0.4041900634765625,-0.2960205078125,1.093392252922058,-0.4188329577445984,-1.0621839761734009,120.062744140625,-83.53889465332031,285.5601501464844
1700075189,0.6258544921875,0.290252685546875,-0.2862701416015625,0.8549013137817383,-0.2570374011993408,-0.7812241911888123,119.31971740722656,-85.39573669433594,285.84625244140625
1700075189,0.5171356201171875,0.1955108642578125,-0.2400360107421875,0.6229341626167297,-0.1205256134271621,-0.4351120591163635,118.3295440673828,-86.79020690917969,286.7403564453125
1700075189,0.44793701171875,0.125579833984375,-0.17413330078125,0.4833562672138214,-0.0192716978490352,-0.0434654504060745,117.8581085205078,-88.241943359375,287.4143981933594
1700075189,0.45855712890625,0.0795440673828125,-0.099853515625,0.2972697615623474,0.0499835386872291,0.3112074136734009,117.13688659667967,-89.7559814453125,288.40972900390625
1700075189,0.5633392333984375,0.07745361328125,-0.0813751220703125,0.0899035260081291,0.0967499762773513,0.5631392598152161,116.7432861328125,-90.83023071289062,288.26678466796875
1700075189,0.6601104736328125,0.1085357666015625,-0.122314453125,-0.0698376670479774,0.1529322862625122,0.7201139330863953,116.1625518798828,-91.64968872070312,288.18145751953125
1700075189,0.7195587158203125,0.116455078125,-0.1683807373046875,-0.2724757194519043,0.2321584075689315,0.8689550757408142,115.5597686767578,-92.38320922851562,289.1634521484375
1700075189,0.7373199462890625,0.128326416015625,-0.2462921142578125,-0.5523582696914673,0.320281058549881,1.0433233976364136,115.46197509765624,-92.89047241210938,288.3214111328125
1700075189,0.7222900390625,0.1480865478515625,-0.3326263427734375,-0.847586989402771,0.4515354931354522,1.2074601650238037,115.26512145996094,-92.98355102539062,287.9688720703125
1700075189,0.6894073486328125,0.1483001708984375,-0.4380645751953125,-1.1121360063552856,0.5344982743263245,1.3327826261520386,115.7405242919922,-93.00291442871094,288.1173095703125
1700075189,0.686126708984375,0.138702392578125,-0.491729736328125,-1.366065502166748,0.5936460494995117,1.3526387214660645,115.7036590576172,-93.08294677734376,287.3313293457031
1700075189,0.685638427734375,0.0905609130859375,-0.4883880615234375,-1.769391417503357,0.8367337584495544,1.3545715808868408,115.70954895019533,-93.20333862304688,287.9091491699219
1700075189,0.6036529541015625,0.1348114013671875,-0.706207275390625,-2.100675106048584,0.8902417421340942,1.5761429071426392,115.8408660888672,-93.09919738769533,287.3275756835937
1700075189,0.523162841796875,0.2430877685546875,-0.6614837646484375,-2.0037314891815186,1.54635751247406,1.698028564453125,115.87791442871094,-92.65676879882812,287.3258056640625
1700075189,0.676727294921875,0.3013763427734375,-0.9787139892578124,-0.4362129867076874,4.697751998901367,2.145568370819092,116.04190063476562,-92.60794067382812,287.11065673828125
1700075189,-0.166351318359375,0.9482269287109376,-3.5329742431640625,0.0247399676591157,-0.181097611784935,2.954020977020264,116.13264465332033,-93.06192016601562,286.3646545410156
1700075189,1.3704833984375,1.468841552734375,-0.784271240234375,-0.3898801207542419,-1.5092668533325195,1.3154302835464478,116.31364440917967,-92.86213684082033,286.4100952148437
1700075189,4.6995697021484375,-0.3956451416015625,1.2528533935546875,1.364411234855652,1.2274301052093506,-0.0872624665498733,116.5826416015625,-92.65127563476562,286.4126281738281
1700075189,2.988494873046875,-1.2711639404296875,0.1129608154296875,2.079779148101806,1.7836889028549194,0.2722365856170654,116.68450927734376,-92.51423645019533,286.4618530273437
1700075189,1.229461669921875,-0.711090087890625,1.37042236328125,1.335802435874939,1.484559416770935,0.9513727426528932,116.82398986816406,-92.33030700683594,286.318115234375
1700075189,0.5193939208984375,-0.26837158203125,0.3148345947265625,0.2886624336242676,0.8460231423377991,1.1782045364379885,116.73811340332033,-91.98617553710938,286.1938171386719
1700075189,0.3775787353515625,-0.2860260009765625,-0.1047515869140625,-0.5547444224357605,0.9402878880500792,1.0371108055114746,116.59678649902344,-91.6561279296875,286.46014404296875
1700075189,0.75311279296875,-0.5233154296875,-0.1389617919921875,-1.0347837209701538,1.2100887298583984,1.051485538482666,116.7321319580078,-90.82562255859376,286.60919189453125
1700075189,1.2446136474609375,-0.4592437744140625,-0.1362762451171875,-1.3253787755966189,1.103715896606445,1.217576503753662,116.77801513671876,-90.38792419433594,286.114013671875
1700075189,1.6561126708984375,-0.1115264892578125,-0.315399169921875,-1.1238102912902832,0.7055579423904419,1.2561070919036863,117.39894104003906,-89.62742614746094,286.2243957519531
1700075189,1.847747802734375,0.1442718505859375,-0.5163421630859375,-0.6614642143249512,0.0472055934369564,1.1232601404190063,117.91877746582033,-88.73974609375,286.0003356933594
1700075189,1.834564208984375,0.28912353515625,-0.066619873046875,-0.931711971759796,0.122730977833271,1.003489971160889,118.15032958984376,-86.98069763183594,285.5264892578125
1700075189,1.9598388671875,0.28363037109375,0.241180419921875,-0.661916196346283,0.8491164445877075,0.8430039286613464,119.28468322753906,-85.79917907714844,283.2792053222656
1700075189,2.193466186523437,-0.0868988037109375,0.3404388427734375,-0.1180496737360954,1.1897834539413452,1.1023355722427368,119.74725341796876,-83.92135620117188,282.9613647460937
1700075189,1.8106842041015625,-0.080230712890625,0.007476806640625,0.129557192325592,0.85305255651474,1.5113064050674438,119.83909606933594,-83.30184936523438,284.1844482421875
1700075189,1.1604766845703125,0.2939453125,-0.4944000244140625,0.3372107744216919,0.2132587432861328,1.3890092372894287,120.27845764160156,-83.41026306152344,283.2861022949219
1700075189,0.86102294921875,0.4023590087890625,-0.7264251708984375,0.0542163662612438,-0.2715116739273071,0.8042557239532471,120.27371215820312,-84.06036376953125,281.2105712890625
1700075189,0.7503509521484375,0.472076416015625,-0.77459716796875,0.140859380364418,-0.162878930568695,0.2587202489376068,120.36239624023438,-84.017333984375,280.2646484375
1700075189,0.6885528564453125,0.661773681640625,-0.3663787841796875,0.5247915983200073,0.1193668767809867,-0.1238210126757621,120.32884216308594,-83.53756713867188,280.1184997558594
1700075189,0.762420654296875,0.651458740234375,0.010009765625,0.6890758872032166,0.1251163780689239,-0.3037364482879638,120.81085205078124,-83.10031127929688,279.91357421875
1700075189,0.938751220703125,0.4072418212890625,-0.2182159423828125,0.7689491510391235,-0.0399135947227478,-0.3068603277206421,120.48480224609376,-83.20817565917969,279.0131530761719
1700075189,1.0196990966796875,0.265411376953125,-0.4368896484375,0.6829519271850586,-0.1023838967084884,-0.3044035732746124,120.9644775390625,-82.07521057128906,279.371337890625
1700075189,1.0568389892578125,0.0547943115234375,-0.4345703125,0.401339441537857,-0.0823350846767425,-0.2778680920600891,120.8511962890625,-81.20881652832031,278.7691955566406
1700075189,1.07305908203125,-0.140838623046875,-0.356964111328125,0.1094031929969787,-0.0551394186913967,-0.0685018301010131,121.43406677246094,-80.16593933105469,278.91339111328125
1700075189,1.007537841796875,-0.153564453125,-0.3466033935546875,-0.0608811937272548,-0.0909829065203666,0.1259792298078537,121.01744079589844,-79.13703918457031,278.4853515625
1700075189,0.969696044921875,-0.0872650146484375,-0.3844146728515625,-0.1270061582326889,-0.1351839154958725,0.1900253295898437,121.57167053222656,-78.13702392578125,278.5004577636719
1700075189,0.955657958984375,0.0007781982421875,-0.3855133056640625,-0.0967752784490585,-0.1452453434467315,0.18135567009449,121.23214721679688,-77.22808837890625,277.90692138671875
1700075189,0.89581298828125,0.1058502197265625,-0.3427276611328125,0.0197103209793567,-0.1350920349359512,0.1334387511014938,121.09500122070312,-76.52572631835938,277.4593505859375
1700075189,0.8478851318359375,0.1789703369140625,-0.2883148193359375,0.1890167891979217,-0.1042544990777969,0.0685891807079315,121.14385986328124,-75.73985290527344,277.2764892578125
1700075189,0.832855224609375,0.192901611328125,-0.249786376953125,0.3189071416854858,-0.0628743022680282,0.0578087046742439,121.25384521484376,-75.5257568359375,277.5433044433594
1700075189,0.8354644775390625,0.15625,-0.2649078369140625,0.3461962938308716,-0.024490961804986,0.1266034841537475,121.38162231445312,-75.12814331054688,277.9275207519531
1700075189,0.8805694580078125,0.082000732421875,-0.2768707275390625,0.2707063257694244,0.0226014498621225,0.2530346512794494,121.17396545410156,-74.884765625,278.0956420898437
1700075189,0.9181976318359376,-0.0022735595703125,-0.2740936279296875,0.162710890173912,0.0934974625706672,0.4045597314834595,120.97810363769533,-74.8963623046875,277.45379638671875
1700075189,0.9338531494140624,-0.080810546875,-0.246002197265625,0.0834392309188842,0.1840646415948867,0.586837649345398,121.14151000976562,-75.31744384765625,278.51171875
1700075189,0.932281494140625,-0.1344146728515625,-0.1991119384765625,0.0473081283271312,0.2993765771389007,0.7610371708869934,121.12750244140624,-75.89511108398438,278.451904296875
1700075189,0.92578125,-0.1827239990234375,-0.173980712890625,0.0705990716814994,0.4179359972476959,0.9436692595481871,120.6733856201172,-76.30848693847656,278.29833984375
1700075189,0.9107208251953124,-0.1940460205078125,-0.209259033203125,0.1414159834384918,0.4980705082416534,1.1478240489959717,120.6924285888672,-76.20262145996094,278.5558776855469
1700075189,0.8994598388671875,-0.12548828125,-0.265045166015625,0.2058359831571579,0.5413074493408203,1.2841371297836304,120.78489685058594,-76.09187316894531,278.50787353515625
1700075189,0.933746337890625,-0.065704345703125,-0.24029541015625,0.2838418483734131,0.6017662882804871,1.4034923315048218,120.6000518798828,-75.81550598144531,278.8966064453125
1700075189,0.9044342041015624,0.0231475830078125,-0.25311279296875,0.3729884922504425,0.6629545092582703,1.4627529382705688,120.908935546875,-75.99951171875,278.5848083496094
1700075189,0.85546875,0.125518798828125,-0.3122100830078125,0.4786936044692993,0.7024406790733337,1.4767416715621948,120.92828369140624,-75.84396362304688,278.819580078125
1700075189,0.82421875,0.23291015625,-0.3179473876953125,0.5388235449790955,0.7529627084732056,1.4524624347686768,121.18913269042967,-75.69877624511719,278.82763671875
1700075189,0.8221282958984375,0.322906494140625,-0.308746337890625,0.67387455701828,0.8234142661094666,1.4168912172317505,120.70364379882812,-75.38552856445312,279.01275634765625
1700075189,0.856292724609375,0.3460845947265625,-0.266082763671875,0.8388355374336243,0.8885245323181152,1.428074836730957,121.1978759765625,-74.99821472167969,279.0035400390625
1700075189,0.9058074951171876,0.328094482421875,-0.2560272216796875,0.9177679419517516,0.923432469367981,1.46148419380188,121.3149871826172,-74.40472412109375,277.8334350585937
1700075189,0.9737091064453124,0.2326507568359375,-0.2609710693359375,0.9257051944732666,0.9631527066230774,1.5287548303604126,121.20646667480467,-74.04612731933594,278.2750244140625
1700075189,0.9893951416015624,0.1087646484375,-0.328521728515625,0.8127107620239258,0.9523069858551024,1.617947340011597,121.26010131835938,-73.09535217285156,277.64776611328125
1700075189,0.9666900634765624,0.087677001953125,-0.4650421142578125,0.7517866492271423,0.8875623345375061,1.7625774145126345,121.01554870605467,-72.41893005371094,278.0326232910156
1700075189,0.875213623046875,0.1288604736328125,-0.5507049560546875,0.7967056632041931,0.8301246166229248,1.8794324398040767,121.0908203125,-71.29208374023438,276.67236328125
1700075189,0.7512664794921875,0.2571258544921875,-0.4959716796875,0.7522860169410706,0.7616126537322998,1.835055947303772,121.0730438232422,-70.45321655273438,276.5393981933594
1700075189,0.7052001953125,0.4888153076171875,-0.3730621337890625,0.6616644859313965,0.7699376940727234,1.7341372966766355,121.05673217773438,-69.44248962402344,275.7599792480469
1700075189,0.757781982421875,0.6768951416015625,-0.247314453125,0.674697756767273,0.7963096499443054,1.672098159790039,121.16806030273438,-68.43873596191406,275.349365234375
1700075189,0.9162445068359376,0.705169677734375,-0.253448486328125,0.7767045497894287,0.7864013910293579,1.7292780876159668,121.1276397705078,-67.05165100097656,275.252685546875
1700075189,1.1398773193359375,0.5606231689453125,-0.351715087890625,0.7733193635940552,0.7803253531455994,1.870780348777771,121.05429077148438,-66.41990661621094,274.5455322265625
1700075189,1.375640869140625,0.314178466796875,-0.384552001953125,0.6138101816177368,0.7724650502204895,2.0433712005615234,120.9671630859375,-65.32380676269531,274.01483154296875
1700075189,1.4113006591796875,0.114776611328125,-0.422210693359375,0.4728394448757171,0.7641594409942627,2.4015493392944336,120.61415100097656,-63.833251953125,273.90045166015625
1700075189,0.993743896484375,-0.0253143310546875,-0.5102996826171875,0.4222370088100433,0.7547292113304138,2.665916204452514,120.35037231445312,-63.36546325683594,273.14434814453125
1700075189,0.6278533935546875,0.0257415771484375,-0.611480712890625,0.4447510838508606,0.659237265586853,2.620204448699951,120.06950378417967,-62.49433898925781,272.88671875
1700075189,0.516815185546875,0.458038330078125,-0.6484527587890625,0.5674181580543518,0.6777158975601196,2.3409645557403564,120.34800720214844,-61.35246276855469,272.7851867675781
1700075189,0.6304168701171875,0.763214111328125,-0.4339752197265625,0.8100004196166992,0.7444022297859192,2.1479287147521973,120.01480102539062,-60.50263977050781,272.2518615722656
1700075189,0.9173431396484376,0.862060546875,-0.298828125,1.0041712522506714,0.6919305324554443,2.17335057258606,119.70144653320312,-59.05134582519531,271.01123046875
1700075189,1.363372802734375,0.7813262939453125,-0.381927490234375,0.9836529493331908,0.5634055733680725,2.3090250492095947,119.28810119628906,-58.12669372558594,270.5595703125
1700075189,1.6624755859375,0.5716400146484375,-0.4427947998046875,0.8958626389503479,0.4791490137577057,2.554084062576294,118.7227020263672,-56.43072509765625,270.194091796875
1700075189,1.7003631591796875,0.3983612060546875,-0.415924072265625,0.7245654463768005,0.4204857051372528,2.7697670459747314,118.37559509277344,-55.16128540039063,270.1099853515625
1700075189,1.7061614990234375,0.2755584716796875,-0.3962860107421875,0.5484108924865723,0.3589118123054504,2.928448438644409,117.93589782714844,-53.825927734375,269.4857177734375
1700075189,1.5123138427734375,0.2261962890625,-0.44647216796875,0.4747481346130371,0.2654838562011719,2.9173083305358887,117.2837371826172,-52.266998291015625,269.1205444335937
1700075189,1.172332763671875,0.30072021484375,-0.5579681396484375,0.4657788872718811,0.2034998536109924,2.6844828128814697,117.1803741455078,-50.849029541015625,268.74029541015625
1700075189,0.9797821044921876,0.4270782470703125,-0.6105194091796875,0.4132885038852691,0.153819128870964,2.348665475845337,116.7928466796875,-50.1837158203125,268.0506591796875
1700075189,0.98046875,0.526214599609375,-0.5482330322265625,0.4372625648975372,0.0818940699100494,2.0384557247161865,116.0848388671875,-49.10111999511719,268.112060546875
1700075189,1.0140533447265625,0.5313568115234375,-0.517974853515625,0.4405981600284576,-0.0653888583183288,1.77848482131958,115.52581787109376,-48.0950927734375,267.7374572753906
1700075189,0.973907470703125,0.493988037109375,-0.58428955078125,0.3711474537849426,-0.2242813110351562,1.4698060750961304,115.14378356933594,-46.79603576660156,267.8666381835937
1700075189,0.8756103515625,0.3927001953125,-0.559722900390625,0.1948038339614868,-0.2535465061664581,1.173067331314087,114.52252197265624,-45.22467041015625,267.91412353515625
1700075189,0.6097869873046875,0.3134002685546875,-0.5426177978515625,-0.0077758976258337,-0.2011320441961288,0.8623754978179932,113.88583374023438,-44.560333251953125,268.3621826171875
1700075189,0.275482177734375,0.22503662109375,-0.573516845703125,-0.0869428887963295,-0.2099170088768005,0.4646984338760376,113.09222412109376,-43.54132080078125,267.63201904296875
1700075189,0.0573883056640625,0.0547332763671875,-0.490692138671875,-0.0613182187080383,-0.3261472284793854,0.068765215575695,112.63316345214844,-42.196533203125,267.8399963378906
1700075189,-0.0954742431640625,-0.0420684814453125,-0.378631591796875,0.028235899284482,-0.4273931384086609,-0.3477108180522918,111.78651428222656,-41.32415771484375,267.6160888671875
1700075189,-0.1717681884765625,-0.1033477783203125,-0.253997802734375,0.1797191649675369,-0.5406672358512878,-0.8595408201217651,111.08950805664062,-40.18934631347656,268.3978271484375
1700075189,-0.1178436279296875,-0.2015838623046875,0.0214996337890625,0.311492383480072,-0.766599714756012,-1.5277457237243652,109.92140197753906,-38.75265502929688,268.8685913085937
1700075189,-0.0236968994140625,-0.3661041259765625,0.35662841796875,-0.0011006845161318,-1.0096584558486938,-2.1243155002593994,108.9091796875,-37.55061340332031,268.4842224121094
1700075189,-0.054718017578125,-0.403411865234375,0.2405242919921875,-0.5373089909553528,-1.022495150566101,-2.480001211166382,108.2707061767578,-36.71632385253906,268.8843078613281
1700075189,-0.044891357421875,-0.25286865234375,-0.302520751953125,-0.8002796173095703,-0.964293360710144,-2.8366167545318604,106.9840087890625,-35.51771545410156,269.23248291015625
1700075189,0.214385986328125,-0.3757171630859375,-0.28997802734375,-0.9691118001937866,-0.9765729308128356,-3.207927227020264,106.0089111328125,-34.75785827636719,269.53662109375
1700075189,0.551177978515625,-0.58343505859375,-0.0209197998046875,-1.4111459255218506,-1.0193270444869995,-3.409508228302002,105.00163269042967,-33.73646545410156,269.6363830566406
1700075189,0.754913330078125,-0.574249267578125,-0.0617523193359375,-1.987776756286621,-1.0767836570739746,-3.3057546615600586,104.45144653320312,-33.04084777832031,269.7347412109375
1700075190,0.810455322265625,-0.3183746337890625,-0.24481201171875,-2.2936601638793945,-1.2198729515075684,-3.228193998336792,103.29811096191406,-32.2152099609375,269.2968444824219
1700075190,0.8837127685546875,-0.0751800537109375,-0.259002685546875,-2.3825573921203613,-1.3604276180267334,-3.2866899967193604,103.00007629394533,-31.92344665527344,268.9838256835937
1700075190,0.93316650390625,0.156036376953125,-0.2799530029296875,-2.239945888519287,-1.487788200378418,-3.451589584350586,102.61663818359376,-31.8155517578125,269.55108642578125
1700075190,0.950775146484375,0.3524017333984375,-0.3238525390625,-1.941031575202942,-1.667017936706543,-3.683528900146485,102.54460144042967,-31.81343078613281,269.3541259765625
1700075190,0.9890899658203124,0.5150299072265625,-0.3017730712890625,-1.520654559135437,-1.851483941078186,-3.859381675720215,102.87525939941406,-32.310882568359375,269.3226928710937
1700075190,0.977569580078125,0.7502288818359375,-0.2018890380859375,-0.8750761151313782,-1.894994854927063,-3.96198320388794,102.912353515625,-32.6734619140625,270.05010986328125
1700075190,0.9157257080078124,0.991485595703125,-0.105682373046875,-0.0066501796245574,-1.9155062437057493,-3.955564022064209,103.38751220703124,-33.544952392578125,270.1473083496094
1700075190,0.8857879638671875,1.1683349609375,-0.0550994873046875,0.8937291502952576,-1.9512195587158203,-4.100006580352783,103.85017395019533,-34.46946716308594,270.16119384765625
1700075190,1.051849365234375,1.0619964599609375,-0.0316619873046875,1.3016053438186646,-1.9688951969146729,-4.245863914489746,105.06698608398438,-35.708251953125,270.7384338378906
1700075190,1.2187042236328125,0.9068603515625,-0.11590576171875,1.0854253768920898,-1.9821662902832031,-4.252377033233643,105.7042999267578,-36.78840637207031,270.85028076171875
1700075190,1.259796142578125,0.8073577880859375,-0.223876953125,0.4281444251537323,-1.745160698890686,-4.138047695159912,106.36102294921876,-38.67218017578125,270.2286071777344
1700075190,1.231292724609375,0.698944091796875,-0.4975433349609375,-0.2859827578067779,-1.5182982683181765,-3.871836662292481,107.27301025390624,-39.544830322265625,271.0218505859375
1700075190,1.20257568359375,0.6515350341796875,-0.6882781982421875,-0.8049860000610352,-1.5130888223648071,-3.5495612621307373,107.8480224609375,-41.26548767089844,270.250732421875
1700075190,1.2628021240234375,0.650848388671875,-0.7326202392578125,-1.1053314208984375,-1.5980106592178345,-3.2383341789245605,108.64724731445312,-42.79417419433594,270.0810852050781
1700075190,1.3056793212890625,0.67425537109375,-0.77630615234375,-1.1825239658355713,-1.6668485403060913,-2.962696552276612,109.06112670898438,-44.19503784179688,270.03594970703125
1700075190,1.332000732421875,0.7222747802734375,-0.7664031982421875,-1.2500691413879397,-1.7049826383590698,-2.7567739486694336,109.55047607421876,-45.904083251953125,270.29345703125
1700075190,1.3152923583984375,0.766998291015625,-0.6960906982421875,-1.1763640642166138,-1.6286625862121582,-2.5833396911621094,110.10243225097656,-47.52638244628906,270.1727600097656
1700075190,1.1903076171875,0.8148193359375,-0.6308746337890625,-0.9070202112197876,-1.458641767501831,-2.4211905002593994,110.6563720703125,-49.20426940917969,270.1295166015625
1700075190,1.0352325439453125,0.847442626953125,-0.49652099609375,-0.4591888785362243,-1.2185639142990112,-2.2945351600646973,110.9779052734375,-51.15313720703125,270.2964782714844
1700075190,0.9544219970703124,0.838592529296875,-0.380828857421875,-0.0391042605042457,-0.977294385433197,-2.177710056304932,111.2717742919922,-52.866119384765625,270.8653869628906
1700075190,0.900726318359375,0.7962799072265625,-0.343017578125,0.290795624256134,-0.7727074027061462,-2.0325448513031006,111.50328063964844,-54.81069946289063,270.49969482421875
1700075190,0.8631439208984375,0.736358642578125,-0.3594818115234375,0.5709708333015442,-0.6112948060035706,-1.826161503791809,111.68954467773438,-56.59217834472656,271.9011535644531
1700075190,0.85003662109375,0.659912109375,-0.368682861328125,0.8399575352668762,-0.4938938617706299,-1.603340983390808,112.36488342285156,-58.86279296875,272.876708984375
1700075190,0.8446044921875,0.5835113525390625,-0.348175048828125,1.0498164892196655,-0.4161897599697113,-1.39587140083313,112.1027374267578,-60.962646484375,272.93267822265625
1700075190,0.8375244140625,0.522552490234375,-0.296112060546875,1.1870111227035522,-0.3281089067459106,-1.1756510734558103,112.3127899169922,-62.72752380371094,273.2714233398437
1700075190,0.813720703125,0.4944610595703125,-0.252044677734375,1.2915974855422974,-0.1916123032569885,-0.9530004858970642,112.0081787109375,-64.17864990234375,274.2760314941406
1700075190,0.7824249267578125,0.46240234375,-0.2536163330078125,1.3110095262527466,-0.0339308008551597,-0.7612501978874207,112.2686767578125,-66.06462097167969,274.8075561523437
1700075190,0.7658538818359375,0.4020233154296875,-0.31817626953125,1.217251539230347,0.1121949777007103,-0.5847617387771606,112.40495300292967,-67.97508239746094,275.2113037109375
1700075190,0.743194580078125,0.3287506103515625,-0.3878936767578125,1.0210812091827393,0.2085047364234924,-0.3807201683521271,111.8677978515625,-69.47213745117188,274.9565124511719
1700075190,0.721221923828125,0.256103515625,-0.4022216796875,0.7499919533729553,0.2587774991989136,-0.1346036195755005,111.60809326171876,-71.35160827636719,275.41387939453125
1700075190,0.722686767578125,0.17742919921875,-0.366058349609375,0.437615156173706,0.2594427466392517,0.0882699415087699,111.53216552734376,-72.49443054199219,276.4891662597656
1700075190,0.7765655517578125,0.0636749267578125,-0.25653076171875,0.0439426898956298,0.3024445474147796,0.2721841037273407,110.98880004882812,-74.11363220214844,276.9628601074219
1700075190,0.8216705322265625,-0.0194549560546875,-0.2198333740234375,-0.2776790261268616,0.3847064077854156,0.4347109794616699,110.89193725585938,-75.68843078613281,277.5901184082031
1700075190,0.798309326171875,-0.0439453125,-0.25347900390625,-0.491681307554245,0.539232611656189,0.5547454953193665,110.40037536621094,-76.79566955566406,277.3629150390625
1700075190,0.7213592529296875,-0.0391082763671875,-0.3814239501953125,-0.6469148397445679,1.0226106643676758,0.6418727040290833,110.0697021484375,-78.17478942871094,277.8004455566406
1700075190,0.559112548828125,0.0353546142578125,-0.7552032470703125,-0.5477893352508545,0.967287003993988,0.8962677121162415,109.9485321044922,-79.02330017089844,277.6288452148437
1700075190,0.3105316162109375,0.2475128173828125,-0.766326904296875,-0.2096376419067382,0.580111026763916,1.2655072212219238,109.45759582519533,-80.62144470214844,278.2108154296875
1700075190,0.708221435546875,0.4386749267578125,-0.367889404296875,-0.1593249440193176,2.073352813720703,1.4423677921295166,109.16168212890624,-81.00025939941406,277.9768981933594
1700075190,0.59979248046875,0.44775390625,-1.379791259765625,1.2180931568145752,4.495478630065918,2.238757371902466,109.0759735107422,-81.7000732421875,278.3485412597656
1700075190,-0.45843505859375,1.189453125,-3.5249481201171875,0.1094335466623306,-1.210368037223816,3.1011130809783936,108.98895263671876,-82.56611633300781,278.55206298828125
1700075190,2.032577514648437,1.4597320556640625,0.7938690185546875,-0.8251791000366211,-0.7906213998794556,1.131800889968872,108.39006042480467,-82.95053100585938,278.0057373046875
1700075190,4.07904052734375,-0.6611175537109375,0.4142608642578125,0.5944526791572571,1.6520041227340698,-0.1854068785905838,108.53245544433594,-83.0640869140625,277.9119567871094
1700075190,2.2945098876953125,-1.41021728515625,0.692596435546875,1.291703462600708,2.138445377349853,0.1222867667675018,108.62586975097656,-83.11317443847656,277.629150390625
1700075190,1.109771728515625,-0.736419677734375,1.267791748046875,0.9695147275924684,1.5720221996307373,0.5230789184570312,108.38858032226562,-82.63105773925781,277.79669189453125
1700075190,0.6815948486328125,-0.252655029296875,0.0433807373046875,-0.0208634696900844,0.8592737317085266,0.5940545797348022,108.44029235839844,-82.77313232421875,277.69696044921875
1700075190,0.6921234130859375,-0.3227386474609375,-0.4589691162109375,-0.644877016544342,0.6771504878997803,0.6130021810531616,108.42710876464844,-82.26863098144531,277.53082275390625
1700075190,1.2328948974609375,-0.488861083984375,-0.2825164794921875,-0.6877211332321167,0.5994213819503784,0.7807464003562927,108.29403686523438,-81.74667358398438,277.17144775390625
1700075190,1.914337158203125,-0.51849365234375,0.1099395751953125,-1.064651370048523,0.6287217140197754,1.5654809474945068,108.38990783691406,-80.92332458496094,277.358154296875
1700075190,2.097991943359375,-0.0121307373046875,0.0670318603515625,-1.4544633626937866,0.5168540477752686,2.117514610290528,108.33235168457033,-80.23554992675781,277.2299194335937
1700075190,1.8156890869140625,0.3206939697265625,-0.0624237060546875,-1.4642759561538696,0.2663720250129699,1.9907134771347048,108.58428955078124,-79.22694396972656,277.5880126953125
1700075190,1.277587890625,0.4171295166015625,-0.2186279296875,-1.119418978691101,0.1567142456769943,1.2740941047668457,108.6455078125,-78.62460327148438,276.73370361328125
1700075190,0.8831329345703125,0.4018707275390625,-0.2950286865234375,-0.7614531517028809,0.478000670671463,0.760248064994812,108.45533752441406,-77.781005859375,276.67071533203125
1700075190,1.0702056884765625,0.1344146728515625,-0.157012939453125,-0.0985279083251953,0.7261230945587158,0.4446554780006408,108.78880310058594,-76.88172912597656,276.04052734375
1700075190,1.6794891357421875,-0.2022705078125,0.060516357421875,0.2247678637504577,0.7154057621955872,0.8324628472328186,108.77584838867188,-76.01612854003906,275.0993957519531
1700075190,1.796905517578125,0.0836029052734375,-0.1942138671875,0.2043571323156356,0.4408157467842102,1.3558810949325562,108.77015686035156,-74.27265930175781,273.2398986816406
1700075190,1.5632781982421875,0.412017822265625,-0.435821533203125,0.1922099143266677,0.0519971549510955,1.2417784929275513,108.87101745605467,-73.39077758789062,274.0932312011719
1700075190,1.267303466796875,0.433502197265625,-0.5469970703125,0.0198067277669906,-0.1687807589769363,0.72984778881073,108.9322509765625,-73.46063232421875,274.2879943847656
1700075190,1.00775146484375,0.4515838623046875,-0.532073974609375,0.0178445111960172,-0.036252811551094,0.2733593583106994,108.98689270019533,-73.75511169433594,273.9718322753906
1700075190,0.7877197265625,0.4770965576171875,-0.2928314208984375,0.2441743165254593,0.1283276081085205,0.1554345935583114,109.03224182128906,-73.71295166015625,272.6849365234375
1700075190,0.6297149658203125,0.316131591796875,-0.2240447998046875,0.3252127170562744,0.0577453225851058,0.1500060111284256,108.91700744628906,-73.33036804199219,272.28375244140625
1700075190,0.723358154296875,0.1435089111328125,-0.389312744140625,0.3456221222877502,-0.1126927286386489,0.234292134642601,108.9462890625,-72.83102416992188,272.0482482910156
1700075190,0.8757171630859375,0.1293182373046875,-0.4544830322265625,0.248187705874443,-0.190337985754013,0.2635456323623657,109.03034973144533,-72.45909118652344,270.81121826171875
1700075190,0.9484100341796876,0.1107025146484375,-0.4262847900390625,0.1576740443706512,-0.1439361274242401,0.2360064089298248,108.64338684082033,-71.84207153320312,270.5008850097656
1700075190,0.9445648193359376,0.102691650390625,-0.3197479248046875,0.1269933730363845,-0.0505718290805816,0.2205997556447982,109.23811340332033,-71.00932312011719,270.36871337890625
1700075190,0.898193359375,0.1249237060546875,-0.2361907958984375,0.1274535655975341,0.0291099492460489,0.2175488322973251,108.71443176269533,-70.35310363769531,270.2509765625
1700075190,0.8909454345703125,0.1328125,-0.23040771484375,0.1429627537727356,0.0810434520244598,0.2448592782020568,109.00813293457033,-69.94255065917969,269.93267822265625
1700075190,0.9367218017578124,0.1156463623046875,-0.2414398193359375,0.1517610251903534,0.1116490364074707,0.307311475276947,108.84309387207033,-69.68232727050781,269.77166748046875
1700075190,0.9496917724609376,0.095489501953125,-0.27349853515625,0.2044122666120529,0.1254767030477523,0.3872643709182739,108.7818603515625,-69.08517456054688,269.3980712890625
1700075190,0.9232635498046876,0.0880279541015625,-0.3072509765625,0.2594965398311615,0.1278048306703567,0.4772832095623016,108.84457397460938,-68.30093383789062,268.5483093261719
1700075190,0.903564453125,0.1019744873046875,-0.2939300537109375,0.2948199212551117,0.1625761240720749,0.5740664601325989,108.68218994140624,-67.41746520996094,268.1190185546875
1700075190,0.888092041015625,0.1143646240234375,-0.2689208984375,0.3546568751335144,0.2172838449478149,0.6825745701789856,108.42425537109376,-66.68582153320312,267.6703186035156
1700075190,0.85101318359375,0.100433349609375,-0.265106201171875,0.4442674517631531,0.2701334953308105,0.810242772102356,108.22355651855467,-66.35810852050781,267.8369140625
1700075190,0.8104705810546875,0.0697784423828125,-0.250244140625,0.4408237338066101,0.3625907003879547,0.906538426876068,108.11959838867188,-66.50946044921875,267.8865966796875
1700075190,0.8212432861328125,-0.00067138671875,-0.2455902099609375,0.4297125041484833,0.4742496013641357,1.0346777439117432,108.31187438964844,-66.27040100097656,268.1478881835937
1700075190,0.8505706787109375,-0.0627899169921875,-0.23138427734375,0.4173035025596618,0.5688501596450806,1.1895586252212524,108.35856628417967,-66.61538696289062,268.2206115722656
1700075190,0.902984619140625,-0.0953216552734375,-0.252838134765625,0.4188350737094879,0.6393921971321106,1.3761391639709473,108.6261749267578,-66.76443481445312,267.8409423828125
1700075190,0.9506072998046876,-0.0604400634765625,-0.2971038818359375,0.4084966778755188,0.6703045964241028,1.5201821327209473,108.53167724609376,-67.00650024414062,268.0426025390625
1700075190,0.955718994140625,0.061309814453125,-0.310394287109375,0.3909749388694763,0.6871618628501892,1.573628544807434,108.64842224121094,-66.76995849609375,268.33319091796875
1700075190,0.911407470703125,0.2357025146484375,-0.3332672119140625,0.4574847221374511,0.7089207172393799,1.5573910474777222,108.42184448242188,-66.73193359375,268.34918212890625
1700075190,0.8339385986328125,0.36737060546875,-0.3217926025390625,0.5876603126525879,0.778101921081543,1.4890474081039429,108.4141845703125,-66.83464050292969,268.29254150390625
1700075190,0.7919464111328125,0.453948974609375,-0.3023834228515625,0.793123722076416,0.8520610928535461,1.433607816696167,108.38975524902344,-66.80271911621094,268.4003295898437
1700075190,0.8666534423828125,0.4443817138671875,-0.2415313720703125,1.0005005598068235,0.9144480228424072,1.4704833030700684,108.4296875,-66.66563415527344,268.50518798828125
1700075190,0.9751434326171876,0.315673828125,-0.223602294921875,1.0890480279922483,0.9301923513412476,1.5950095653533936,108.27873229980467,-66.74983215332031,268.23309326171875
1700075190,0.953338623046875,0.1909027099609375,-0.3556976318359375,0.984540581703186,0.9334321022033693,1.730294942855835,108.26872253417967,-66.749755859375,268.6802978515625
1700075190,0.884246826171875,0.1714935302734375,-0.5276947021484375,0.9030925631523132,0.9311028718948364,1.7864724397659302,108.80567932128906,-66.86270141601562,268.477783203125
1700075190,0.9732513427734376,0.2066497802734375,-0.5027008056640625,0.9017021059989928,0.8867668509483337,1.953345775604248,108.28076171875,-66.73495483398438,268.94110107421875
1700075190,1.058746337890625,0.260650634765625,-0.356475830078125,0.79177325963974,0.8626871109008789,2.060635805130005,108.4906768798828,-66.6990966796875,268.7353820800781
1700075190,1.0246734619140625,0.331024169921875,-0.383697509765625,0.6874497532844543,0.7948305606842041,2.094725608825684,108.0736846923828,-66.42214965820312,268.5084228515625
1700075190,0.8915557861328125,0.51153564453125,-0.4683837890625,0.6959412693977356,0.7634909749031067,2.0552802085876465,108.36582946777344,-66.03298950195312,268.64422607421875
1700075190,0.90106201171875,0.638916015625,-0.375030517578125,0.7372580766677856,0.7548857927322388,2.0474586486816406,108.3360595703125,-65.86152648925781,267.8519287109375
1700075190,1.0295257568359375,0.6208953857421875,-0.2690582275390625,0.7536224126815796,0.7428978085517883,2.102114200592041,108.048828125,-65.08546447753906,267.7073974609375
1700075190,1.022491455078125,0.50152587890625,-0.354827880859375,0.7068719267845154,0.7218570113182068,2.1283254623413086,107.71086120605467,-64.76243591308594,267.5202941894531
1700075190,0.95159912109375,0.454925537109375,-0.4766845703125,0.7474449276924133,0.7334033846855164,2.2424182891845703,107.50808715820312,-64.02363586425781,267.0098876953125
1700075190,0.8594818115234375,0.4123077392578125,-0.4720611572265625,0.8552086353302002,0.77108234167099,2.301048994064331,107.63078308105467,-62.94493103027344,266.941650390625
1700075190,0.9552154541015624,0.414093017578125,-0.4752197265625,0.8807907104492188,0.7655874490737915,2.305682897567749,107.73942565917967,-62.09028625488281,267.10205078125
1700075190,1.2074737548828125,0.5052337646484375,-0.5085906982421875,0.9838587641716005,0.7083097696304321,2.365906476974488,107.46139526367188,-61.36671447753906,266.8155517578125
1700075190,1.3245849609375,0.567901611328125,-0.52044677734375,1.081249475479126,0.6299606561660767,2.411456823348999,107.2207489013672,-60.8123779296875,266.092041015625
1700075190,1.43902587890625,0.6048736572265625,-0.4725799560546875,1.06366765499115,0.5136678218841553,2.464430332183838,106.64849853515624,-60.4044189453125,265.6876220703125
1700075190,1.6013641357421875,0.5560302734375,-0.4300537109375,1.100217342376709,0.3718830049037933,2.5480611324310303,106.55596923828124,-59.73664855957031,265.6869506835937
1700075190,1.667266845703125,0.50311279296875,-0.4728851318359375,1.043336272239685,0.1825474351644516,2.592719316482544,106.24432373046876,-58.91357421875,265.1539306640625
1700075191,1.753326416015625,0.4493560791015625,-0.4653778076171875,0.8839540481567383,-0.0425455942749977,2.543015241622925,105.98013305664062,-58.07731628417969,264.8212280273437
1700075191,1.7718963623046875,0.4042205810546875,-0.4464874267578125,0.668268620967865,-0.2143032401800155,2.4375782012939453,105.63438415527344,-56.98480224609375,264.7904052734375
1700075191,1.6220550537109375,0.369964599609375,-0.4596099853515625,0.4869448840618133,-0.2566877007484436,2.1064956188201904,105.32373046875,-55.92059326171875,263.82818603515625
1700075191,1.36810302734375,0.2559356689453125,-0.5048980712890625,0.4921718835830688,-0.3211807012557983,1.603358268737793,105.19906616210938,-55.49038696289063,264.0029296875
1700075191,1.079315185546875,0.064910888671875,-0.503875732421875,-0.0270851477980613,-0.4169690012931824,1.576770305633545,104.7617645263672,-54.89863586425781,264.1807861328125
1700075191,0.52862548828125,0.2265625,-0.59771728515625,-0.7566402554512024,-0.2548397481441498,1.5997954607009888,104.11245727539062,-54.146026611328125,263.6713256835937
1700075191,-0.0269012451171875,0.3836212158203125,-0.69134521484375,-1.0337659120559692,-0.0888835340738296,1.234264612197876,103.87677001953124,-53.10380554199219,262.99908447265625
1700075191,-0.26568603515625,0.2168426513671875,-0.5345458984375,-0.9073408246040344,-0.1760213673114776,0.6025130152702332,103.35194396972656,-52.3304443359375,263.02294921875
1700075191,-0.353179931640625,-0.019439697265625,-0.2371826171875,-0.5438553094863892,-0.3616801798343658,-0.0411506332457065,103.1100616455078,-51.13224792480469,263.14697265625
1700075191,-0.41412353515625,-0.2535400390625,0.027008056640625,-0.100782535970211,-0.599384069442749,-0.6918991208076477,102.30157470703124,-50.11119079589844,262.385498046875
1700075191,-0.3084716796875,-0.436614990234375,0.249755859375,0.0807150825858116,-0.8814911246299744,-1.3357443809509275,101.65892028808594,-49.067779541015625,262.3851318359375
1700075191,-0.0419158935546875,-0.3836822509765625,0.2579345703125,-0.0502301454544067,-1.0191328525543213,-1.876313328742981,100.97923278808594,-48.03263854980469,261.9200744628906
1700075191,0.1140289306640625,-0.21038818359375,-0.0146636962890625,-0.0984376221895217,-1.1030938625335691,-2.364072322845459,100.282958984375,-46.758575439453125,261.91436767578125
1700075191,0.2268524169921875,-0.210906982421875,-0.1808319091796875,-0.0208126045763492,-1.2019360065460205,-2.7395541667938232,99.45213317871094,-45.858306884765625,261.764404296875
1700075191,0.355194091796875,-0.2717742919921875,-0.1180877685546875,-0.0177960414439439,-1.22110915184021,-2.943352699279785,98.2021942138672,-44.75828552246094,261.56817626953125
1700075191,0.38726806640625,-0.2327728271484375,-0.109161376953125,-0.2225153595209121,-1.1906065940856934,-3.0589184761047363,97.67105102539062,-44.00553894042969,261.8007507324219
1700075191,0.4096832275390625,-0.113922119140625,-0.1919708251953125,-0.5443059206008911,-1.1719727516174316,-3.21641492843628,97.13995361328124,-42.74217224121094,261.7577514648437
1700075191,0.5014190673828125,-0.0484161376953125,-0.225616455078125,-0.8305384516716003,-1.165232539176941,-3.4381532669067383,95.95364379882812,-41.90119934082031,261.9576416015625
1700075191,0.611480712890625,-0.016693115234375,-0.231201171875,-1.0723388195037842,-1.1572563648223877,-3.683665990829468,95.28434753417967,-40.71308898925781,262.2484130859375
1700075191,0.7191619873046875,0.02984619140625,-0.2852783203125,-1.226703405380249,-1.1018022298812866,-3.817416191101074,94.19613647460938,-40.10174560546875,262.0549621582031
1700075191,0.81494140625,0.1370086669921875,-0.3665618896484375,-1.250402331352234,-1.0806481838226318,-3.762474298477173,92.914794921875,-38.567169189453125,261.69488525390625
1700075191,0.908111572265625,0.2868194580078125,-0.3927764892578125,-1.143534779548645,-1.202929139137268,-3.650799036026001,91.81626892089844,-38.27145385742188,261.59649658203125
1700075191,1.0285491943359375,0.4429473876953125,-0.3528594970703125,-0.6864023208618164,-1.3743493556976318,-3.6038219928741455,90.81228637695312,-37.03929138183594,262.12957763671875
1700075191,1.1075592041015625,0.6179656982421875,-0.272186279296875,0.0652109608054161,-1.4131965637207031,-3.679131031036377,89.90008544921875,-36.21939086914063,261.4880065917969
1700075191,1.1219940185546875,0.796875,-0.24224853515625,0.5890747308731079,-1.3865801095962524,-3.780463457107544,88.78929138183594,-35.60899353027344,261.84130859375
1700075191,1.1626434326171875,0.989013671875,-0.2563629150390625,0.7124704122543335,-1.3599029779434204,-3.905975341796875,88.22457885742188,-34.93959045410156,262.5656433105469
1700075191,1.2336273193359375,1.10638427734375,-0.2919769287109375,0.701962947845459,-1.2610960006713867,-4.131080150604248,87.72352600097656,-35.004486083984375,262.32733154296875
1700075191,1.314727783203125,0.9973907470703124,-0.3162994384765625,0.6354987025260925,-1.1341822147369385,-4.196530818939209,87.02761840820312,-34.5338134765625,261.46392822265625
1700075191,1.2596588134765625,0.842987060546875,-0.317291259765625,0.4835384488105774,-1.0159629583358765,-4.020973205566406,86.88726806640625,-34.226470947265625,261.9867858886719
1700075191,1.1132354736328125,0.7371826171875,-0.3618011474609375,0.2656117081642151,-0.8947073221206665,-3.707134246826172,86.34478759765625,-34.24830627441406,261.4837951660156
1700075191,1.019775390625,0.6880340576171875,-0.45159912109375,0.0846664160490036,-0.7433620095252991,-3.385109663009644,86.89057922363281,-34.354217529296875,261.98211669921875
1700075191,0.98834228515625,0.68572998046875,-0.603790283203125,0.0065881279297173,-0.7483892440795898,-3.129072904586792,86.98344421386719,-35.047393798828125,261.91387939453125
