timestamp,acc-x,acc-y,acc-z,gyr-x,gyr-y,gyr-z,mag-x,mag-y,mag-z
1700075104,0.8411102294921875,0.372039794921875,-0.2769012451171875,0.2059563547372818,-0.6307960748672485,-0.7760448455810547,112.38938903808594,-61.54023742675781,264.79840087890625
1700075104,0.7927093505859375,0.30535888671875,-0.24798583984375,0.1405163705348968,-0.5393942594528198,-0.5258978605270386,112.05165100097656,-60.241973876953125,263.8756103515625
1700075104,0.74517822265625,0.2554779052734375,-0.215240478515625,0.0841564238071441,-0.4399209320545196,-0.2672993540763855,111.71745300292967,-59.03668212890625,263.3197937011719
1700075104,0.71282958984375,0.2236480712890625,-0.1840667724609375,0.0339779406785965,-0.3341971635818481,0.0079055940732359,111.5722198486328,-58.067962646484375,262.89263916015625
1700075104,0.71234130859375,0.2098541259765625,-0.1575164794921875,-0.0069545786827802,-0.2318177819252014,0.281875878572464,111.8735809326172,-57.04977416992188,262.1185302734375
1700075104,0.711883544921875,0.2037200927734375,-0.15869140625,-0.0208600088953971,-0.1445068418979644,0.5300388336181641,111.39633178710938,-56.5440673828125,261.9452819824219
1700075104,0.716094970703125,0.196319580078125,-0.1663818359375,-0.0234243664890527,-0.0838403031229972,0.7241547703742981,111.80899047851562,-55.98414611816406,261.6160888671875
1700075104,0.7523956298828125,0.165496826171875,-0.147552490234375,-0.0284255165606737,-0.0517665259540081,0.8333616852760315,111.20620727539062,-55.24662780761719,260.5865173339844
1700075104,0.7864837646484375,0.10711669921875,-0.11395263671875,-0.0423658341169357,-0.0300553701817989,0.888387143611908,111.15364074707033,-55.273773193359375,260.6268310546875
1700075104,0.7796783447265625,0.037109375,-0.0973358154296875,-0.0659675672650337,0.0048869005404412,0.8918707966804504,111.36160278320312,-54.54441833496094,260.6427001953125
1700075104,0.77978515625,-0.02911376953125,-0.1160430908203125,-0.1615308374166488,0.0029963224660605,0.8513068556785583,111.2868194580078,-54.1455078125,260.7455749511719
1700075104,0.798370361328125,-0.0539093017578125,-0.158416748046875,-0.213669404387474,0.070662185549736,0.7410517334938049,111.08883666992188,-53.76850891113281,260.8392333984375
1700075104,0.7680816650390625,-0.12896728515625,-0.20892333984375,-0.2578946650028229,0.1295084506273269,0.6648309826850891,110.89358520507812,-53.09764099121094,260.344482421875
1700075104,0.7383575439453125,-0.155426025390625,-0.2404632568359375,-0.3433525562286377,0.1664592921733856,0.6577163338661194,110.95864868164062,-52.67768859863281,260.6260986328125
1700075104,0.7157440185546875,-0.15435791015625,-0.2528839111328125,-0.4313186407089233,0.209932193160057,0.6758261322975159,110.99057006835938,-52.52000427246094,259.9124755859375
1700075104,0.7040557861328125,-0.164154052734375,-0.266693115234375,-0.5332487225532532,0.2826676368713379,0.7393475770950317,110.15394592285156,-52.17694091796875,260.0621337890625
1700075104,0.6916961669921875,-0.1508026123046875,-0.30816650390625,-0.6738609671592712,0.3019207119941711,0.7927002906799316,110.63104248046876,-52.0936279296875,260.5069580078125
1700075104,0.688232421875,-0.14306640625,-0.3449859619140625,-0.9341740608215332,0.4170281291007995,0.8659374713897705,110.61807250976562,-51.59393310546875,260.276123046875
1700075104,0.698516845703125,-0.123321533203125,-0.4469146728515625,-1.1882561445236206,0.6693596839904785,0.8497830033302307,110.61221313476562,-51.55413818359375,260.30047607421875
1700075104,0.5647430419921875,-0.0856781005859375,-0.7061309814453125,-1.008983850479126,0.6075325608253479,1.361424446105957,110.32640075683594,-51.32402038574219,260.47509765625
1700075104,0.4779815673828125,0.2707061767578125,-0.486846923828125,-0.9078987836837769,1.1165169477462769,1.5478150844573977,110.41682434082033,-51.30009460449219,260.06500244140625
1700075104,0.6933135986328125,0.4125823974609375,-0.8275604248046875,1.0524519681930542,4.115625858306885,1.6920801401138306,110.27650451660156,-51.07170104980469,260.2172241210937
1700075104,0.003814697265625,0.6264190673828125,-2.8890380859375,1.9318735599517824,0.923124611377716,3.622311353683472,110.3046417236328,-50.96675109863281,260.1465759277344
1700075104,0.181671142578125,1.9638214111328125,-1.578277587890625,-0.1077616140246391,-1.7543208599090576,2.627514600753784,110.30754089355467,-50.76551818847656,260.3244934082031
1700075104,3.7150726318359375,0.6882781982421875,0.971282958984375,0.1262285113334655,1.3208764791488647,0.025964755564928,110.4457550048828,-50.52789306640625,260.53668212890625
1700075104,3.1925201416015625,-1.35205078125,-0.101165771484375,1.607837200164795,2.53525447845459,-0.7455612421035767,110.2986297607422,-50.40231323242188,260.8522033691406
1700075104,1.6287689208984375,-1.2931976318359375,1.21990966796875,1.334149956703186,2.309269666671753,-0.2208998948335647,110.20881652832033,-50.07447814941406,261.24273681640625
1700075104,0.84539794921875,-0.445465087890625,0.1214447021484375,-0.3870720863342285,1.3128174543380735,0.7313607335090637,110.20945739746094,-50.125762939453125,261.14752197265625
1700075104,0.302520751953125,-0.0783843994140625,-1.066162109375,-1.0649709701538086,0.6178627014160156,0.902223825454712,110.24514770507812,-49.78656005859375,261.6983642578125
1700075104,0.6377716064453125,-0.616302490234375,-0.879302978515625,-0.3887320458889007,0.4294506907463074,0.2409127503633499,110.26554870605467,-49.72724914550781,261.50927734375
1700075104,1.5268707275390625,-1.217193603515625,-0.098480224609375,0.0250464975833892,0.3600551187992096,0.7301149368286133,110.06231689453124,-49.39987182617188,261.45782470703125
1700075104,1.7357635498046875,-0.62982177734375,0.1650238037109375,-0.757856011390686,0.4843767881393432,1.8169245719909668,110.07057189941406,-49.35737609863281,262.038330078125
1700075104,1.6092529296875,0.2235870361328125,0.1021270751953125,-1.6455248594284058,0.3584457635879516,2.1949703693389893,110.1798858642578,-49.50282287597656,262.1038818359375
1700075104,1.474273681640625,0.4735260009765625,0.182586669921875,-1.884305000305176,-0.0545812211930751,1.643784523010254,109.92491149902344,-49.58615112304688,262.23931884765625
1700075104,1.2681121826171875,0.5105133056640625,0.2310333251953125,-2.125791072845459,0.293487012386322,0.9779356718063354,109.74896240234376,-49.3306884765625,262.55224609375
1700075104,1.5903778076171875,0.4540863037109375,-0.068878173828125,-1.0365926027297974,0.9091989398002625,0.4267595708370209,109.72738647460938,-48.88783264160156,262.70263671875
1700075104,2.388458251953125,0.066253662109375,0.14013671875,0.2803693413734436,1.1372931003570557,0.8337531685829163,109.9635772705078,-48.89370727539063,263.01287841796875
1700075104,2.385467529296875,0.3405303955078125,0.0216522216796875,0.5950138568878174,0.6269112825393677,1.4858661890029907,109.72027587890624,-48.48539733886719,262.84332275390625
1700075104,1.6453704833984375,0.6286773681640625,-0.504150390625,0.6759489178657532,-0.1233166083693504,0.9657162427902222,110.1107177734375,-48.112060546875,263.1557006835937
1700075104,1.079925537109375,0.305816650390625,-0.748443603515625,0.4603881239891052,-0.3250912725925445,0.1690113991498947,109.4416046142578,-47.746002197265625,263.2846374511719
1700075104,0.6609039306640625,0.2949066162109375,-0.7381744384765625,0.6034731268882751,0.0144433882087469,-0.124665766954422,109.77131652832033,-47.92790222167969,262.9600524902344
1700075104,0.2994842529296875,0.4618988037109375,-0.354644775390625,0.8270372152328491,0.1584628820419311,-0.1125387921929359,109.60739135742188,-47.62449645996094,262.7015686035156
1700075104,0.4023590087890625,0.299102783203125,-0.204345703125,0.6606490612030029,-0.0310828182846307,-0.0962663516402244,109.77198791503906,-47.20268249511719,263.5723876953125
1700075104,0.8299102783203125,0.142120361328125,-0.39971923828125,0.4518364369869232,-0.2167126089334488,-0.0276492051780223,109.33554077148438,-46.845306396484375,263.44873046875
1700075104,1.0353546142578125,0.1658782958984375,-0.486724853515625,0.2140995115041732,-0.2578459084033966,-0.0391727015376091,109.2789306640625,-46.699249267578125,263.5286560058594
1700075104,1.1088714599609375,0.078857421875,-0.4426116943359375,0.0195001978427171,-0.2007118016481399,-0.0036823528353124,108.9096221923828,-46.65640258789063,263.18359375
1700075104,1.07977294921875,0.014984130859375,-0.331085205078125,-0.0834070071578025,-0.1342257112264633,0.1036915108561515,108.8953857421875,-46.53984069824219,263.5020751953125
1700075104,0.996429443359375,0.02435302734375,-0.3061676025390625,-0.0949925556778907,-0.1200339943170547,0.1896543502807617,108.94334411621094,-46.43975830078125,263.71160888671875
1700075104,0.968353271484375,0.0399932861328125,-0.3307647705078125,-0.0489134788513183,-0.1139252334833145,0.2223382592201233,108.6530303955078,-45.85713195800781,263.8300170898437
1700075104,0.9521026611328124,0.050537109375,-0.3276824951171875,0.0502623729407787,-0.0880539566278457,0.2504710853099823,108.9727020263672,-45.8892822265625,264.2890014648437
1700075104,0.8977813720703125,0.071990966796875,-0.3005828857421875,0.1720732301473617,-0.0584425367414951,0.2889990508556366,108.3806610107422,-45.34878540039063,263.6216735839844
1700075104,0.842376708984375,0.1030426025390625,-0.2578887939453125,0.2526450455188751,-0.0021579593885689,0.3164809942245483,108.55322265625,-45.21379089355469,263.8275756835937
1700075104,0.81317138671875,0.0936279296875,-0.24658203125,0.3371284902095794,0.0641755238175392,0.370746910572052,108.34320068359376,-45.08338928222656,263.59967041015625
1700075104,0.7904510498046875,0.06341552734375,-0.284423828125,0.3629616796970367,0.1082902550697326,0.46316659450531,108.2002410888672,-44.931396484375,264.08612060546875
1700075104,0.8237762451171875,0.0693359375,-0.284027099609375,0.311760812997818,0.1596951186656952,0.5732834935188293,108.42990112304688,-44.63720703125,263.8400573730469
1700075104,0.883209228515625,0.114013671875,-0.250213623046875,0.1999591886997223,0.2533749938011169,0.6489329934120178,108.33113098144533,-44.27658081054688,263.79962158203125
1700075104,0.90191650390625,0.1418609619140625,-0.215057373046875,0.1337090581655502,0.3724564015865326,0.686881959438324,108.1921844482422,-43.933135986328125,263.9635925292969
1700075104,0.8948211669921875,0.077423095703125,-0.1966094970703125,0.2002478688955307,0.4814526438713074,0.7848942875862122,107.90342712402344,-43.525634765625,263.84674072265625
1700075104,0.87786865234375,-0.0302276611328125,-0.2075347900390625,0.2712080776691437,0.5640732049942017,0.950331211090088,107.89939880371094,-43.54277038574219,264.2702941894531
1700075104,0.8860931396484375,-0.1164398193359375,-0.249237060546875,0.2795448303222656,0.5932124853134155,1.129375457763672,108.00767517089844,-43.16259765625,264.2738647460937
1700075104,0.91522216796875,-0.1608123779296875,-0.3197784423828125,0.3133456707000732,0.6045077443122864,1.3450262546539309,107.54879760742188,-42.91790771484375,264.4962158203125
1700075104,0.865234375,-0.101654052734375,-0.43743896484375,0.3572249710559845,0.57980877161026,1.4865666627883911,107.48214721679688,-42.26896667480469,264.71905517578125
1700075104,0.8151702880859375,0.0418548583984375,-0.4638671875,0.3633196055889129,0.5627840161323547,1.4832826852798462,107.14892578125,-42.20686340332031,265.1034545898437
1700075104,0.8366241455078125,0.2527618408203125,-0.367889404296875,0.3888604044914245,0.6573488712310791,1.4180704355239868,106.85671997070312,-41.88029479980469,264.63446044921875
1700075104,0.869415283203125,0.43206787109375,-0.2751617431640625,0.5412235856056213,0.7953892946243286,1.3399814367294312,106.4246063232422,-41.20391845703125,265.2984619140625
1700075104,0.9306793212890624,0.454986572265625,-0.1781768798828125,0.794987678527832,0.9201703667640686,1.356703758239746,106.05827331542967,-41.10462951660156,264.7752685546875
1700075104,1.041168212890625,0.3123626708984375,-0.1994171142578125,0.9824331998825072,0.9428862929344176,1.507285475730896,106.01922607421876,-40.00422668457031,263.89697265625
1700075104,1.1673583984375,0.0915985107421875,-0.27093505859375,0.9856582880020142,0.8889426589012146,1.7231104373931885,105.7719268798828,-39.86817932128906,264.5653076171875
1700075104,1.15875244140625,-0.09967041015625,-0.3899993896484375,0.6858430504798889,0.8096957802772522,1.9435083866119385,105.33641052246094,-38.678619384765625,264.6226806640625
1700075104,0.869049072265625,-0.047637939453125,-0.6759490966796875,0.5389766693115234,0.7188327312469482,2.1220436096191406,104.79966735839844,-38.212799072265625,264.11785888671875
1700075104,0.4815216064453125,0.114288330078125,-0.7471923828125,0.4844591021537781,0.6378973722457886,1.8664947748184204,104.07208251953124,-37.563507080078125,264.20721435546875
1700075104,0.40106201171875,0.4093017578125,-0.466064453125,0.4574799537658691,0.7490707635879517,1.5811527967453003,103.60011291503906,-36.85206604003906,264.0297546386719
1700075104,0.4987335205078125,0.8177642822265625,-0.1926116943359375,0.6020115613937378,0.8429235219955444,1.50727117061615,102.65170288085938,-36.050323486328125,264.11993408203125
1700075104,0.8475341796875,0.9944000244140624,-0.1254730224609375,0.8561112284660339,0.8098009824752808,1.557942032814026,102.20016479492188,-35.40922546386719,264.1752319335937
1700075104,1.3138885498046875,0.7198638916015625,-0.25701904296875,0.9039705991744996,0.78544020652771,1.72308087348938,101.30970764160156,-34.469390869140625,263.9156494140625
1700075104,1.48699951171875,0.3139801025390625,-0.42535400390625,0.7650337815284729,0.7546548843383789,1.996904730796814,100.23304748535156,-34.245697021484375,264.22479248046875
1700075104,1.28790283203125,0.0551300048828125,-0.5104827880859375,0.6119717955589294,0.7702359557151794,2.3757786750793457,99.60725402832033,-32.86061096191406,265.0177001953125
1700075104,0.9421539306640624,-0.061065673828125,-0.5897979736328125,0.548876941204071,0.853725790977478,2.5517220497131348,98.74842834472656,-32.47772216796875,265.4693603515625
1700075104,0.8897552490234375,0.017181396484375,-0.6062774658203125,0.5344154834747314,0.8463728427886963,2.5469892024993896,98.018310546875,-32.05943298339844,265.59796142578125
1700075104,0.830230712890625,0.3783111572265625,-0.562530517578125,0.652213990688324,0.8518278002738953,2.3831024169921875,97.31455993652344,-31.245147705078125,265.858642578125
1700075105,0.6896209716796875,0.6417999267578125,-0.48736572265625,0.865980327129364,0.8661119341850281,2.155845165252685,96.5250244140625,-30.723556518554688,266.0823974609375
1700075105,0.68658447265625,0.77276611328125,-0.3797149658203125,1.0331456661224363,0.8488330841064453,2.024095296859741,95.9739990234375,-30.20088195800781,267.4300537109375
1700075105,0.7827911376953125,0.7930755615234375,-0.3420867919921875,1.1025769710540771,0.7718032598495483,2.02644681930542,95.41583251953124,-29.964752197265625,268.0302429199219
1700075105,0.8820648193359375,0.7613677978515625,-0.442352294921875,0.9817599654197692,0.679632306098938,2.098402500152588,95.34127807617188,-29.98397827148437,268.2515869140625
1700075105,1.1653289794921875,0.7279815673828125,-0.4348907470703125,0.8379337787628174,0.6104689836502075,2.2408335208892822,94.84730529785156,-30.17320251464844,268.62335205078125
1700075105,1.45751953125,0.63238525390625,-0.3541412353515625,0.6872460246086121,0.5077247619628906,2.41178822517395,94.82479858398438,-30.19346618652344,268.4774169921875
1700075105,1.5213775634765625,0.496124267578125,-0.425018310546875,0.6269174218177795,0.3999710977077484,2.5720646381378174,95.29042053222656,-30.583541870117188,269.22381591796875
1700075105,1.4636993408203125,0.4764556884765625,-0.5642547607421875,0.5488242506980896,0.2606219947338104,2.612391710281372,96.02084350585938,-31.364059448242188,269.2079772949219
1700075105,1.551513671875,0.5177154541015625,-0.5952301025390625,0.4691134393215179,0.1283289492130279,2.5437827110290527,96.56192016601562,-32.11494445800781,269.30108642578125
1700075105,1.6825103759765625,0.5001373291015625,-0.527923583984375,0.3802131116390228,0.0263501144945621,2.3499996662139893,97.40476989746094,-32.83738708496094,269.5111999511719
1700075105,1.70867919921875,0.434234619140625,-0.5225372314453125,0.3286231458187103,-0.0819662362337112,2.035208940505981,98.46295166015624,-33.86466979980469,269.5702209472656
1700075105,1.6268157958984375,0.3395538330078125,-0.563995361328125,0.2445122748613357,-0.2243388295173645,1.7599740028381348,99.27180480957033,-34.99809265136719,269.89404296875
1700075105,1.3768463134765625,0.294921875,-0.5830535888671875,0.0491491705179214,-0.2700256109237671,1.5123934745788574,100.39447021484376,-35.737518310546875,270.8736572265625
1700075105,0.96405029296875,0.2560882568359375,-0.5470123291015625,-0.148926094174385,-0.041505366563797,1.187727451324463,101.63215637207033,-37.44111633300781,270.8398742675781
1700075105,0.494232177734375,0.188140869140625,-0.5396881103515625,-0.1067557409405708,0.1252173036336898,0.6756828427314758,102.79530334472656,-38.63023376464844,270.9454650878906
1700075105,0.183258056640625,0.02569580078125,-0.4543609619140625,-0.0950679257512092,0.092303030192852,0.2915916442871094,103.6030731201172,-39.99711608886719,270.90399169921875
1700075105,-0.0627593994140625,0.020355224609375,-0.3659515380859375,-0.0104931211099028,-0.0321965515613555,-0.1170315444469451,104.85316467285156,-41.45362854003906,271.3026733398437
1700075105,-0.276824951171875,0.0364837646484375,-0.2147064208984375,0.1759593188762664,-0.1962669789791107,-0.7513200640678406,106.00788879394533,-43.02793884277344,271.01397705078125
1700075105,-0.442596435546875,-0.034942626953125,0.0557098388671875,0.6200467348098755,-0.4302416741847992,-1.480743408203125,107.12014770507812,-44.826446533203125,271.0730895996094
1700075105,-0.4212493896484375,-0.181304931640625,0.4240875244140625,0.7726426720619202,-0.7066114544868469,-2.270387649536133,107.92063903808594,-47.50753784179688,271.0116577148437
1700075105,-0.2340545654296875,-0.3707122802734375,0.342498779296875,0.5692999362945557,-0.8680376410484314,-2.9127984046936035,109.0397491455078,-48.81248474121094,271.22369384765625
1700075105,0.009857177734375,-0.4882965087890625,-0.065643310546875,0.4363980889320373,-0.8514008522033691,-3.36724591255188,109.77691650390624,-50.91258239746094,271.1416931152344
1700075105,0.2257537841796875,-0.6552581787109375,-0.0906219482421875,0.2349749654531479,-0.8144271373748779,-3.63616943359375,110.30825805664062,-52.77113342285156,270.7894897460937
1700075105,0.3908843994140625,-0.799468994140625,0.0279083251953125,-0.2782958149909973,-0.8407493233680725,-3.640137195587158,110.88265991210938,-54.60617065429688,271.2335510253906
1700075105,0.507232666015625,-0.6840972900390625,-0.0077972412109375,-0.9835376143455504,-0.9184707403182985,-3.558896541595459,111.64157104492188,-56.62812805175781,271.7496643066406
1700075105,0.6123046875,-0.4050445556640625,-0.147705078125,-1.49951171875,-1.0744504928588867,-3.633818864822388,111.778076171875,-58.03022766113281,272.11181640625
1700075105,0.736785888671875,-0.2078094482421875,-0.1829071044921875,-1.7378753423690796,-1.1594446897506714,-3.832531690597534,112.2601318359375,-59.76373291015625,272.1261291503906
1700075105,0.847015380859375,-0.0418548583984375,-0.210418701171875,-1.8775850534439087,-1.173427939414978,-3.999969959259033,112.4906005859375,-61.82106018066406,272.47100830078125
1700075105,0.90667724609375,0.17108154296875,-0.2977447509765625,-1.9234178066253664,-1.2332595586776731,-4.032480239868164,112.75918579101562,-63.78440856933594,272.6877136230469
1700075105,0.9192962646484376,0.4294891357421875,-0.35870361328125,-1.8126680850982664,-1.4324644804000854,-4.094030857086182,113.006103515625,-65.65937805175781,273.603759765625
1700075105,0.9868621826171876,0.6388702392578125,-0.34942626953125,-1.6009196043014526,-1.7111904621124268,-4.266547679901123,112.62576293945312,-67.6484375,274.1195983886719
1700075105,1.091644287109375,0.8243255615234375,-0.2547149658203125,-0.961845636367798,-1.8839191198349,-4.425037860870361,112.63970947265624,-69.65951538085938,274.5079345703125
1700075105,1.126220703125,0.991607666015625,-0.107025146484375,0.2439961582422256,-1.9518954753875728,-4.435073375701904,112.26594543457033,-71.0552978515625,275.25537109375
1700075105,1.1109161376953125,1.1175689697265625,-0.0126800537109375,1.3484985828399658,-1.893281936645508,-4.45497465133667,112.50698852539062,-72.7552490234375,276.0258483886719
1700075105,1.1446075439453125,1.08917236328125,-0.089752197265625,1.866218090057373,-1.7767417430877686,-4.533920764923096,112.48214721679688,-74.17388916015625,276.29693603515625
1700075105,1.2362823486328125,0.9604034423828124,-0.249725341796875,1.8042562007904053,-1.6576465368270874,-4.511029243469238,112.10897827148438,-75.48056030273438,276.9106140136719
1700075105,1.2777099609375,0.867919921875,-0.357177734375,1.3775099515914917,-1.3633906841278076,-4.246520519256592,111.7942352294922,-76.16665649414062,277.30059814453125
1700075105,1.2449493408203125,0.850189208984375,-0.579010009765625,0.8581051230430603,-1.134286880493164,-3.839029550552368,111.92111206054688,-77.71011352539062,278.2908935546875
1700075105,1.3037872314453125,0.86431884765625,-0.75433349609375,0.2961392402648926,-1.1844451427459717,-3.534831523895264,111.44078063964844,-78.15237426757812,278.10504150390625
1700075105,1.4156341552734375,0.8375244140625,-0.723968505859375,-0.1371192336082458,-1.286643385887146,-3.306452751159668,111.4163818359375,-78.96842956542969,278.631591796875
1700075105,1.4133453369140625,0.8121185302734375,-0.6548004150390625,-0.3309084177017212,-1.3442670106887815,-3.0715389251708984,110.95782470703124,-79.81657409667969,278.9114990234375
1700075105,1.3179473876953125,0.81488037109375,-0.5376739501953125,-0.5119000673294067,-1.2792989015579224,-2.8753013610839844,111.2545166015625,-79.99964904785156,279.6892395019531
1700075105,1.1474609375,0.809326171875,-0.4624176025390625,-0.4596711993217468,-1.13787841796875,-2.6613645553588867,110.73820495605467,-80.50364685058594,279.6639404296875
1700075105,0.99310302734375,0.8258209228515625,-0.3665313720703125,-0.2755466103553772,-1.0366929769515991,-2.4114465713500977,110.6944580078125,-80.44476318359375,279.7452392578125
1700075105,0.9310455322265624,0.82733154296875,-0.25128173828125,-0.0264518465846776,-1.0343434810638428,-2.188426971435547,110.9997100830078,-80.45304870605469,280.63677978515625
1700075105,0.9257354736328124,0.8008270263671875,-0.156402587890625,0.3654592037200928,-1.0569816827774048,-2.085582733154297,110.58985900878906,-80.22453308105469,280.84332275390625
1700075105,0.9698028564453124,0.7092132568359375,-0.076904296875,0.7628915309906006,-1.0066487789154053,-2.066092014312744,110.46812438964844,-80.19149780273438,280.32098388671875
1700075105,1.00469970703125,0.5852813720703125,-0.0850677490234375,1.0394924879074097,-0.8002955913543701,-1.970419645309448,110.31849670410156,-80.22248840332031,280.30145263671875
1700075105,0.9742584228515624,0.5303802490234375,-0.2174072265625,1.1112912893295288,-0.5048400163650513,-1.735978126525879,110.7423095703125,-79.78045654296875,280.8026733398437
1700075105,0.860137939453125,0.54296875,-0.46234130859375,1.0619986057281494,-0.3332887589931488,-1.4084571599960327,110.97398376464844,-79.32356262207031,280.95025634765625
1700075105,0.733001708984375,0.5562744140625,-0.5992889404296875,1.005846381187439,-0.3682405948638916,-1.0410133600234983,111.0159912109375,-78.53056335449219,281.38330078125
1700075105,0.7152557373046875,0.518310546875,-0.5066986083984375,0.9250586032867432,-0.3851921558380127,-0.7634880542755127,111.0435028076172,-78.61836242675781,281.7783203125
1700075105,0.8164520263671875,0.391510009765625,-0.340576171875,0.6986270546913147,-0.2649858593940735,-0.5621144771575928,111.07513427734376,-77.8363037109375,282.4278564453125
1700075105,0.8612823486328125,0.2499542236328125,-0.2647857666015625,0.2883162200450897,-0.1421584784984588,-0.2693017721176147,111.12962341308594,-78.03340148925781,281.6791381835937
1700075105,0.8338470458984375,0.215911865234375,-0.253570556640625,-0.1256482005119323,-0.0908231139183044,-0.0238672494888305,111.11624145507812,-77.21058654785156,281.91265869140625
1700075105,0.8000946044921875,0.135711669921875,-0.20947265625,-0.4519938230514526,-0.0147176934406161,0.202203169465065,111.3550262451172,-76.85111999511719,281.66900634765625
1700075105,0.8026885986328125,0.06195068359375,-0.1923980712890625,-0.7462443709373474,0.174765944480896,0.4337636828422546,111.3544921875,-76.96710205078125,282.0426025390625
1700075105,0.767120361328125,0.0400390625,-0.2764739990234375,-0.9847291111946106,0.4229336678981781,0.6931174993515015,111.73762512207033,-75.90702819824219,282.5541687011719
1700075105,0.663543701171875,0.069671630859375,-0.3999786376953125,-1.1805012226104736,0.7353379130363464,1.063241720199585,111.6570281982422,-75.62533569335938,282.1942138671875
1700075105,0.5648040771484375,0.1840362548828125,-0.529815673828125,-1.3414406776428225,0.9406423568725586,1.297381043434143,111.8773956298828,-74.96392822265625,282.1290283203125
1700075105,0.490203857421875,0.317840576171875,-0.74676513671875,-1.1714465618133545,0.7695251703262329,1.3868720531463623,111.96563720703124,-74.11061096191406,282.4642944335937
1700075105,0.698577880859375,0.2967987060546875,-0.5260162353515625,-1.0370631217956543,0.915003538131714,1.2847621440887451,112.2188720703125,-73.70068359375,282.1117553710937
1700075105,1.0597686767578125,0.1324920654296875,-0.5076141357421875,-0.6579741835594177,3.325591802597046,1.571921467781067,112.88882446289062,-72.73844909667969,281.3399658203125
1700075105,0.3224334716796875,0.5049896240234375,-2.25872802734375,0.1875579059123993,2.7639479637146,2.196277618408203,113.3385772705078,-71.54029846191406,279.517333984375
1700075105,0.1122894287109375,1.0830535888671875,-2.3418121337890625,-0.1609606593847274,-1.267076849937439,1.952878475189209,113.79963684082033,-70.67581176757812,280.1698608398437
1700075105,3.1631317138671875,0.4023284912109375,1.2005462646484375,0.2610446512699127,0.1323034465312957,0.1927231103181839,113.79132080078124,-70.75080871582031,280.3292236328125
1700075105,3.581405639648437,-0.9886474609375,0.00372314453125,1.7891923189163208,1.1924444437026978,-0.4783311486244201,114.5703582763672,-71.44329833984375,278.8408203125
1700075105,1.9038848876953125,-1.02008056640625,0.609100341796875,2.003154993057251,1.4711061716079712,0.3728681206703186,114.79444885253906,-71.68135070800781,277.5549621582031
1700075105,0.842132568359375,-0.5361175537109375,0.73138427734375,1.1443829536437988,1.1367335319519043,1.341862678527832,114.94049072265624,-71.82710266113281,276.377197265625
1700075105,0.3986358642578125,-0.2994537353515625,0.0810546875,0.0857218280434608,0.8549532890319824,1.394157886505127,115.23332214355467,-71.50430297851562,276.0260009765625
1700075105,0.5418853759765625,-0.469085693359375,-0.2335205078125,-0.4722330570220947,0.9432231783866882,0.7952768802642822,115.29380798339844,-71.02603149414062,275.80621337890625
1700075105,1.0348052978515625,-0.7042236328125,-0.1913299560546875,-0.6981695294380188,0.998140811920166,0.869860053062439,115.43089294433594,-71.05291748046875,275.60333251953125
1700075105,1.430694580078125,-0.3930511474609375,-0.04168701171875,-1.0142742395401,0.8631930947303772,1.3219531774520874,115.55865478515624,-70.37034606933594,274.9685974121094
1700075105,1.7576904296875,-0.0029144287109375,-0.1090087890625,-0.9964566230773926,0.7857435941696167,1.4916620254516602,115.49984741210938,-68.63471984863281,275.15399169921875
1700075105,1.936065673828125,0.12451171875,-0.1969146728515625,-0.565977931022644,0.4942065179347992,1.427762150764465,115.32290649414062,-67.57421875,274.166259765625
1700075105,1.65142822265625,0.248138427734375,-0.1569976806640625,-0.4868080019950866,0.2061664909124374,1.239362716674805,115.15373229980467,-66.69223022460938,274.63360595703125
1700075105,1.2702789306640625,0.35479736328125,-0.1954345703125,-0.8863234519958496,0.2548501193523407,1.010324001312256,115.2528839111328,-66.07594299316406,274.58843994140625
1700075105,1.2318572998046875,0.2911224365234375,-0.265289306640625,-0.6666517853736877,0.5129831433296204,0.7374793887138367,115.2284698486328,-65.2220458984375,273.6932983398437
1700075105,1.4424896240234375,0.0369110107421875,-0.1269683837890625,-0.0927773416042327,0.5802343487739563,0.8130825161933899,114.93934631347656,-64.55294799804688,272.9427185058594
1700075105,1.4727020263671875,0.1025848388671875,-0.1104278564453125,0.1498747169971466,0.4517075419425964,1.0379955768585205,114.70062255859376,-63.50700378417969,273.2158508300781
1700075105,1.3480682373046875,0.299468994140625,-0.2534027099609375,0.0893610417842865,0.3267717361450195,0.9264112114906312,114.80812072753906,-63.720062255859375,272.6012878417969
1700075105,1.231689453125,0.309722900390625,-0.3082275390625,-0.0421639643609523,0.3237426578998565,0.6494618654251099,114.6342315673828,-63.83509826660156,272.821533203125
1700075105,1.001739501953125,0.22467041015625,-0.3159637451171875,0.0596886314451694,0.3507119417190552,0.4744546711444855,114.7151336669922,-63.73802185058594,273.6148986816406
1700075105,0.79705810546875,0.095123291015625,-0.31793212890625,0.2934673130512237,0.232011392712593,0.3796061873435974,114.42756652832033,-64.03581237792969,272.7774658203125
1700075105,0.8024139404296875,-0.0208740234375,-0.3833160400390625,0.3331420123577118,0.0330202691257,0.3851538002490997,115.17195129394533,-64.04032897949219,273.0546569824219
1700075105,0.88787841796875,0.028289794921875,-0.4815216064453125,0.1469257920980453,-0.0746606588363647,0.4579713046550751,114.51708984375,-63.984649658203125,273.38800048828125
1700075105,0.9315032958984376,0.20166015625,-0.4718475341796875,-0.0404893681406974,-0.0640237256884574,0.4135186076164245,114.65406799316406,-63.945159912109375,273.30145263671875
1700075105,0.9815826416015624,0.314910888671875,-0.331512451171875,-0.0513145849108696,0.0195952728390693,0.2936119139194488,114.42100524902344,-63.90959167480469,273.67742919921875
1700075105,0.9850311279296876,0.3477020263671875,-0.2018280029296875,0.0572294667363166,0.09780965000391,0.2119221091270446,114.91050720214844,-64.07914733886719,273.2688903808594
1700075105,0.9365234375,0.347381591796875,-0.2096099853515625,0.1571504771709442,0.1182187870144844,0.155486524105072,114.90097045898438,-63.92413330078125,273.95709228515625
1700075105,0.944976806640625,0.2604217529296875,-0.2706146240234375,0.1670238822698593,0.1400428563356399,0.1718724220991134,114.67787170410156,-63.804718017578125,273.96661376953125
1700075105,0.9427032470703124,0.14996337890625,-0.320465087890625,0.1038475707173347,0.1416026651859283,0.2674990892410278,114.89990234375,-63.58721923828125,273.2179260253906
1700075105,0.914947509765625,0.0719451904296875,-0.356964111328125,0.0005795038305222,0.1269946992397308,0.394849568605423,114.71681213378906,-63.43687438964844,273.5386657714844
1700075105,0.900848388671875,0.0265960693359375,-0.37518310546875,-0.0476543381810188,0.1168027818202972,0.5194641947746277,114.22669982910156,-63.61175537109375,273.515625
1700075105,0.88134765625,0.0215911865234375,-0.3666229248046875,-0.0564124099910259,0.1204617023468017,0.6112167835235596,114.05697631835938,-63.35096740722656,273.94775390625
1700075105,0.8792877197265625,0.0522308349609375,-0.3349151611328125,-0.0225758831948041,0.1428751349449157,0.6670856475830078,114.41136169433594,-62.91177368164063,273.5386962890625
1700075105,0.887969970703125,0.089630126953125,-0.3018798828125,0.0838869139552116,0.1954387426376342,0.7262094020843506,114.5616455078125,-62.56562805175781,273.5191955566406
1700075105,0.8763885498046875,0.11395263671875,-0.2632904052734375,0.2183195501565933,0.2425593733787536,0.8024144172668457,114.4980010986328,-62.0618896484375,273.6424865722656
1700075105,0.867156982421875,0.125152587890625,-0.219879150390625,0.2696914076805115,0.3069996237754822,0.8832389712333679,114.66535949707033,-61.14791870117188,273.37762451171875
1700075106,0.8580780029296875,0.133392333984375,-0.2426605224609375,0.3049351274967193,0.3612058758735657,0.915888011455536,114.08563232421876,-60.97613525390625,273.2247314453125
1700075106,0.860992431640625,0.096221923828125,-0.296478271484375,0.3217010796070099,0.403733342885971,0.9482547044754028,114.21304321289062,-60.19831848144531,273.3119201660156
1700075106,0.865234375,0.05828857421875,-0.2886962890625,0.3193428516387939,0.4454219341278076,0.995160698890686,113.84022521972656,-59.41206359863281,272.985595703125
1700075106,0.864501953125,0.0606231689453125,-0.308624267578125,0.2761804461479187,0.458465039730072,1.0023645162582395,113.8119659423828,-58.996337890625,272.30108642578125
1700075106,0.8689727783203125,0.153106689453125,-0.35284423828125,0.2336622923612594,0.447856068611145,0.9734650254249572,113.15910339355467,-57.72613525390625,272.0423278808594
1700075106,0.93017578125,0.2813262939453125,-0.362762451171875,0.2808378040790558,0.4754775762557983,0.9385663866996764,112.8157196044922,-56.89320373535156,271.83251953125
1700075106,0.9879913330078124,0.341949462890625,-0.321807861328125,0.4109768867492676,0.5198831558227539,0.9487245082855223,112.69642639160156,-56.04505920410156,271.8486328125
1700075106,0.9959869384765624,0.285888671875,-0.2816009521484375,0.5886864066123962,0.5553572177886963,1.0326710939407349,112.0451202392578,-54.87168884277344,271.5044860839844
1700075106,0.9437408447265624,0.1732177734375,-0.3152923583984375,0.7239582538604736,0.5975603461265564,1.1961052417755127,112.042724609375,-54.316650390625,271.12310791015625
1700075106,0.8791351318359375,0.0987701416015625,-0.3341827392578125,0.7365437746047974,0.6576484441757202,1.3735905885696411,111.59841918945312,-53.48570251464844,270.6850280761719
1700075106,0.8509063720703125,0.0615997314453125,-0.3182373046875,0.7118530869483948,0.7328300476074219,1.5179078578948977,111.28306579589844,-52.189788818359375,271.0109558105469
1700075106,0.825714111328125,0.0445709228515625,-0.289764404296875,0.6370771527290344,0.8161901831626892,1.6338796615600586,110.82992553710938,-51.17948913574219,270.3348083496094
1700075106,0.792999267578125,0.0842132568359375,-0.31707763671875,0.5611674785614014,0.8375995755195618,1.672607660293579,110.3983917236328,-50.126739501953125,270.0314636230469
1700075106,0.8016204833984375,0.1935882568359375,-0.3455963134765625,0.5662607550621033,0.8302702903747559,1.669644832611084,109.64543151855467,-48.905029296875,270.0116882324219
1700075106,0.84527587890625,0.345916748046875,-0.3727874755859375,0.6339593529701233,0.8109064698219299,1.6694624423980713,109.34832763671876,-48.26701354980469,270.00103759765625
1700075106,0.870208740234375,0.5079803466796875,-0.4020233154296875,0.7135580778121948,0.7673217058181763,1.6390094757080078,109.12174987792967,-47.22328186035156,269.67108154296875
1700075106,0.89373779296875,0.58184814453125,-0.4167633056640625,0.8202911615371704,0.7628353238105774,1.615027904510498,108.43450927734376,-46.26739501953125,269.369384765625
1700075106,0.895843505859375,0.5259246826171875,-0.4528045654296875,0.9300589561462402,0.7563329339027405,1.5678385496139526,107.74526977539062,-45.45616149902344,269.61700439453125
1700075106,0.9636688232421876,0.3948211669921875,-0.467987060546875,0.9348185658454896,0.7139135599136353,1.6637721061706543,107.10389709472656,-44.08183288574219,269.6497497558594
1700075106,0.9882049560546876,0.3401031494140625,-0.496337890625,0.9242202043533324,0.6720055341720581,1.9077783823013303,106.5631866455078,-42.4957275390625,269.38140869140625
1700075106,0.946868896484375,0.292266845703125,-0.4668426513671875,0.8318801522254944,0.6690537333488464,2.0905861854553223,105.56170654296876,-41.156494140625,268.6776733398437
1700075106,1.0470428466796875,0.30828857421875,-0.411346435546875,0.7163873910903931,0.6631550788879395,2.2265098094940186,104.70867919921876,-40.10626220703125,268.65838623046875
1700075106,1.125732421875,0.3939056396484375,-0.4041900634765625,0.7084024548530579,0.6754535436630249,2.3403806686401367,103.84196472167967,-38.86456298828125,268.396240234375
1700075106,1.113677978515625,0.462066650390625,-0.4369354248046875,0.7658055424690247,0.6877784132957458,2.424736976623535,102.79617309570312,-37.81846618652344,268.24237060546875
1700075106,1.200439453125,0.487274169921875,-0.4530181884765625,0.786919355392456,0.6883922219276428,2.542709827423096,102.27040100097656,-36.95396423339844,268.5127868652344
1700075106,1.3600006103515625,0.475128173828125,-0.429168701171875,0.7502779960632324,0.6638738512992859,2.6725871562957764,101.31629943847656,-36.132598876953125,268.35302734375
1700075106,1.3469085693359375,0.3743438720703125,-0.4826812744140625,0.7723326683044434,0.5876421928405762,2.775407075881958,100.05720520019533,-34.99085998535156,268.8086853027344
1700075106,1.2178497314453125,0.4379119873046875,-0.575103759765625,0.7598195672035217,0.5139567852020264,2.7566022872924805,98.82501220703124,-33.52873229980469,268.19952392578125
1700075106,1.2162628173828125,0.5640869140625,-0.5352020263671875,0.7753815054893494,0.4576343894004822,2.7035460472106934,97.99819946289062,-32.573944091796875,268.48651123046875
1700075106,1.195159912109375,0.6137847900390625,-0.514190673828125,0.8543180823326111,0.3570039272308349,2.6341583728790283,96.05068969726562,-31.369369506835938,268.8389587402344
1700075106,1.243621826171875,0.5982666015625,-0.534881591796875,0.8916258215904236,0.2322100698947906,2.5450327396392822,94.8996124267578,-30.422119140625,269.02752685546875
1700075106,1.4129638671875,0.561981201171875,-0.501983642578125,0.8404518365859985,0.072577528655529,2.457117080688477,93.27554321289062,-29.15513610839844,268.8665771484375
1700075106,1.5626220703125,0.49835205078125,-0.4589080810546875,0.7015738487243652,-0.1065605282783508,2.3962013721466064,91.7816162109375,-28.385238647460938,269.393310546875
1700075106,1.584136962890625,0.4261932373046875,-0.424530029296875,0.4191772937774658,-0.1836063116788864,2.255453824996948,90.39508056640624,-27.64706420898437,269.1591796875
1700075106,1.4780120849609375,0.30035400390625,-0.41949462890625,0.3798426687717438,-0.1972898989915847,1.8891156911849976,89.1463623046875,-27.11485290527344,268.4986267089844
1700075106,1.28924560546875,0.1025848388671875,-0.390869140625,0.52460116147995,-0.2359012067317962,1.6075955629348757,87.87559509277344,-26.59486389160156,268.8554077148437
1700075106,0.939422607421875,0.0391082763671875,-0.45892333984375,0.0181281380355358,-0.2658628225326538,1.706845760345459,87.02766418457031,-26.193893432617188,268.6417236328125
1700075106,0.4156341552734375,0.2812042236328125,-0.62420654296875,-0.7400131225585938,-0.0816245526075363,1.5531898736953735,86.21377563476562,-25.770339965820312,267.8092346191406
1700075106,0.0511932373046875,0.3640289306640625,-0.5772552490234375,-1.0654703378677368,0.036384105682373,1.0457711219787598,85.58383178710938,-26.25421142578125,268.0092468261719
1700075106,-0.126495361328125,0.2329864501953125,-0.3367462158203125,-0.888307511806488,-0.21661938726902,0.4327934980392456,85.39842224121094,-26.0972900390625,267.52032470703125
1700075106,-0.280242919921875,0.03948974609375,-0.035858154296875,-0.5155829191207886,-0.4921806752681732,-0.1749814003705978,85.79788208007812,-26.28120422363281,267.7553100585937
1700075106,-0.3453521728515625,-0.227783203125,0.27191162109375,-0.1861621439456939,-0.8223138451576233,-0.9502467513084412,86.2039794921875,-26.857208251953125,267.9635009765625
1700075106,-0.179779052734375,-0.454864501953125,0.4072723388671875,-0.3299954831600189,-1.0312635898590088,-1.7256559133529663,87.14645385742188,-27.46005249023437,268.53204345703125
1700075106,0.0517120361328125,-0.4636993408203125,0.065887451171875,-0.3528698980808258,-1.156010627746582,-2.2664599418640137,88.26008605957031,-27.82647705078125,268.504638671875
1700075106,0.1536712646484375,-0.4113616943359375,-0.1309356689453125,-0.205565944314003,-1.2248892784118652,-2.691995143890381,89.53817749023438,-29.181121826171875,269.0189819335937
1700075106,0.305450439453125,-0.4264068603515625,-0.04583740234375,-0.1069544106721878,-1.2448810338974,-3.0167229175567627,90.50813293457033,-29.89727783203125,268.9427185058594
1700075106,0.436187744140625,-0.346221923828125,-0.0284881591796875,-0.1698926389217376,-1.2565851211547852,-3.226971387863159,92.15476989746094,-30.80865478515625,268.9844970703125
1700075106,0.4992828369140625,-0.1755218505859375,-0.067962646484375,-0.401459276676178,-1.2811304330825806,-3.397836208343506,93.693359375,-31.561080932617188,269.31658935546875
1700075106,0.5794219970703125,-0.0620574951171875,-0.1037139892578125,-0.7208681702613831,-1.332424283027649,-3.5900912284851074,94.36228942871094,-32.66571044921875,268.7861328125
1700075106,0.654388427734375,-0.0211181640625,-0.11865234375,-1.006833553314209,-1.3368022441864014,-3.826570272445679,95.83889770507812,-33.64588928222656,268.56109619140625
1700075106,0.723968505859375,-0.0226593017578125,-0.1345062255859375,-1.3255194425582886,-1.3163408041000366,-4.044055938720703,97.34637451171876,-34.672943115234375,269.13165283203125
1700075106,0.7879180908203125,0.0261993408203125,-0.1849822998046875,-1.7455604076385498,-1.3359547853469849,-4.175802707672119,98.57135009765624,-35.69236755371094,268.37115478515625
1700075106,0.8758087158203125,0.1114501953125,-0.2246551513671875,-2.1063790321350098,-1.4279075860977173,-4.158437252044678,99.68284606933594,-36.75926208496094,268.01470947265625
1700075106,0.968505859375,0.214569091796875,-0.18109130859375,-2.1485161781311035,-1.586612582206726,-4.0963945388793945,101.22149658203124,-38.44000244140625,268.1187744140625
1700075106,1.059234619140625,0.3032684326171875,-0.12176513671875,-1.6931999921798706,-1.7735984325408936,-4.078383445739746,102.69692993164062,-40.28314208984375,269.1208190917969
1700075106,1.1055908203125,0.416412353515625,-0.1469879150390625,-0.5651670098304749,-1.8631157875061035,-4.172598838806152,103.9473114013672,-41.74311828613281,270.24810791015625
1700075106,1.0994873046875,0.5705413818359375,-0.2516326904296875,0.7174105644226074,-1.8679946660995483,-4.411972999572754,105.20083618164062,-43.84690856933594,271.3246459960937
1700075106,1.098175048828125,0.7360076904296875,-0.4196624755859375,1.5335078239440918,-2.006488561630249,-4.578654766082764,106.2647705078125,-45.72393798828125,272.35028076171875
1700075106,1.1433868408203125,0.993988037109375,-0.3612823486328125,1.6971566677093506,-2.1143271923065186,-4.619146347045898,107.27517700195312,-47.64671325683594,273.921875
1700075106,1.21051025390625,1.273834228515625,-0.2013397216796875,1.6777901649475098,-1.7177873849868774,-4.756202220916748,108.470947265625,-49.828399658203125,275.015380859375
1700075106,1.2388458251953125,1.327178955078125,-0.2714080810546875,1.85117769241333,-1.2676087617874146,-4.820213794708252,109.31240844726562,-51.54425048828125,275.459716796875
1700075106,1.27484130859375,1.1700439453125,-0.292938232421875,1.5929884910583496,-0.91042560338974,-4.657800674438477,109.63525390625,-53.00096130371094,276.0943298339844
1700075106,1.301544189453125,1.074249267578125,-0.4831390380859375,0.900867223739624,-0.8864094614982605,-4.425992012023926,110.00860595703124,-54.82347106933594,276.5025634765625
1700075106,1.33074951171875,0.91278076171875,-0.567230224609375,-0.0470322221517562,-0.9679847359657288,-4.089595317840576,110.40782165527344,-55.77880859375,277.31158447265625
1700075106,1.3716278076171875,0.75970458984375,-0.5536956787109375,-0.7349680066108704,-1.0293269157409668,-3.60050106048584,110.67317199707033,-57.27214050292969,278.323974609375
1700075106,1.379974365234375,0.706268310546875,-0.49737548828125,-0.9313250184059144,-0.9838963150978088,-3.0110440254211426,111.23350524902344,-58.19406127929688,279.033935546875
1700075106,1.2288665771484375,0.7229461669921875,-0.5737762451171875,-1.1695759296417236,-1.0439794063568115,-2.57273530960083,111.4716339111328,-59.29356384277344,279.0999450683594
1700075106,0.9513397216796876,0.6627655029296875,-0.6374053955078125,-1.351112723350525,-1.1170480251312256,-2.150160789489746,111.82789611816406,-60.74432373046875,279.794677734375
1700075106,0.82818603515625,0.6034698486328125,-0.5440521240234375,-1.3174545764923096,-1.132413387298584,-1.7776235342025757,111.7689208984375,-61.51307678222656,280.3041381835937
1700075106,0.8851318359375,0.564849853515625,-0.412994384765625,-1.2195591926574707,-1.057701826095581,-1.5057827234268188,112.58953857421876,-62.73069763183594,281.09832763671875
1700075106,0.951080322265625,0.5703277587890625,-0.3256683349609375,-1.0721982717514038,-0.8819020390510559,-1.323166847229004,112.34478759765624,-64.01856994628906,281.35626220703125
1700075106,0.9881439208984376,0.6211395263671875,-0.2995758056640625,-0.723197340965271,-0.7708940505981445,-1.2160142660140991,112.27810668945312,-65.04432678222656,282.04266357421875
1700075106,0.957794189453125,0.6685333251953125,-0.241241455078125,-0.2302718162536621,-0.6303494572639465,-1.0934710502624512,112.71656799316406,-66.12844848632812,282.162109375
1700075106,0.8713531494140625,0.687042236328125,-0.183837890625,0.2047741860151291,-0.4242620766162872,-0.9300437569618224,112.8797607421875,-66.42721557617188,283.13916015625
1700075106,0.830718994140625,0.6416473388671875,-0.16815185546875,0.4350042045116424,-0.1922541260719299,-0.6644365787506104,112.88839721679688,-67.09300231933594,283.18072509765625
1700075106,0.7396240234375,0.5872802734375,-0.2501678466796875,0.4677863717079162,0.0148780159652233,-0.3565256297588348,112.85040283203124,-67.68907165527344,283.2607116699219
1700075106,0.6267852783203125,0.5207977294921875,-0.3753814697265625,0.3415527939796448,0.2064101696014404,0.0001549959706608,112.9855499267578,-67.94744873046875,283.6893310546875
1700075106,0.543212890625,0.4564361572265625,-0.4987335205078125,0.1409299522638321,0.4494656920433044,0.3812107443809509,113.2301788330078,-67.90577697753906,284.05291748046875
1700075106,0.4854888916015625,0.3790283203125,-0.596893310546875,-0.046880155801773,0.5946418046951294,0.6725757122039795,113.57156372070312,-67.39939880371094,283.9114685058594
1700075106,0.4922943115234375,0.2465362548828125,-0.5744476318359375,-0.2436587363481521,0.5931288599967957,0.8611816167831421,113.61090087890624,-66.87159729003906,284.1662902832031
1700075106,0.609527587890625,0.0910186767578125,-0.4199371337890625,-0.4863017201423645,0.5586289167404175,1.1042288541793823,114.03425598144533,-66.37773132324219,283.8051452636719
1700075106,0.72845458984375,0.0488433837890625,-0.3042144775390625,-0.915429413318634,0.845204770565033,1.387211799621582,114.47012329101562,-65.57273864746094,283.8538818359375
1700075106,0.679046630859375,0.180511474609375,-0.55108642578125,-1.320267677307129,1.0578757524490356,1.4387344121932983,114.77520751953124,-64.63067626953125,283.294677734375
1700075106,0.5407257080078125,0.15936279296875,-0.7024993896484375,-1.368246078491211,2.1019201278686523,1.4423850774765017,114.605712890625,-63.89572143554688,282.9220886230469
1700075106,0.573211669921875,0.151092529296875,-1.2160797119140625,-0.4394567310810089,5.0499420166015625,1.8526564836502075,115.23129272460938,-63.033447265625,282.1776733398437
1700075106,-0.3329925537109375,0.9437103271484376,-3.6805419921875,-0.3873306810855865,0.0235079899430274,2.500662088394165,115.71418762207033,-61.43193054199219,280.253173828125
1700075106,1.5311737060546875,1.0516204833984375,-0.160369873046875,-0.6480693221092224,-0.7963789105415344,0.9773311018943788,116.23910522460938,-60.54833984375,279.63653564453125
1700075106,4.567474365234375,-0.7158203125,1.136505126953125,1.0446515083312988,1.1855913400650024,-0.4367064833641052,116.41673278808594,-60.26657104492188,280.223876953125
1700075106,3.09674072265625,-1.2853546142578125,0.0142364501953125,2.1899476051330566,1.5409241914749146,-0.0310758929699659,116.94651794433594,-60.42695617675781,280.3944091796875
1700075106,1.52996826171875,-0.855316162109375,1.238861083984375,1.7994611263275146,1.4399347305297852,1.3057191371917725,117.38941955566406,-61.34585571289063,279.5585327148437
1700075106,0.4954681396484375,-0.3772735595703125,0.5446014404296875,0.70002281665802,1.016689419746399,1.6237090826034546,117.66764831542967,-61.30345153808594,279.2685852050781
1700075106,0.275787353515625,-0.41375732421875,-0.0165252685546875,-0.3597919940948486,1.0253920555114746,1.2205288410186768,117.59454345703124,-60.64208984375,278.6695861816406
1700075106,0.718292236328125,-0.533782958984375,-0.055450439453125,-1.1131699085235596,1.232701063156128,1.3034300804138184,117.39363098144533,-59.84162902832031,278.322021484375
1700075106,1.3267059326171875,-0.194671630859375,0.018035888671875,-1.5469231605529783,1.1316066980361938,1.6701929569244385,117.83863830566406,-59.47198486328125,277.2508850097656
1700075106,1.8719024658203125,0.1941375732421875,-0.018890380859375,-1.3607549667358398,0.7114093899726868,1.9017508029937744,118.00270080566406,-58.93894958496094,277.1684265136719
1700075106,2.1621246337890625,0.50726318359375,-0.08349609375,-1.2418160438537598,0.3599507212638855,1.692766189575195,117.90866088867188,-57.69493103027344,276.18377685546875
1700075106,2.2759246826171875,0.641845703125,-0.1540985107421875,-0.8767648339271545,0.7026918530464172,0.9425800442695618,117.60693359375,-56.87226867675781,276.2607421875
1700075106,2.487030029296875,0.326324462890625,0.0189361572265625,0.2194583266973495,1.2674816846847534,0.7254527807235718,117.63204956054688,-55.750030517578125,275.5874328613281
1700075106,1.9763641357421875,-0.0352783203125,0.168243408203125,0.8722225427627563,1.178327560424805,0.9953641891479492,117.71424865722656,-55.10023498535156,275.9286499023437
1700075106,1.0228729248046875,0.033050537109375,-0.30902099609375,0.9960067868232728,0.612827479839325,1.0986777544021606,117.3878173828125,-54.41294860839844,275.0771789550781
1700075107,0.5500030517578125,0.132659912109375,-0.8538970947265625,0.6001630425453186,0.088959164917469,0.9144467115402222,117.10310363769533,-54.10493469238281,274.4948425292969
1700075107,0.4892425537109375,0.1870574951171875,-1.00469970703125,0.1003969088196754,-0.1930384337902069,0.6374254822731018,117.13127136230467,-53.69947814941406,274.5829467773437
1700075107,0.779937744140625,0.3253326416015625,-0.6379852294921875,0.0754422917962074,-0.1531330943107605,0.3576513528823852,117.38662719726562,-53.01324462890625,273.45147705078125
1700075107,1.021270751953125,0.44305419921875,-0.1707305908203125,0.080044500529766,-0.0878150761127471,0.1297281682491302,117.0880126953125,-52.557403564453125,274.0849609375
1700075107,0.95037841796875,0.522491455078125,-0.20806884765625,0.1007026433944702,-0.1371472030878067,-0.1063725128769874,116.8551788330078,-52.34214782714844,273.660888671875
1700075107,0.9759521484375,0.470367431640625,-0.397735595703125,0.1595664918422699,-0.225268006324768,-0.2520506083965301,117.09048461914062,-52.28189086914063,273.66943359375
1700075107,1.0685272216796875,0.3658447265625,-0.37799072265625,0.120452381670475,-0.2497837394475937,-0.287363588809967,116.94978332519533,-51.867767333984375,273.9645690917969
1700075107,1.061370849609375,0.245819091796875,-0.3297119140625,0.0238587278872728,-0.1993514597415924,-0.2427599132061004,116.46856689453124,-51.42997741699219,273.3932800292969
1700075107,1.03924560546875,0.1096954345703125,-0.31182861328125,-0.0850706845521926,-0.1440112292766571,-0.1452677100896835,116.774169921875,-51.08740234375,274.0625
1700075107,1.0287628173828125,0.0054168701171875,-0.309906005859375,-0.1722708344459533,-0.1530292332172393,-0.0316796340048313,116.868408203125,-50.91166687011719,273.2687683105469
1700075107,0.9704132080078124,-0.056304931640625,-0.33660888671875,-0.1468871831893921,-0.1856585443019867,0.0508709028363227,116.37254333496094,-50.54493713378906,273.453125
1700075107,0.89984130859375,-0.074737548828125,-0.3441314697265625,0.0165440887212753,-0.192392885684967,0.0997843816876411,116.3321533203125,-50.68658447265625,273.6346435546875
1700075107,0.8314666748046875,-0.031158447265625,-0.3216400146484375,0.1992563754320144,-0.1763827502727508,0.1045879274606704,116.09465026855467,-50.83120727539063,273.60479736328125
1700075107,0.799835205078125,0.041778564453125,-0.293212890625,0.3131187558174133,-0.1583630144596099,0.0788239762187004,116.2506866455078,-50.61343383789063,273.7198791503906
1700075107,0.8326873779296875,0.1088104248046875,-0.292877197265625,0.3591110110282898,-0.1408543288707733,0.0731208175420761,116.06338500976562,-50.38993835449219,273.463134765625
1700075107,0.8926544189453125,0.162750244140625,-0.2940521240234375,0.2903213202953338,-0.1062428131699562,0.095088429749012,115.94822692871094,-50.04084777832031,273.808837890625
1700075107,0.9324798583984376,0.1705169677734375,-0.2783966064453125,0.1625758558511734,-0.0402217209339141,0.1416679173707962,115.9541473388672,-49.84185791015625,272.84527587890625
1700075107,0.941986083984375,0.123870849609375,-0.239501953125,0.0202504098415374,0.0389921404421329,0.2450947016477584,115.90121459960938,-49.33210754394531,272.9010925292969
1700075107,0.928436279296875,0.054595947265625,-0.2263336181640625,-0.085551917552948,0.1073360443115234,0.3982187509536743,115.94400024414062,-48.96134948730469,272.8280029296875
1700075107,0.9038543701171876,-0.0193634033203125,-0.237091064453125,-0.1219370886683464,0.1683924794197082,0.5899447798728943,115.90374755859376,-48.58226013183594,272.6070556640625
1700075107,0.8836822509765625,-0.0950164794921875,-0.2313232421875,-0.0643169358372688,0.2510024011135101,0.7854146957397461,115.48129272460938,-48.28361511230469,272.78350830078125
1700075107,0.8626251220703125,-0.1613311767578125,-0.223480224609375,0.0649201422929763,0.3620626032352447,0.9846872687339784,115.3978271484375,-47.68141174316406,272.6879577636719
1700075107,0.8444061279296875,-0.1869659423828125,-0.2170562744140625,0.1761475950479507,0.4761817157268524,1.1471185684204102,115.09291076660156,-47.31040954589844,272.42449951171875
1700075107,0.87579345703125,-0.1728515625,-0.167083740234375,0.2550999522209167,0.5918641090393066,1.29223370552063,114.79013061523438,-46.68351745605469,272.530517578125
1700075107,0.908782958984375,-0.08013916015625,-0.17059326171875,0.3385412991046905,0.647789716720581,1.3883897066116333,114.2330322265625,-46.10809326171875,272.0882568359375
1700075107,0.9025726318359376,0.031036376953125,-0.2302703857421875,0.4298200905323028,0.6812161207199097,1.431370735168457,113.94395446777344,-45.81491088867188,272.0223999023437
1700075107,0.8695068359375,0.11669921875,-0.3263702392578125,0.5311597585678101,0.6812427043914795,1.4433441162109375,114.21180725097656,-45.16716003417969,271.7554626464844
1700075107,0.8364410400390625,0.2132110595703125,-0.36029052734375,0.609097957611084,0.6885472536087036,1.4433653354644775,113.76170349121094,-44.7386474609375,271.16046142578125
1700075107,0.858917236328125,0.3083648681640625,-0.315032958984375,0.6588460803031921,0.7300664782524109,1.420698165893555,113.37696838378906,-44.18501281738281,271.29742431640625
1700075107,0.9160308837890624,0.36199951171875,-0.2592620849609375,0.7085369229316711,0.7814393639564514,1.4168155193328855,113.30860900878906,-43.85882568359375,271.1747436523437
1700075107,0.958251953125,0.3406524658203125,-0.2598876953125,0.8060834407806396,0.8222815990447998,1.4638099670410156,112.97865295410156,-42.86186218261719,270.6064147949219
1700075107,0.9771881103515624,0.249542236328125,-0.2998809814453125,0.8466939926147461,0.8478410243988037,1.5802817344665527,112.6859893798828,-42.24205017089844,271.416015625
1700075107,0.9804534912109376,0.1571807861328125,-0.336883544921875,0.7706950902938843,0.8449219465255737,1.714603304862976,112.11740112304688,-41.273834228515625,270.77764892578125
1700075107,0.95648193359375,0.10113525390625,-0.37274169921875,0.7088344097137451,0.8392030596733093,1.934231519699097,111.65921020507812,-40.55732727050781,270.4927978515625
1700075107,0.81085205078125,0.1217803955078125,-0.4311981201171875,0.5947539210319519,0.8289373517036438,2.0042531490325928,111.18910217285156,-39.76795959472656,270.480224609375
1700075107,0.696563720703125,0.2326812744140625,-0.4664459228515625,0.531758725643158,0.8256300091743469,1.9150866270065308,110.53347778320312,-38.87515258789063,269.7106018066406
1700075107,0.73358154296875,0.40948486328125,-0.3817901611328125,0.5685665011405945,0.877549409866333,1.8346495628356927,109.89309692382812,-38.017974853515625,270.0672607421875
1700075107,0.806304931640625,0.5302886962890625,-0.319427490234375,0.7467053532600403,0.8918207287788391,1.789476752281189,109.2987060546875,-37.18568420410156,269.59979248046875
1700075107,0.85870361328125,0.54248046875,-0.3628997802734375,0.9191756844520568,0.8394368886947632,1.8533265590667725,108.98854064941406,-36.51275634765625,269.3546142578125
1700075107,0.9783782958984376,0.5761566162109375,-0.410552978515625,0.9378278851509094,0.8359153866767883,1.8715455532073968,108.29037475585938,-35.82633972167969,269.8415222167969
1700075107,1.2946624755859375,0.5164031982421875,-0.3961334228515625,0.8896287083625793,0.8331300020217896,1.9861564636230469,107.64926147460938,-35.03486633300781,269.48565673828125
1700075107,1.4054718017578125,0.3590850830078125,-0.387969970703125,0.8640738129615784,0.8640263676643372,2.225305795669556,107.0955047607422,-34.44160461425781,269.50390625
1700075107,1.15081787109375,0.0986328125,-0.4057769775390625,0.820853590965271,0.922458827495575,2.496436834335327,106.1549835205078,-33.014801025390625,269.04180908203125
1700075107,0.7780914306640625,0.012054443359375,-0.537353515625,0.6999083161354065,0.878823459148407,2.5320773124694824,105.38217163085938,-32.43707275390625,268.8443603515625
1700075107,0.7122650146484375,0.325927734375,-0.6186370849609375,0.7465394139289856,0.8777909278869629,2.3731842041015625,104.2778778076172,-30.998016357421875,269.0094909667969
1700075107,0.7256622314453125,0.657073974609375,-0.5155487060546875,0.940534234046936,0.8844286203384399,2.1412363052368164,103.00982666015624,-30.116287231445312,268.8720092773437
1700075107,0.82623291015625,0.812164306640625,-0.4291534423828125,1.152309536933899,0.8148534893989563,2.0609800815582275,102.22021484375,-29.249832153320312,269.21893310546875
1700075107,1.1214141845703125,0.897735595703125,-0.3907470703125,1.1994693279266355,0.7286174297332764,2.1187143325805664,100.57069396972656,-27.985366821289062,269.04296875
1700075107,1.48980712890625,0.809967041015625,-0.326873779296875,1.0881662368774414,0.6395552158355713,2.302412271499634,99.55767822265624,-27.035308837890625,269.4559326171875
1700075107,1.7282867431640625,0.5819091796875,-0.2918548583984375,0.8705620765686035,0.5293844938278198,2.571781873703003,98.1666259765625,-25.831222534179688,269.185546875
1700075107,1.8109588623046875,0.382354736328125,-0.3414154052734375,0.6099531054496765,0.3839833438396454,2.8190743923187256,96.5973663330078,-25.0654296875,269.63458251953125
1700075107,1.8530731201171875,0.3214111328125,-0.43408203125,0.3366467356681824,0.2017552256584167,2.915249824523926,94.94813537597656,-24.329605102539062,269.7833557128906
1700075107,1.8948822021484373,0.3063507080078125,-0.4929962158203125,0.0843681469559669,0.0515313670039176,2.816224813461304,93.47279357910156,-23.68028259277344,269.89764404296875
1700075107,1.841766357421875,0.2700958251953125,-0.5385589599609375,-0.1051035150885582,-0.0861663073301315,2.495816230773926,92.44602966308594,-23.24493408203125,270.09356689453125
1700075107,1.638671875,0.228607177734375,-0.6088409423828125,-0.1436490416526794,-0.2956745326519012,2.108118772506714,90.66162109375,-22.592605590820312,270.4527282714844
1700075107,1.29595947265625,0.19915771484375,-0.5811614990234375,-0.2767362594604492,-0.2983161211013794,1.8328239917755127,89.41439819335938,-21.995086669921875,270.08221435546875
1700075107,0.796356201171875,0.227752685546875,-0.57086181640625,-0.4326036274433136,0.0087050748988986,1.4531594514846802,87.97293090820312,-21.671066284179688,269.7250366210937
1700075107,0.27264404296875,0.162933349609375,-0.6004486083984375,-0.4100266695022583,0.0963640883564949,0.9798363447189332,86.86051940917969,-21.51718139648437,269.9486694335937
1700075107,-0.04046630859375,0.0177001953125,-0.4431304931640625,-0.4205080866813659,-0.0254366509616374,0.5247585773468018,85.71824645996094,-21.295394897460938,270.11053466796875
1700075107,-0.27337646484375,0.0356903076171875,-0.354095458984375,-0.2799544334411621,-0.2008798420429229,0.029632993042469,84.45428466796875,-21.0400390625,269.1690979003906
1700075107,-0.4154052734375,0.0230560302734375,-0.1570892333984375,-0.0031358720734715,-0.3864065706729889,-0.5374658703804016,83.8814697265625,-21.239532470703125,268.805419921875
1700075107,-0.43231201171875,-0.033966064453125,0.2188720703125,0.2351360768079757,-0.7248392105102539,-1.1504887342453003,83.52778625488281,-21.580825805664062,267.6060791015625
1700075107,-0.203765869140625,-0.1548004150390625,0.525360107421875,0.1708942502737045,-1.1140239238739014,-1.7227094173431396,83.11514282226562,-21.68524169921875,267.0155944824219
1700075107,0.02191162109375,-0.3044281005859375,0.427001953125,-0.2311416119337082,-1.304111361503601,-2.1191864013671875,83.95062255859375,-22.22377014160156,267.3417663574219
1700075107,0.074127197265625,-0.332977294921875,-0.0100860595703125,-0.5590041875839233,-1.338054656982422,-2.423671245574951,84.49273681640625,-22.59214782714844,267.3519287109375
1700075107,0.105743408203125,-0.3175811767578125,-0.24322509765625,-0.7677403092384338,-1.2480573654174805,-2.76827335357666,85.34628295898438,-23.21943664550781,267.09002685546875
1700075107,0.19140625,-0.3506622314453125,-0.388458251953125,-0.9288339018821716,-1.1657273769378662,-3.071232557296753,86.95719909667969,-23.90223693847656,267.708740234375
1700075107,0.26971435546875,-0.328521728515625,-0.4629974365234375,-1.1170517206192017,-1.2051434516906738,-3.250684261322021,88.32861328125,-24.245101928710938,267.64239501953125
1700075107,0.3682861328125,-0.1607208251953125,-0.4457244873046875,-1.3364980220794678,-1.274222493171692,-3.4794864654541016,89.75405883789062,-25.450271606445312,268.3724365234375
1700075107,0.532562255859375,-0.01708984375,-0.3374176025390625,-1.5526764392852783,-1.3119205236434937,-3.8249049186706543,91.8416748046875,-26.405548095703125,268.6076965332031
1700075107,0.6981353759765625,0.0306549072265625,-0.18341064453125,-1.6145120859146118,-1.3344857692718506,-4.105252742767334,93.16105651855467,-27.725173950195312,268.5712890625
1700075107,0.8226776123046875,0.072113037109375,-0.090240478515625,-1.4533474445343018,-1.3201534748077393,-4.196718692779541,94.62010192871094,-29.0709228515625,268.7094421386719
1700075107,0.9022369384765624,0.1612091064453125,-0.1385040283203125,-1.4019864797592163,-1.320713758468628,-4.091481685638428,96.17292785644533,-30.07965087890625,268.2857971191406
1700075107,0.9720458984375,0.3105926513671875,-0.30133056640625,-1.5023291110992432,-1.5245736837387085,-3.858676433563232,98.02120971679688,-31.6943359375,268.4542236328125
1700075107,1.03082275390625,0.496856689453125,-0.305267333984375,-1.2381709814071655,-1.6960676908493042,-3.589730024337769,99.6592254638672,-33.43902587890625,267.8744506835937
1700075107,1.0463714599609375,0.7027435302734375,-0.26617431640625,-0.2013067454099655,-1.8945142030715945,-3.5132148265838623,101.25881958007812,-34.85035705566406,268.29998779296875
1700075107,1.0601959228515625,0.853302001953125,-0.133941650390625,1.2004166841506958,-1.9338314533233645,-3.8581273555755615,102.3649444580078,-36.5068359375,268.48797607421875
1700075107,1.1120452880859375,0.92327880859375,-0.1580352783203125,1.814283847808838,-1.866658091545105,-4.273128986358643,103.77310180664062,-38.54704284667969,269.38214111328125
1700075107,1.1733856201171875,1.0021820068359375,-0.2942657470703125,1.4112266302108765,-1.6695796251296997,-4.4387526512146,105.02337646484376,-40.62614440917969,270.4114685058594
1700075107,1.13214111328125,1.11993408203125,-0.4496612548828125,0.9048135280609132,-1.4680166244506836,-4.378751277923584,106.06719970703124,-42.846466064453125,271.62353515625
1700075107,1.117828369140625,1.0307159423828125,-0.443206787109375,0.5442531704902649,-1.307996392250061,-4.196922779083252,107.20510864257812,-45.41377258300781,273.2553100585937
1700075107,1.1798248291015625,0.824859619140625,-0.4141845703125,0.2463676929473877,-1.1405436992645264,-3.966160774230957,108.43342590332033,-47.3643798828125,274.6408386230469
1700075107,1.2322235107421875,0.6343536376953125,-0.4948577880859375,-0.0104901911690831,-1.0674258470535278,-3.712490320205689,109.384521484375,-50.30635070800781,275.27593994140625
1700075107,1.274566650390625,0.5482177734375,-0.535247802734375,-0.2689622342586517,-1.1423064470291138,-3.39703106880188,109.87355041503906,-52.72611999511719,276.0634765625
1700075107,1.305206298828125,0.5770111083984375,-0.550689697265625,-0.6717240810394287,-1.3239703178405762,-3.0220401287078857,110.40438842773438,-54.52679443359375,277.2100524902344
1700075107,1.260528564453125,0.6615753173828125,-0.562744140625,-0.8165419697761536,-1.4985847473144531,-2.6268186569213867,110.89947509765624,-56.48222351074219,277.37274169921875
1700075107,1.2127532958984375,0.7275238037109375,-0.4822235107421875,-0.7421321868896484,-1.5625910758972168,-2.319223403930664,111.61244201660156,-58.62541198730469,277.82916259765625
1700075107,1.1751708984375,0.736114501953125,-0.37158203125,-0.5600643754005432,-1.463066339492798,-2.200690269470215,111.26286315917967,-59.91954040527344,278.5230407714844
1700075107,1.1302947998046875,0.696807861328125,-0.3103179931640625,-0.2540280222892761,-1.2676252126693726,-2.1799795627593994,111.37750244140624,-60.766632080078125,279.11724853515625
1700075107,1.0791473388671875,0.6522064208984375,-0.263031005859375,0.1227562800049781,-1.0602401494979858,-2.1215202808380127,111.81668090820312,-62.028106689453125,278.9423522949219
1700075107,1.04473876953125,0.626129150390625,-0.2572784423828125,0.4477487504482269,-0.8973425626754761,-1.9941641092300413,111.5497589111328,-62.93898010253906,279.37420654296875
1700075107,1.0167083740234375,0.6008758544921875,-0.3145904541015625,0.6190709471702576,-0.7594528198242188,-1.7890865802764893,111.44281005859376,-63.8697509765625,280.407470703125
1700075107,0.945465087890625,0.575653076171875,-0.3789825439453125,0.7083108425140381,-0.635176956653595,-1.5406594276428225,111.3017578125,-63.990081787109375,280.6161804199219
1700075107,0.8438873291015625,0.5312042236328125,-0.387847900390625,0.7836580276489258,-0.4924123585224151,-1.268708109855652,111.36685180664062,-64.67715454101562,280.83282470703125
1700075107,0.74627685546875,0.4620361328125,-0.34100341796875,0.8374930620193481,-0.3280511200428009,-0.9884844422340392,111.30934143066406,-65.55218505859375,281.1545715332031
1700075107,0.683837890625,0.3847198486328125,-0.2733917236328125,0.8724984526634216,-0.1837179064750671,-0.6751126646995544,111.5455322265625,-66.01521301269531,281.6098937988281
1700075107,0.654205322265625,0.3149261474609375,-0.151641845703125,0.8734568953514099,-0.035634160041809,-0.3804796934127807,111.12948608398438,-66.57791137695312,281.68963623046875
1700075107,0.6903228759765625,0.2306060791015625,-0.0458526611328125,0.7242780923843384,0.1034009605646133,-0.0784806907176971,111.14683532714844,-67.04312133789062,281.90924072265625
1700075107,0.7622528076171875,0.1875,-0.0509490966796875,0.4018595516681671,0.1791673600673675,0.2396706491708755,111.52493286132812,-66.94819641113281,281.9949951171875
1700075108,0.8221435546875,0.227691650390625,-0.147735595703125,0.0610694773495197,0.3279848098754883,0.5301434993743896,111.13241577148438,-67.06980895996094,282.19049072265625
1700075108,0.7470855712890625,0.2186431884765625,-0.31683349609375,-0.2019142210483551,0.4470421969890594,0.8118742108345032,111.02828979492188,-66.55827331542969,281.60308837890625
1700075108,0.6283111572265625,0.19866943359375,-0.426055908203125,-0.4228489995002746,0.4215472340583801,1.0432552099227903,111.546142578125,-66.29052734375,281.14141845703125
1700075108,0.59619140625,0.1169281005859375,-0.34637451171875,-0.7452821731567383,0.704056441783905,1.2096292972564695,111.49220275878906,-65.61410522460938,281.32586669921875
1700075108,0.6790618896484375,0.0877685546875,-0.4864349365234375,-1.0779117345809937,1.007805109024048,1.3476755619049072,111.4595184326172,-65.28659057617188,280.3753356933594
1700075108,0.59130859375,0.1731414794921875,-0.6855926513671875,-1.1217188835144043,1.5073294639587402,1.5469951629638672,111.65768432617188,-64.51577758789062,280.3233947753906
1700075108,0.6385650634765625,0.3250885009765625,-0.8856658935546875,-0.0111695639789104,4.251736164093018,1.852547526359558,111.87785339355467,-63.76100158691406,279.202880859375
1700075108,0.0015716552734375,0.7818603515625,-2.963851928710937,0.4527967572212219,1.4057559967041016,2.990168333053589,112.420654296875,-62.59251403808594,277.1510314941406
1700075108,0.4073944091796875,1.575836181640625,-1.8670196533203125,-0.4103901982307434,-1.4595654010772705,1.948925495147705,112.57893371582033,-62.023223876953125,277.1317749023437
1700075108,3.931182861328125,0.17376708984375,1.1757659912109375,0.2648476362228393,0.5750750303268433,-0.1829671561717987,112.28335571289062,-62.09906005859375,277.1244812011719
1700075108,3.4281158447265625,-1.2388763427734375,-0.38677978515625,1.4155707359313965,1.5836665630340576,-0.5526434779167175,113.084716796875,-62.62052917480469,277.22802734375
1700075108,1.657958984375,-1.0089569091796875,0.7938232421875,1.4961564540863037,1.820542812347412,0.7000582218170166,113.16122436523438,-63.4073486328125,276.7445678710937
1700075108,0.5425567626953125,-0.452178955078125,0.7308349609375,0.9744447469711304,1.208268404006958,1.7927812337875366,113.3937530517578,-62.58268737792969,276.06072998046875
1700075108,-0.0302734375,-0.226806640625,-0.041473388671875,0.1019010618329048,0.862613320350647,1.650185465812683,113.42233276367188,-61.91484069824219,275.840087890625
1700075108,0.0971832275390625,-0.5420989990234375,-0.410491943359375,-0.4369546771049499,1.1231738328933716,0.8349561095237732,113.81105041503906,-61.9359130859375,275.5076904296875
1700075108,0.94757080078125,-0.9603271484375,-0.0815887451171875,-0.7845481038093567,1.122557282447815,0.8496556878089905,113.50074768066406,-60.9200439453125,274.6312255859375
1700075108,1.6377410888671875,-0.607452392578125,0.1855621337890625,-1.1166149377822876,0.6938157677650452,1.5658111572265625,113.14582824707033,-60.065948486328125,273.96435546875
1700075108,2.088043212890625,-0.052215576171875,0.210418701171875,-1.403775691986084,0.6907904148101807,2.150782346725464,113.1377410888672,-58.55009460449219,273.4832763671875
1700075108,2.762908935546875,0.0950469970703125,0.3174591064453125,-1.4152498245239258,1.3048762083053589,2.1832120418548584,112.7629852294922,-57.56401062011719,273.603271484375
1700075108,3.38348388671875,0.0051422119140625,0.2229156494140625,-0.649511456489563,1.6684192419052124,2.369218349456787,112.86070251464844,-56.92713928222656,273.5247802734375
1700075108,2.52313232421875,0.2325439453125,-0.026763916015625,0.4600754678249359,1.14405620098114,2.426978588104248,112.45425415039062,-56.61376953125,272.7767639160156
1700075108,1.001312255859375,0.4600677490234375,-0.429412841796875,0.8698453903198242,0.351359099149704,1.4801298379898071,111.94674682617188,-55.78642272949219,272.17315673828125
1700075108,0.405181884765625,0.3872833251953125,-0.9605712890625,0.7854700684547424,-0.0234427414834499,0.6440980434417725,111.76193237304688,-55.30998229980469,271.6423034667969
1700075108,0.208099365234375,0.5726470947265625,-1.01641845703125,0.8613251447677612,0.160884752869606,0.5042107105255127,111.79248046875,-55.247833251953125,272.2884521484375
1700075108,0.28179931640625,0.931976318359375,-0.4511566162109375,0.7722799777984619,0.2074626386165619,0.2702280282974243,111.67205810546876,-54.7703857421875,271.46649169921875
1700075108,0.7615509033203125,0.896087646484375,-0.03167724609375,0.5495427250862122,0.0471536628901958,-0.0435631908476352,111.3486328125,-54.59571838378906,271.8310852050781
1700075108,1.0926513671875,0.573974609375,-0.3063201904296875,0.3290367424488067,-0.1085821390151977,-0.2336242049932479,111.26107788085938,-54.49482727050781,271.98016357421875
1700075108,1.1201934814453125,0.4422607421875,-0.60479736328125,0.1822212040424347,-0.2361920326948166,-0.3480860590934753,111.338623046875,-54.536895751953125,272.14947509765625
1700075108,1.180023193359375,0.185699462890625,-0.5122833251953125,0.0595927573740482,-0.2767881751060486,-0.2901372909545898,111.51258850097656,-54.83299255371094,272.3782958984375
1700075108,1.1545257568359375,-0.0383758544921875,-0.3538360595703125,-0.0274276286363601,-0.2076384127140045,-0.0326274521648883,111.06959533691406,-54.86140441894531,272.4766845703125
1700075108,1.059417724609375,-0.1236114501953125,-0.2943267822265625,-0.1183021441102027,-0.1522537171840667,0.2310507893562317,111.6479949951172,-55.05560302734375,272.2781982421875
1700075108,1.0125885009765625,-0.07916259765625,-0.336090087890625,-0.2874983549118042,-0.2060908526182174,0.3201380670070648,111.78907775878906,-54.91542053222656,272.431640625
1700075108,0.9746246337890624,0.0824432373046875,-0.41583251953125,-0.4336598217487335,-0.3079223930835724,0.2219971120357513,111.92298889160156,-55.16905212402344,272.72418212890625
1700075108,0.8922119140625,0.23321533203125,-0.4372406005859375,-0.3699420988559723,-0.3265592157840729,0.0448532253503799,111.73675537109376,-54.8958740234375,272.5394287109375
1700075108,0.85284423828125,0.3165435791015625,-0.3440093994140625,-0.0989244505763053,-0.278433233499527,-0.1225509494543075,111.46873474121094,-54.788482666015625,272.5696105957031
1700075108,0.858367919921875,0.3316650390625,-0.2167205810546875,0.2386479973793029,-0.2238064706325531,-0.2022042274475097,111.77627563476562,-54.84600830078125,272.4877319335937
1700075108,0.8639678955078125,0.288848876953125,-0.1948394775390625,0.4551036059856415,-0.1848952770233154,-0.1732229143381118,111.40216064453124,-54.774017333984375,272.94879150390625
1700075108,0.8730926513671875,0.189056396484375,-0.261444091796875,0.5231428146362305,-0.1535509377717971,-0.0670346915721893,111.5579833984375,-54.8924560546875,273.16314697265625
1700075108,0.8861846923828125,0.0704803466796875,-0.3017578125,0.4303167760372162,-0.1151622757315635,0.0834432244300842,111.69525146484376,-55.012603759765625,273.14239501953125
1700075108,0.9014739990234376,-0.0165252685546875,-0.2996368408203125,0.2240868955850601,-0.0611650869250297,0.2706615924835205,111.62867736816406,-54.80706787109375,273.0191345214844
1700075108,0.9085540771484376,-0.0552215576171875,-0.28076171875,0.0151959974318742,0.0095535572618246,0.4645413160324096,111.38067626953124,-55.02558898925781,272.897705078125
1700075108,0.90936279296875,-0.0705108642578125,-0.245391845703125,-0.1106143966317176,0.104373812675476,0.6456186771392822,111.21696472167967,-54.621917724609375,272.7488098144531
1700075108,0.892547607421875,-0.085357666015625,-0.2018890380859375,-0.1684697121381759,0.2126222550868988,0.8125165700912476,111.27493286132812,-54.39561462402344,272.6764831542969
1700075108,0.864166259765625,-0.1007537841796875,-0.1737060546875,-0.1439792811870575,0.3216312825679779,0.974171817302704,111.16433715820312,-54.09944152832031,272.9960327148437
1700075108,0.8338470458984375,-0.0735015869140625,-0.189605712890625,-0.0845926478505134,0.3820070326328277,1.0787343978881836,111.0625,-53.77235412597656,272.2963256835937
1700075108,0.8324432373046875,0.0007781982421875,-0.2530670166015625,0.0285285804420709,0.4290051460266113,1.1421074867248535,110.94436645507812,-52.24296569824219,272.55322265625
1700075108,0.8350982666015625,0.1469573974609375,-0.3198394775390625,0.1524915397167205,0.4578780829906463,1.112980604171753,110.4998016357422,-52.04362487792969,272.323486328125
1700075108,0.8748016357421875,0.281280517578125,-0.29736328125,0.2640513479709625,0.5026495456695557,1.0454035997390747,110.3689422607422,-51.80514526367188,272.143310546875
1700075108,0.9228057861328124,0.3612213134765625,-0.249481201171875,0.4615705609321594,0.5703636407852173,1.0058377981185913,109.71206665039062,-50.88970947265625,271.5321655273437
1700075108,0.9297332763671876,0.3600311279296875,-0.2058868408203125,0.6320842504501343,0.6459203958511353,1.0208548307418823,109.2956085205078,-49.954437255859375,271.01611328125
1700075108,0.9431610107421876,0.2675933837890625,-0.2134552001953125,0.7624710202217102,0.6891517639160156,1.1244266033172607,109.03671264648438,-49.529815673828125,271.66424560546875
1700075108,0.9322509765625,0.15118408203125,-0.254180908203125,0.7834239602088928,0.7152555584907532,1.2635163068771362,108.59619140625,-48.82078552246094,271.0424499511719
1700075108,0.9063262939453124,0.0634307861328125,-0.3315582275390625,0.6666411757469177,0.6972360610961914,1.4147329330444336,108.25,-48.38575744628906,270.74591064453125
1700075108,0.8851318359375,0.0416259765625,-0.39971923828125,0.5480705499649048,0.6847983002662659,1.6219284534454346,107.81678771972656,-47.649444580078125,270.43603515625
1700075108,0.7870941162109375,0.0625762939453125,-0.4484100341796875,0.4729025661945343,0.6962451338768005,1.7409124374389648,107.00845336914062,-46.34626770019531,270.5953369140625
1700075108,0.7087554931640625,0.1602935791015625,-0.4175262451171875,0.3504863679409027,0.6918879151344299,1.6900793313980105,106.70515441894533,-45.705596923828125,270.4441223144531
1700075108,0.7653656005859375,0.3694610595703125,-0.317626953125,0.303871214389801,0.755696713924408,1.6052727699279783,106.17649841308594,-44.9638671875,270.2861633300781
1700075108,0.8654327392578125,0.5337982177734375,-0.27044677734375,0.4668313562870025,0.8290423154830933,1.591543436050415,105.333251953125,-44.27163696289063,269.710205078125
1700075108,0.9935150146484376,0.549896240234375,-0.311279296875,0.7293021082878113,0.8371769189834595,1.677109718322754,104.54498291015624,-43.34431457519531,269.7120361328125
1700075108,1.1016693115234375,0.4635772705078125,-0.3801422119140625,0.8370224833488464,0.8508397340774536,1.7896077632904053,104.1301727294922,-42.762603759765625,269.6860046386719
1700075108,1.1556243896484375,0.3218994140625,-0.445220947265625,0.7570679783821106,0.8308042287826538,1.845515251159668,103.42312622070312,-42.13221740722656,269.68780517578125
1700075108,1.267333984375,0.18115234375,-0.4862060546875,0.7708852887153625,0.7358742952346802,2.1982197761535645,102.76698303222656,-41.53218078613281,269.4901733398437
1700075108,1.142059326171875,0.0538177490234375,-0.448974609375,0.7193637490272522,0.7379806041717529,2.5411572456359863,102.06918334960938,-40.46502685546875,269.84930419921875
1700075108,0.830108642578125,0.015411376953125,-0.5286407470703125,0.5272414684295654,0.6995495557785034,2.5435028076171875,101.35296630859376,-39.4427490234375,268.90826416015625
1700075108,0.545745849609375,0.301177978515625,-0.550323486328125,0.4794728457927704,0.6712183356285095,2.2776832580566406,100.17488098144533,-38.74053955078125,269.24530029296875
1700075108,0.373291015625,0.6952056884765625,-0.483062744140625,0.739173948764801,0.7287098169326782,1.94428813457489,99.57522583007812,-37.72972106933594,269.1103210449219
1700075108,0.528106689453125,0.83355712890625,-0.33538818359375,1.0538240671157837,0.745448887348175,1.786554932594299,98.63015747070312,-36.864532470703125,268.9582214355469
1700075108,0.73406982421875,0.7971038818359375,-0.32586669921875,1.1160509586334229,0.7623926997184753,1.8223720788955688,97.58511352539062,-35.79388427734375,268.6579284667969
1700075108,0.9948577880859376,0.69769287109375,-0.4705657958984375,0.9265249371528624,0.6797255277633667,1.9726816415786743,96.75941467285156,-35.22489929199219,268.20947265625
1700075108,1.486236572265625,0.6154327392578125,-0.5101318359375,0.7517229914665222,0.5695303082466125,2.295382738113404,95.47262573242188,-34.45075988769531,269.43536376953125
1700075108,1.743560791015625,0.5228729248046875,-0.4760589599609375,0.6181529760360718,0.5048139095306396,2.646087169647217,94.73298645019533,-33.77552795410156,269.3404235839844
1700075108,1.6907501220703125,0.317901611328125,-0.432342529296875,0.4102474451065063,0.4204846322536468,2.9216010570526123,93.72048950195312,-33.3277587890625,269.33795166015625
1700075108,1.5797576904296875,0.34185791015625,-0.529449462890625,0.3224174678325653,0.3776170611381531,3.051381826400757,92.12394714355467,-32.190948486328125,269.0302734375
1700075108,1.4498748779296875,0.48040771484375,-0.624237060546875,0.2487922459840774,0.2897255718708038,3.0057621002197266,90.58062744140624,-31.47470092773437,269.1253356933594
1700075108,1.4644317626953125,0.573822021484375,-0.5980377197265625,0.2200966775417328,0.2050660699605941,2.8569111824035645,88.47610473632812,-30.604995727539062,269.56951904296875
1700075108,1.464508056640625,0.5596160888671875,-0.5004425048828125,0.2451969683170318,0.125598132610321,2.6188225746154785,87.34706115722656,-30.03965759277344,269.3746337890625
1700075108,1.4485931396484375,0.4757843017578125,-0.4279937744140625,0.3398944437503814,0.0092113418504595,2.3566932678222656,85.82562255859375,-29.059890747070312,269.4477844238281
1700075108,1.3859100341796875,0.3956756591796875,-0.3504791259765625,0.4672239124774933,-0.1566812247037887,2.137453556060791,84.07467651367188,-28.66102600097656,269.1905517578125
1700075108,1.250640869140625,0.35906982421875,-0.3266448974609375,0.3910665512084961,-0.3028394877910614,1.861533641815185,82.5279541015625,-28.53302001953125,269.2620849609375
1700075108,1.064178466796875,0.3147125244140625,-0.38958740234375,0.0220373906195163,-0.2581527233123779,1.5012507438659668,81.21455383300781,-28.203598022460938,268.6123046875
1700075108,0.75897216796875,0.26104736328125,-0.5211944580078125,-0.2184705585241317,-0.1568260937929153,1.1009047031402588,80.7021484375,-28.037567138671875,268.498779296875
1700075108,0.366180419921875,0.2415924072265625,-0.5841522216796875,-0.3854361176490783,-0.1214145794510841,0.762719452381134,79.92791748046875,-28.083648681640625,267.8519897460937
1700075108,0.0419158935546875,0.325927734375,-0.57745361328125,-0.3548915088176727,-0.1500989496707916,0.3844741582870483,79.16859436035156,-28.15780639648437,267.86602783203125
1700075108,-0.1724395751953125,0.380645751953125,-0.42010498046875,-0.1120085567235946,-0.2702634334564209,-0.0140172820538282,79.085205078125,-28.646499633789062,267.768798828125
1700075108,-0.255279541015625,0.3556365966796875,-0.1283111572265625,0.2922033667564392,-0.5151967406272888,-0.4334081709384918,79.13909912109375,-28.61810302734375,267.99444580078125
1700075108,-0.2109527587890625,0.238555908203125,0.2021331787109375,0.5974258780479431,-0.839144229888916,-0.907820999622345,79.3182373046875,-28.764480590820312,268.1001892089844
1700075108,-0.1009521484375,0.0979766845703125,0.392669677734375,0.645338237285614,-1.0881474018096924,-1.4338107109069824,79.99287414550781,-29.293441772460938,268.8377685546875
1700075108,-0.0590972900390625,-0.100738525390625,0.2126922607421875,0.4272376000881195,-1.1381759643554688,-1.87571918964386,80.47100830078125,-29.94931030273437,268.481201171875
1700075108,-0.1725311279296875,-0.2288055419921875,-0.1504669189453125,-0.0246584750711917,-1.0191457271575928,-2.246615171432495,81.26063537597656,-30.3341064453125,268.8678894042969
1700075108,-0.09814453125,-0.2786865234375,-0.45330810546875,-0.3739736080169678,-0.9567033052444458,-2.572758674621582,81.84085083007812,-31.208709716796875,268.4096069335937
1700075108,0.1839447021484375,-0.400482177734375,-0.2957611083984375,-0.6659108996391296,-0.9790874719619752,-2.8971972465515137,82.830078125,-32.24015808105469,268.4583740234375
1700075108,0.42047119140625,-0.508392333984375,0.03662109375,-1.0977861881256104,-1.06522798538208,-3.182736396789551,83.896484375,-33.092498779296875,268.29119873046875
1700075108,0.5998382568359375,-0.4699859619140625,0.0850677490234375,-1.5953043699264526,-1.1259219646453855,-3.267468214035034,84.68775939941406,-33.827423095703125,268.120361328125
1700075108,0.675048828125,-0.2231597900390625,-0.08319091796875,-1.7697831392288208,-1.1456758975982666,-3.4030234813690186,86.04246520996094,-35.079071044921875,267.380615234375
1700075108,0.71392822265625,-0.05755615234375,-0.1613616943359375,-1.7294951677322388,-1.105460286140442,-3.639802932739258,86.99510192871094,-35.79100036621094,267.8729248046875
1700075108,0.7690887451171875,0.0341033935546875,-0.2389068603515625,-1.7141516208648682,-1.100298285484314,-3.7598636150360094,87.75492858886719,-36.8302001953125,267.4371337890625
1700075108,0.8113861083984375,0.1938018798828125,-0.30267333984375,-1.7493231296539309,-1.2034060955047607,-3.726464033126831,89.05645751953125,-38.2440185546875,266.8614501953125
1700075108,0.8779754638671875,0.3676605224609375,-0.25079345703125,-1.5840474367141724,-1.39862322807312,-3.633392095565796,89.45756530761719,-39.33758544921875,267.48455810546875
1700075108,0.9387664794921876,0.5352325439453125,-0.1138153076171875,-0.9003881216049194,-1.525810956954956,-3.555509328842163,89.96571350097656,-40.137237548828125,267.7780456542969
1700075108,0.953643798828125,0.6900482177734375,-0.0590667724609375,0.2467450648546219,-1.6301994323730469,-3.695828914642334,90.26571655273438,-41.6480712890625,267.96295166015625
1700075109,0.9808502197265624,0.781524658203125,-0.068359375,1.1918902397155762,-1.685860276222229,-4.019222736358643,91.0208740234375,-42.67251586914063,269.22869873046875
1700075109,1.0675201416015625,0.848846435546875,-0.130126953125,1.492860198020935,-1.6569570302963257,-4.294074058532715,91.79231262207033,-44.65768432617188,270.35565185546875
1700075109,1.13311767578125,0.912139892578125,-0.18304443359375,1.2792001962661743,-1.6057308912277222,-4.42288064956665,92.72320556640624,-45.74024963378906,271.053955078125
1700075109,1.1241302490234375,0.913055419921875,-0.1874237060546875,0.9167452454566956,-1.4854947328567505,-4.461632251739502,93.40943908691406,-46.86109924316406,271.8241882324219
1700075109,1.099884033203125,0.75341796875,-0.1800994873046875,0.5086067914962769,-1.3117567300796509,-4.324385166168213,93.74786376953124,-48.384368896484375,271.8091735839844
1700075109,1.0467376708984375,0.5998382568359375,-0.238189697265625,0.0530323237180709,-1.1301398277282717,-4.08035135269165,94.37522888183594,-49.22027587890625,271.981689453125
1700075109,1.041412353515625,0.51263427734375,-0.36181640625,-0.3988592326641083,-1.0780638456344604,-3.813215970993042,94.53456115722656,-50.42706298828125,272.1547546386719
1700075109,1.13616943359375,0.4939117431640625,-0.449371337890625,-0.8423789143562317,-1.149155855178833,-3.5619802474975586,94.66070556640624,-51.18902587890625,272.81756591796875
1700075109,1.2871551513671875,0.5315704345703125,-0.4884490966796875,-1.2509959936141968,-1.229550838470459,-3.3553714752197266,94.90985107421876,-51.7545166015625,272.85009765625
1700075109,1.4129638671875,0.5980377197265625,-0.5675201416015625,-1.438138723373413,-1.3399271965026855,-3.157234668731689,94.96371459960938,-52.33775329589844,272.4555053710937
1700075109,1.5133514404296875,0.698577880859375,-0.610443115234375,-1.363672137260437,-1.40504252910614,-2.9996352195739746,94.8376007080078,-53.19073486328125,273.2601318359375
1700075109,1.52301025390625,0.786468505859375,-0.66815185546875,-0.966981828212738,-1.5043003559112549,-2.8275463581085205,94.60740661621094,-53.73822021484375,273.9213256835937
1700075109,1.3946990966796875,0.8521270751953125,-0.6273651123046875,-0.8324042558670044,-1.529610276222229,-2.684011697769165,94.72320556640624,-54.720733642578125,274.6756591796875
1700075109,1.243377685546875,0.8160247802734375,-0.53057861328125,-0.5640851855278015,-1.425768494606018,-2.5146572589874268,94.92350769042967,-55.17073059082031,274.0370483398437
1700075109,1.14520263671875,0.7386932373046875,-0.3512420654296875,-0.2364258468151092,-1.1748183965682983,-2.367083549499512,94.98863220214844,-55.845947265625,274.8677062988281
1700075109,1.075927734375,0.6270904541015625,-0.2283477783203125,0.0299528390169143,-0.8787872195243835,-2.203573942184448,95.21443176269533,-56.06201171875,274.9294738769531
1700075109,1.0290985107421875,0.543701171875,-0.220611572265625,0.314261257648468,-0.6596226692199707,-1.994275689125061,94.74623107910156,-56.81459045410156,275.22076416015625
1700075109,0.99261474609375,0.5402069091796875,-0.25994873046875,0.6665098667144775,-0.55112224817276,-1.7599798440933228,94.70101928710938,-57.26333618164063,275.5029296875
1700075109,0.95050048828125,0.58734130859375,-0.2990264892578125,0.9967207908630372,-0.5002814531326294,-1.4897546768188477,94.63938903808594,-57.87403869628906,275.9564208984375
1700075109,0.8724212646484375,0.62860107421875,-0.317138671875,1.2889028787612915,-0.4171200096607208,-1.1988749504089355,94.49819946289062,-57.97442626953125,275.6852722167969
1700075109,0.785186767578125,0.6311492919921875,-0.3011627197265625,1.4786714315414429,-0.2542429268360138,-0.9047823548316956,94.24441528320312,-57.98219299316406,275.707763671875
1700075109,0.7074127197265625,0.580413818359375,-0.272186279296875,1.518699288368225,-0.0704201012849807,-0.6192749738693237,94.65985107421876,-57.9962158203125,275.8270568847656
1700075109,0.6746063232421875,0.4573211669921875,-0.2477569580078125,1.3776077032089231,0.0834152624011039,-0.334767073392868,93.97865295410156,-57.9696044921875,275.8439636230469
1700075109,0.6657562255859375,0.3058013916015625,-0.2436370849609375,1.0743149518966677,0.2013051509857177,-0.048550758510828,93.7540283203125,-57.5535888671875,275.56787109375
1700075109,0.65069580078125,0.1714935302734375,-0.2618408203125,0.7345597147941589,0.2346812188625335,0.2421772181987762,93.2241668701172,-56.910980224609375,276.3017578125
1700075109,0.6503753662109375,0.044952392578125,-0.203643798828125,0.4203717112541199,0.2091729193925857,0.5108851194381714,93.1136474609375,-56.42030334472656,275.21368408203125
1700075109,0.6901702880859375,-0.0771331787109375,-0.081512451171875,0.1142938211560249,0.2554386854171753,0.7091121673583984,92.58537292480467,-55.941497802734375,275.47222900390625
1700075109,0.7229156494140625,-0.16949462890625,-0.056182861328125,-0.1747108250856399,0.3699058890342712,0.8111432194709778,92.23277282714844,-55.85719299316406,274.69024658203125
1700075109,0.694000244140625,-0.2034454345703125,-0.1234283447265625,-0.4399289190769195,0.5386309623718262,0.8939762711524963,91.85270690917967,-54.98066711425781,273.68072509765625
1700075109,0.6376953125,-0.1693267822265625,-0.2392425537109375,-0.833472490310669,1.053907871246338,1.1013425588607788,91.91627502441406,-53.978057861328125,273.0755920410156
1700075109,0.5985260009765625,0.0092620849609375,-0.607025146484375,-1.036624789237976,1.3176023960113523,1.1976174116134644,90.961669921875,-54.3759765625,273.7594299316406
1700075109,0.44549560546875,0.147979736328125,-0.8328399658203125,-0.8461163640022278,1.2173974514007568,1.4930099248886108,90.86427307128906,-54.68196105957031,274.69207763671875
1700075109,0.6072540283203125,0.3673248291015625,-0.66815185546875,-0.5923927426338196,2.6765708923339844,1.7271270751953125,91.13201904296876,-55.046295166015625,274.57135009765625
1700075109,0.5255126953125,0.4867401123046875,-1.744293212890625,0.4695493876934051,3.7258167266845694,2.469759941101074,90.885986328125,-55.09532165527344,274.2025146484375
1700075109,-0.1252288818359375,1.1327056884765625,-3.1529693603515625,-0.2907074689865112,-1.1640323400497437,2.9792606830596924,90.72384643554688,-54.57453918457031,274.4837951660156
1700075109,2.6968994140625,1.0272064208984375,0.9485321044921876,-0.4469178318977356,-0.2499062418937683,0.6718226075172424,90.21115112304688,-54.36495971679688,273.8721618652344
1700075109,4.027313232421875,-0.91766357421875,-0.037567138671875,1.0100115537643433,1.1839971542358398,-0.69853675365448,89.85844421386719,-54.15171813964844,273.8790283203125
1700075109,2.3611297607421875,-1.166656494140625,0.2446746826171875,1.897613525390625,1.6742228269577026,-0.2007458806037902,89.64164733886719,-54.029205322265625,273.2121887207031
1700075109,1.0765380859375,-0.6739501953125,0.9560699462890624,1.5565577745437622,1.4921272993087769,1.0416719913482666,89.17939758300781,-53.30809020996094,272.65008544921875
1700075109,0.371826171875,-0.226898193359375,0.316986083984375,1.0721598863601685,0.9878036975860596,1.3955347537994385,88.73448181152344,-53.09666442871094,272.2623291015625
1700075109,0.3450775146484375,-0.3487548828125,-0.1298828125,0.4156701862812042,0.9007537961006165,1.033513426780701,88.020263671875,-51.50796508789063,271.4477844238281
1700075109,0.832000732421875,-0.5573883056640625,-0.2793426513671875,-0.2899146378040313,0.9813998937606812,1.0512322187423706,87.24238586425781,-50.74827575683594,270.6695556640625
1700075109,1.398223876953125,-0.2801666259765625,-0.1552886962890625,-0.5751136541366577,0.8443954586982727,1.477179765701294,87.04313659667969,-49.61761474609375,269.8016967773437
1700075109,1.7800750732421875,0.2013397216796875,-0.081390380859375,-0.6322472095489502,0.4466802775859833,1.546424388885498,86.21002197265625,-49.2760009765625,269.49169921875
1700075109,1.908294677734375,0.46331787109375,-0.2218170166015625,-0.6175673604011536,-0.1922346949577331,1.311203122138977,86.03720092773438,-49.08119201660156,269.23565673828125
1700075109,1.7291107177734375,0.7088623046875,-0.197662353515625,-1.0759437084197998,-0.1671354621648788,0.9983892440795898,85.89669799804688,-49.18748474121094,269.8612365722656
1700075109,1.587310791015625,0.7336273193359375,0.1287994384765625,-1.200350284576416,0.6006687879562378,0.4980491995811462,86.09407043457031,-49.16860961914063,269.6363830566406
1700075109,1.7985076904296875,0.02667236328125,0.4053802490234375,-0.3168200254440307,1.3849869966506958,0.0742262974381446,85.87937927246094,-49.10514831542969,270.1073303222656
1700075109,1.8814239501953125,-0.4722900390625,0.1539764404296875,0.1549227386713028,1.1856478452682495,0.7372218370437622,85.79707336425781,-49.31028747558594,270.35748291015625
1700075109,1.2996063232421875,0.0046539306640625,-0.39202880859375,0.0234733670949935,0.5001477599143982,1.3566166162490845,86.23834228515625,-49.604248046875,270.28466796875
1700075109,1.0180816650390625,0.1406097412109375,-0.741119384765625,-0.0583884753286838,-0.0078464718535542,1.263033390045166,86.06195068359375,-49.304718017578125,270.16180419921875
1700075109,0.959259033203125,0.0224456787109375,-0.73870849609375,-0.0660381391644477,-0.2548951506614685,0.9214681386947632,86.26466369628906,-49.69944763183594,270.80645751953125
1700075109,0.82232666015625,0.2218017578125,-0.564910888671875,0.1168163642287254,-0.1461020857095718,0.5609464049339294,86.24720764160156,-49.73760986328125,270.6072692871094
1700075109,0.768463134765625,0.438446044921875,-0.2439727783203125,0.3816815912723541,0.0443448275327682,0.3675870597362518,86.0989990234375,-49.60787963867188,271.08184814453125
1700075109,0.7571868896484375,0.46795654296875,-0.138153076171875,0.5357374548912048,0.0520094037055969,0.2399952858686447,86.35638427734375,-49.4666748046875,270.63262939453125
1700075109,0.8629608154296875,0.3536529541015625,-0.3220062255859375,0.536618173122406,-0.0904382839798927,0.138618066906929,86.4307861328125,-49.41343688964844,270.6898498535156
1700075109,1.0063629150390625,0.299591064453125,-0.440155029296875,0.3580444157123565,-0.1940901130437851,0.0866627246141433,86.10603332519531,-49.68234252929688,270.32275390625
1700075109,1.062042236328125,0.193084716796875,-0.43609619140625,0.1550801247358322,-0.1831322759389877,0.0921264663338661,86.30998229980469,-49.65318298339844,270.59295654296875
1700075109,1.0443267822265625,0.062774658203125,-0.339202880859375,0.0334889851510524,-0.1210222914814949,0.1685876846313476,86.22869873046875,-49.61993408203125,270.9129638671875
1700075109,0.98236083984375,0.0053863525390625,-0.255401611328125,0.0377172864973545,-0.0664301589131355,0.262519508600235,86.29017639160156,-49.87957763671875,271.0602111816406
1700075109,0.9416046142578124,-0.00909423828125,-0.238372802734375,0.1211309507489204,-0.0341025777161121,0.3397847414016723,86.76237487792969,-49.88209533691406,271.5292663574219
1700075109,0.9343109130859376,0.026763916015625,-0.2467193603515625,0.2210484892129898,0.0001171790863736,0.3707833886146545,86.61048889160156,-49.35211181640625,271.78729248046875
1700075109,0.939727783203125,0.074371337890625,-0.2454681396484375,0.302455723285675,0.0389023907482624,0.4029157757759094,86.33863830566406,-49.412109375,271.355224609375
1700075109,0.9242095947265624,0.102081298828125,-0.2376708984375,0.3043353855609894,0.0846584290266037,0.4664316177368164,86.11627197265625,-49.58203125,271.2225341796875
1700075109,0.8910064697265625,0.0980377197265625,-0.2590789794921875,0.2754451632499695,0.1237645521759986,0.5576866865158081,85.96540832519531,-49.183441162109375,271.143310546875
1700075109,0.8607025146484375,0.0617218017578125,-0.2923583984375,0.2356524765491485,0.1414761692285537,0.6629465222358704,85.61491394042969,-48.942657470703125,271.3091125488281
1700075109,0.857696533203125,0.0387725830078125,-0.2906036376953125,0.1925406903028488,0.1733630001544952,0.7804095149040222,85.58686828613281,-48.53578186035156,270.8177795410156
1700075109,0.8551025390625,0.04278564453125,-0.2780303955078125,0.1928746402263641,0.2298542410135269,0.8921855688095093,84.86442565917969,-48.21015930175781,270.87579345703125
1700075109,0.8409576416015625,0.0604095458984375,-0.279144287109375,0.2519057393074035,0.2999054789543152,0.9855011701583862,84.86126708984375,-47.721771240234375,270.67303466796875
1700075109,0.8492431640625,0.0738067626953125,-0.26666259765625,0.3412579894065857,0.3880699574947357,1.0756057500839231,84.37908935546875,-47.48237609863281,270.10028076171875
1700075109,0.8765869140625,0.074249267578125,-0.2205047607421875,0.4423566460609436,0.5135685205459595,1.2077670097351074,83.98747253417969,-47.143646240234375,270.2445678710937
1700075109,0.894195556640625,0.064361572265625,-0.1761322021484375,0.4691728055477142,0.6264146566390991,1.3380107879638672,83.59112548828125,-47.01737976074219,270.48895263671875
1700075109,0.9176483154296876,0.0211029052734375,-0.1639404296875,0.4346984624862671,0.6992014646530151,1.4676978588104248,83.3614501953125,-46.96174621582031,270.48858642578125
1700075109,0.95684814453125,-0.0363311767578125,-0.2061614990234375,0.4191181659698486,0.7658764123916626,1.6382203102111816,82.74761962890625,-46.03434753417969,270.4906616210937
1700075109,0.9913787841796876,-0.0041961669921875,-0.32830810546875,0.4674335122108459,0.8048166036605835,1.755492925643921,82.24879455566406,-46.39691162109375,270.25201416015625
1700075109,1.0453643798828125,0.0357818603515625,-0.3686981201171875,0.5575729608535767,0.8402992486953735,1.8281135559082031,81.96183776855469,-45.833770751953125,270.2510070800781
1700075109,1.0529632568359375,0.164031982421875,-0.31622314453125,0.6867770552635193,0.8881455659866333,1.84737491607666,81.5814208984375,-45.77777099609375,269.53466796875
1700075109,1.0583648681640625,0.33941650390625,-0.238037109375,0.8742215037345886,0.9826340079307556,1.837801098823548,81.09556579589844,-45.37834167480469,269.6351013183594
1700075109,1.08892822265625,0.43804931640625,-0.1880035400390625,1.1031627655029297,1.044329047203064,1.820794939994812,80.70570373535156,-44.9476318359375,269.06475830078125
1700075109,1.1290740966796875,0.4118499755859375,-0.153045654296875,1.311449646949768,1.0335984230041504,1.8787405490875244,80.20584106445312,-44.74928283691406,269.56353759765625
1700075109,1.02838134765625,0.3285675048828125,-0.2060546875,1.382357478141785,0.9907036423683168,1.973289132118225,79.5673828125,-44.02168273925781,269.9349975585937
1700075109,0.7689208984375,0.2996978759765625,-0.3677825927734375,1.2484630346298218,0.9189333319664,2.0218214988708496,79.09672546386719,-43.7506103515625,269.50250244140625
1700075109,0.5397186279296875,0.36907958984375,-0.4993133544921875,1.037598967552185,0.8633608818054199,1.9795849323272705,78.49179077148438,-43.27951049804688,269.187744140625
1700075109,0.53564453125,0.46722412109375,-0.4653472900390625,0.9590296149253844,0.8425067067146301,1.9283403158187864,77.40531921386719,-42.8890380859375,268.5720520019531
1700075109,0.69635009765625,0.512847900390625,-0.3402862548828125,0.9605404138565063,0.8019523620605469,1.924643635749817,76.6597900390625,-42.38136291503906,268.92840576171875
1700075109,0.80938720703125,0.5104217529296875,-0.3666839599609375,0.9456663727760316,0.6823812127113342,1.921730399131775,75.84918212890625,-41.98933410644531,269.2391357421875
1700075109,0.8439483642578125,0.4903411865234375,-0.44171142578125,0.8961814045906067,0.5759842395782471,1.9424817562103271,75.17927551269531,-41.78538513183594,268.92742919921875
1700075109,0.74432373046875,0.492767333984375,-0.4745941162109375,0.9077392220497132,0.4814204275608063,1.9860347509384155,74.61805725097656,-41.37579345703125,268.5057373046875
1700075109,0.5304107666015625,0.5418701171875,-0.4820098876953125,0.9214417338371276,0.3940740823745727,1.9282146692276,73.83749389648438,-41.22077941894531,268.39892578125
1700075109,0.3920135498046875,0.6187591552734375,-0.462066650390625,0.9218404293060304,0.3528440594673157,1.867113709449768,73.36112976074219,-41.169281005859375,269.0228576660156
1700075109,0.459808349609375,0.719512939453125,-0.3808746337890625,0.917314887046814,0.2717050015926361,1.834322214126587,72.43293762207031,-40.92599487304688,269.1746826171875
1700075109,0.615875244140625,0.7060394287109375,-0.295196533203125,0.9071664214134216,0.1807130575180053,1.853154182434082,71.94523620605469,-40.57212829589844,268.9166259765625
1700075109,0.6396942138671875,0.6507110595703125,-0.3759918212890625,0.88576740026474,0.076130986213684,1.8894422054290767,71.01069641113281,-40.676361083984375,268.7227478027344
1700075109,0.5944366455078125,0.665863037109375,-0.4337310791015625,0.8431461453437805,-0.004514324478805,1.8920038938522337,70.02229309082031,-39.99879455566406,268.9168395996094
1700075109,0.6536865234375,0.7072906494140625,-0.3993988037109375,0.8659595847129822,-0.0685239359736442,1.9343297481536863,69.12330627441406,-39.97273254394531,268.37969970703125
1700075109,0.752349853515625,0.7302703857421875,-0.342193603515625,0.93142968416214,-0.1535360366106033,1.989512920379639,68.02363586425781,-39.305694580078125,267.9199523925781
1700075109,1.16314697265625,0.75506591796875,-0.3882904052734375,0.8883336186408997,-0.3348815739154815,2.104668140411377,67.13841247558594,-39.303070068359375,267.6676025390625
1700075109,1.7622528076171875,0.78466796875,-0.470703125,0.8457901477813721,-0.4809852540493011,2.3153555393218994,65.9180908203125,-39.181732177734375,267.8479309082031
1700075109,1.9521636962890625,0.66326904296875,-0.3885040283203125,0.8563902974128723,-0.5499459505081177,2.6382455825805664,65.06254577636719,-39.19406127929688,267.3319091796875
1700075110,1.8723602294921875,0.47357177734375,-0.34661865234375,0.7477602362632751,-0.6845058798789978,2.9348440170288086,64.09693908691406,-39.06974792480469,267.09832763671875
1700075110,2.11859130859375,0.443115234375,-0.3859710693359375,0.5893543362617493,-0.7861912250518799,3.212127208709717,63.46392822265625,-38.892669677734375,266.222900390625
1700075110,2.334091186523437,0.411224365234375,-0.39019775390625,0.318297803401947,-0.8998349905014038,3.2750186920166016,62.97430419921875,-39.08151245117188,266.152587890625
1700075110,2.48590087890625,0.2763824462890625,-0.333160400390625,0.0677928924560546,-1.0880227088928225,3.12933087348938,62.31103515625,-39.373138427734375,265.3085021972656
1700075110,2.5120391845703125,0.1235504150390625,-0.2728729248046875,-0.1542239189147949,-1.3469504117965698,2.879143238067627,62.17985534667969,-39.48158264160156,264.7628479003906
1700075110,2.330413818359375,0.0035247802734375,-0.2886505126953125,-0.3823918402194977,-1.6255637407302856,2.599609375,62.20582580566406,-40.05000305175781,265.08013916015625
1700075110,1.8663482666015625,-0.12420654296875,-0.3807373046875,-0.9958179593086244,-1.4845956563949585,2.381942749023437,62.37147521972656,-39.95176696777344,264.1522827148437
1700075110,1.1594390869140625,-0.2073516845703125,-0.7164154052734375,-1.5272754430770874,-1.3986972570419312,2.0730717182159424,62.432952880859375,-39.957550048828125,263.880859375
1700075110,0.493408203125,-0.32708740234375,-0.912017822265625,-1.6975239515304563,-1.709619402885437,1.711989402770996,62.64897155761719,-40.592132568359375,263.52716064453125
1700075110,0.0281524658203125,-0.3824310302734375,-0.8537445068359375,-1.9139169454574585,-1.927179455757141,1.2127997875213623,63.21726989746094,-40.51200866699219,263.3165283203125
1700075110,-0.3588104248046875,-0.416412353515625,-0.9251251220703124,-1.349240779876709,-1.896257281303405,0.4796060025691986,64.16513061523438,-40.55235290527344,264.0443725585937
1700075110,-0.5694122314453125,-0.560089111328125,-0.4188690185546875,-1.3585985898971558,-2.090533494949341,-0.2926489114761352,64.85903930664062,-41.14654541015625,264.1664123535156
1700075110,-0.41705322265625,-0.374786376953125,0.1219329833984375,-2.018393039703369,-2.590883255004883,-0.7772986888885498,65.52644348144531,-41.21980285644531,264.0644836425781
1700075110,0.1068115234375,-0.0983428955078125,0.11663818359375,-2.4240376949310303,-3.122006416320801,-1.2685858011245728,66.34542846679688,-41.525421142578125,263.92266845703125
1700075110,0.5049285888671875,-0.227142333984375,-0.0562591552734375,-2.3428878784179688,-3.3601531982421875,-1.914342999458313,67.37692260742188,-41.99186706542969,264.11639404296875
1700075110,0.6746978759765625,-0.506134033203125,-0.26824951171875,-1.8898371458053589,-3.381497621536255,-2.3071861267089844,68.56962585449219,-42.10206604003906,263.34747314453125
1700075110,0.66241455078125,-0.5998077392578125,-0.3240966796875,-1.5977762937545776,-3.410536766052246,-2.300677299499512,69.81936645507812,-42.390167236328125,263.416015625
1700075110,0.63555908203125,-0.42388916015625,-0.38006591796875,-1.628300666809082,-3.512593507766724,-2.2822341918945312,71.16554260253906,-42.75157165527344,263.3592529296875
1700075110,0.6710357666015625,-0.1826934814453125,-0.5283355712890625,-1.8069369792938232,-3.634420156478882,-2.386465311050415,72.44508361816406,-43.48527526855469,263.0578918457031
1700075110,0.7490692138671875,0.0055999755859375,-0.6234893798828125,-2.0745582580566406,-3.7310729026794434,-2.556357383728028,73.71353149414062,-44.1890869140625,262.53131103515625
1700075110,0.8251953125,0.1529998779296875,-0.683746337890625,-2.3795530796051025,-3.769944667816162,-2.7917394638061523,75.18531799316406,-44.55088806152344,262.48541259765625
1700075110,0.9324493408203124,0.25042724609375,-0.6887664794921875,-2.6610445976257324,-3.784085512161255,-3.060936689376831,76.23445129394531,-45.113311767578125,262.3720397949219
1700075110,1.0585174560546875,0.3052978515625,-0.6333770751953125,-3.0619475841522217,-3.817169666290283,-3.265075445175171,77.42628479003906,-45.92033386230469,262.6248474121094
1700075110,1.1571197509765625,0.3008575439453125,-0.6137847900390625,-3.538519859313965,-3.867372274398804,-3.361440896987915,78.425537109375,-46.35874938964844,263.6191101074219
1700075110,1.205047607421875,0.22735595703125,-0.6448974609375,-4.038052082061768,-3.8462400436401367,-3.384973526000977,79.63313293457031,-47.19096374511719,264.8866271972656
1700075110,1.220672607421875,0.1554718017578125,-0.76763916015625,-4.492901802062988,-3.8242359161376953,-3.402026653289795,81.52720642089844,-48.18037414550781,264.83184814453125
1700075110,1.2151336669921875,0.0963592529296875,-0.9246673583984376,-4.751216888427734,-3.795521974563599,-3.41550350189209,82.2962646484375,-48.73863220214844,265.8171081542969
1700075110,1.2017669677734375,0.0596160888671875,-1.0307769775390625,-4.857760429382324,-3.744986057281494,-3.372523307800293,83.88545227050781,-49.93017578125,266.52850341796875
1700075110,1.195343017578125,0.0927276611328125,-1.068572998046875,-4.851820945739746,-3.6409850120544434,-3.2344508171081543,84.59103393554688,-50.82485961914063,266.8887939453125
1700075110,1.218841552734375,0.18115234375,-1.0633697509765625,-4.818904876708984,-3.5079925060272217,-3.062934637069702,85.91255187988281,-51.605712890625,267.5524597167969
1700075110,1.3143463134765625,0.2516326904296875,-1.1022796630859375,-5.028661727905273,-3.399054288864136,-2.992241382598877,86.7855224609375,-52.41316223144531,267.6884765625
1700075110,1.4692230224609375,0.262939453125,-1.2781219482421875,-5.438331127166748,-3.352452516555786,-2.976189136505127,87.33645629882812,-53.36053466796875,267.5278625488281
1700075110,1.6228790283203125,0.2266082763671875,-1.4486846923828125,-5.825302600860596,-3.4187145233154297,-2.8980133533477783,88.52981567382812,-54.10395812988281,267.7354736328125
1700075110,1.7249298095703125,0.1652984619140625,-1.4757843017578125,-5.925125598907471,-3.451122283935547,-2.7636468410491943,89.22499084472656,-55.25932312011719,268.161865234375
1700075110,1.73223876953125,0.0758209228515625,-1.374481201171875,-5.810998916625977,-3.311103343963623,-2.656233310699463,90.06472778320312,-55.985870361328125,268.2955322265625
1700075110,1.6867523193359375,-0.0279388427734375,-1.3548583984375,-5.509710788726807,-3.1002137660980225,-2.598021984100342,91.04539489746094,-56.74729919433594,268.2720642089844
1700075110,1.5869293212890625,-0.1008148193359375,-1.3418426513671875,-5.16959810256958,-2.821107625961304,-2.593711853027344,91.2047882080078,-57.448089599609375,268.9540405273437
1700075110,1.438385009765625,-0.126495361328125,-1.376129150390625,-4.832169532775879,-2.4694600105285645,-2.598095893859864,91.7889404296875,-58.36363220214844,269.26678466796875
1700075110,1.3454132080078125,-0.0967559814453125,-1.3975982666015625,-4.220418453216553,-2.163041353225708,-2.5869829654693604,92.3173828125,-59.1033935546875,269.60125732421875
1700075110,1.332305908203125,-0.0010833740234375,-1.289794921875,-3.4452662467956543,-1.9638469219207764,-2.6235830783843994,92.643798828125,-59.503692626953125,269.476806640625
1700075110,1.33551025390625,0.1158599853515625,-1.1877899169921875,-2.5914947986602783,-1.8189622163772583,-2.7068030834198,93.0867919921875,-60.177490234375,269.71240234375
1700075110,1.2784881591796875,0.24749755859375,-1.056671142578125,-1.6908161640167236,-1.6333531141281128,-2.786096572875977,93.3601531982422,-60.41087341308594,269.6340637207031
1700075110,1.1892547607421875,0.3812103271484375,-0.9048614501953124,-0.9981650114059448,-1.4008290767669678,-2.801170110702514,93.84446716308594,-61.090423583984375,270.2443542480469
1700075110,1.1384124755859375,0.4847412109375,-0.77166748046875,-0.7243478298187256,-1.1451654434204102,-2.677311420440674,93.94670104980467,-61.3221435546875,270.5384521484375
1700075110,1.11993408203125,0.5616455078125,-0.6847991943359375,-0.8814168572425842,-0.8827361464500427,-2.555521011352539,94.45564270019533,-61.55937194824219,270.74176025390625
1700075110,1.1397247314453125,0.52679443359375,-0.67083740234375,-1.316588282585144,-0.6267163753509521,-2.47448205947876,94.29620361328124,-61.74101257324219,270.9405212402344
1700075110,1.1704559326171875,0.363525390625,-0.695465087890625,-2.029975414276123,-0.4758211374282837,-2.206129789352417,94.96101379394533,-61.72412109375,270.6941223144531
1700075110,1.0899200439453125,0.268768310546875,-0.739105224609375,-2.821868419647217,-0.4047307074069977,-1.7956140041351318,95.06193542480467,-61.55268859863281,270.398193359375
1700075110,0.994293212890625,0.1951751708984375,-0.7287445068359375,-3.3790502548217773,-0.3297744393348694,-1.3697282075881958,94.7410888671875,-61.47892761230469,270.8565979003906
1700075110,0.9245452880859376,0.1358795166015625,-0.6521759033203125,-3.6201963424682617,-0.2085769176483154,-0.915125012397766,94.73274230957033,-61.40153503417969,270.698974609375
1700075110,0.8621978759765625,0.1740264892578125,-0.556732177734375,-3.7149953842163086,-0.0896337479352951,-0.5245761275291443,95.47898864746094,-60.68109130859375,270.64813232421875
1700075110,0.8614044189453125,0.2885284423828125,-0.51055908203125,-3.67949891090393,-0.0219756066799163,-0.2576634883880615,95.57997131347656,-60.69828796386719,270.2976989746094
1700075110,0.9317169189453124,0.4106903076171875,-0.4968719482421875,-3.569206714630127,-0.0099133504554629,-0.1127931252121925,95.68096923828124,-59.85498046875,269.4180908203125
1700075110,0.987396240234375,0.5323028564453125,-0.4921722412109375,-3.5600905418396,0.019356120377779,-0.0903791636228561,95.6466827392578,-59.20509338378906,268.515869140625
1700075110,1.007293701171875,0.59112548828125,-0.4871368408203125,-3.812295198440552,0.1397315412759781,-0.1765497326850891,95.93927001953124,-58.57980346679688,267.8175048828125
1700075110,0.9846954345703124,0.5552520751953125,-0.48626708984375,-4.12761116027832,0.3600830733776092,-0.2206354439258575,95.58108520507812,-57.97555541992188,267.53350830078125
1700075110,0.9166717529296876,0.430419921875,-0.4504241943359375,-4.367083549499512,0.5549718737602234,-0.1289097815752029,95.42066955566406,-56.57112121582031,265.409423828125
1700075110,0.8082275390625,0.2880859375,-0.431793212890625,-4.627318382263184,0.6374547481536865,0.0534797348082065,95.11669921875,-55.33671569824219,265.60986328125
1700075110,0.7251129150390625,0.1963958740234375,-0.50567626953125,-4.659662246704102,0.6725000739097595,0.2345062494277954,94.89617919921876,-55.03846740722656,265.7459716796875
1700075110,0.7205657958984375,0.113433837890625,-0.537109375,-4.409735679626465,0.7251207232475281,0.3365636467933655,94.96884155273438,-54.772216796875,265.7257080078125
1700075110,0.7674407958984375,0.025177001953125,-0.506134033203125,-4.0397047996521,0.7951698303222656,0.3737117946147918,94.79525756835938,-55.26495361328125,265.11102294921875
1700075110,0.7910919189453125,-0.0098724365234375,-0.49749755859375,-3.760010004043579,0.8786631226539612,0.4026196300983429,94.98298645019533,-54.68049621582031,265.3468017578125
1700075110,0.76763916015625,0.05755615234375,-0.5647430419921875,-3.5916850566864014,0.988359272480011,0.3617914915084839,94.79583740234376,-53.97850036621094,264.49932861328125
1700075110,0.7683868408203125,0.142059326171875,-0.6504364013671875,-3.276809930801392,1.056648850440979,0.3518837392330169,94.2379150390625,-53.70487976074219,264.3585510253906
1700075110,0.84075927734375,0.2339630126953125,-0.610321044921875,-2.8414247035980225,1.1374493837356567,0.6050395965576172,94.69879150390624,-53.45002746582031,263.6513061523437
1700075110,0.8800201416015625,0.438995361328125,-0.566986083984375,-2.488743305206299,1.444290280342102,1.0338212251663208,94.63121032714844,-52.865509033203125,263.21160888671875
1700075110,0.76531982421875,0.668670654296875,-0.8736419677734375,-2.0579092502593994,1.6303192377090454,1.480606198310852,94.34283447265624,-52.4307861328125,262.7164306640625
1700075110,0.7960968017578125,0.84307861328125,-0.99560546875,-1.783562421798706,1.160580039024353,1.0579590797424316,94.21200561523438,-51.752044677734375,262.498291015625
1700075110,1.5266571044921875,0.458892822265625,-0.2569732666015625,-1.5358167886734009,-0.5197973847389221,0.2525257170200348,93.9076690673828,-51.73948669433594,262.53094482421875
1700075110,2.585433959960937,-0.142486572265625,1.6562957763671875,-2.2000811100006104,1.0463203191757202,0.3675116896629333,93.8059539794922,-51.4906005859375,262.2366943359375
1700075110,2.1927490234375,-0.1523284912109375,0.9427490234375,-1.4891728162765503,1.988694787025452,0.4669876992702484,93.89479064941406,-51.40309143066406,261.357666015625
1700075110,1.2302093505859375,-0.0319061279296875,0.162353515625,-1.351251482963562,2.205594539642334,0.4067619144916534,93.52761840820312,-51.20338439941406,261.21124267578125
1700075110,0.6311187744140625,0.1668243408203125,-0.4363861083984375,-1.90926194190979,1.9782404899597168,0.4480113387107849,93.3876495361328,-50.950439453125,260.9134216308594
1700075110,0.3409271240234375,0.5019378662109375,-1.173553466796875,-2.673946142196656,1.319747805595398,0.5097444653511047,93.04891967773438,-50.32792663574219,260.5336303710937
1700075110,0.590484619140625,0.534027099609375,-1.2809295654296875,-2.5497195720672607,0.3538472950458526,0.6364337205886841,93.08847045898438,-50.28189086914063,260.8013000488281
1700075110,1.1750335693359375,0.2607421875,-0.03924560546875,-2.3174524307250977,-0.1900740712881088,1.2274078130722046,93.08358764648438,-50.32896423339844,261.03302001953125
1700075110,1.4565277099609375,0.4721221923828125,0.682281494140625,-2.3692431449890137,0.3398840725421905,0.9427028298377992,92.88737487792967,-50.283111572265625,261.05157470703125
1700075110,1.4059295654296875,0.5123291015625,0.45123291015625,-1.5828005075454712,1.0868836641311646,0.3863983154296875,92.8017578125,-49.88336181640625,261.572998046875
1700075110,1.286834716796875,0.68707275390625,0.622772216796875,-0.2936105728149414,1.563847899436951,-0.0203446857631206,92.67733764648438,-49.8646240234375,261.3964233398437
1700075110,1.0681610107421875,0.73016357421875,0.3151397705078125,0.2286419719457626,1.5631139278411863,-0.3078547716140747,92.6847686767578,-49.27275085449219,261.79254150390625
1700075110,0.962371826171875,0.481658935546875,-0.0510101318359375,0.1053197681903839,1.450490117073059,-0.5298407077789307,92.96971130371094,-49.55299377441406,261.39569091796875
1700075110,0.97637939453125,0.1820526123046875,-0.28167724609375,-0.0031880701426416,1.3282837867736816,-0.5856781005859375,92.86964416503906,-49.839691162109375,261.7040405273437
1700075110,0.9788055419921876,-0.0196533203125,-0.330841064453125,-0.1491689831018448,1.0858168601989746,-0.4560799300670624,92.80796813964844,-49.61827087402344,261.76611328125
1700075110,0.9732513427734376,-0.0774383544921875,-0.393096923828125,-0.3035513460636139,0.6341652274131775,-0.2336114197969436,92.4673309326172,-49.86286926269531,261.5325927734375
1700075110,1.0366363525390625,-0.0861968994140625,-0.425628662109375,-0.0968921929597854,0.3156951069831848,-0.0919301882386207,92.53121948242188,-49.49456787109375,261.6615600585937
1700075110,1.1246490478515625,-0.1278533935546875,-0.2803192138671875,0.0406582131981849,0.2034125030040741,-0.0122255068272352,92.600830078125,-49.66436767578125,261.97381591796875
1700075110,1.0833587646484375,-0.0603485107421875,-0.1511077880859375,-0.0723335817456245,0.1924019306898117,-0.0263852681964635,92.42825317382812,-49.567291259765625,261.424072265625
1700075110,0.998443603515625,0.0371856689453125,-0.1348419189453125,-0.3707900643348694,0.2566621601581573,-0.1325090378522873,92.59263610839844,-49.40885925292969,261.7045288085937
1700075110,0.99212646484375,0.0974884033203125,-0.1193084716796875,-0.7251630425453186,0.4015596807003021,-0.2627218961715698,92.1146240234375,-48.795654296875,261.72052001953125
1700075110,1.0244293212890625,0.1053924560546875,-0.078765869140625,-0.904898166656494,0.5511078834533691,-0.3437658846378326,92.17024230957033,-48.79425048828125,261.2034912109375
1700075110,1.0250244140625,0.0395050048828125,-0.054229736328125,-0.9853861331939696,0.6070877909660339,-0.3699050843715668,92.44252014160156,-48.113525390625,261.26763916015625
1700075110,1.0104217529296875,0.012237548828125,-0.1059112548828125,-0.921936571598053,0.5330333113670349,-0.3532643318176269,91.99697875976562,-48.21792602539063,261.7889709472656
1700075110,0.9968719482421876,0.012664794921875,-0.1699981689453125,-0.6036685705184937,0.3773390352725982,-0.2900257110595703,91.5718994140625,-47.57524108886719,262.0499267578125
1700075110,0.9833526611328124,-0.0020294189453125,-0.180572509765625,-0.1491000056266784,0.2756339609622955,-0.229282721877098,91.51577758789062,-47.56031799316406,262.03857421875
