timestamp,acc-x,acc-y,acc-z,gyr-x,gyr-y,gyr-z,mag-x,mag-y,mag-z
1700075425,1.7444000244140625,-1.08099365234375,1.2996673583984375,-0.3518853485584259,0.4384513795375824,-0.7707095146179199,86.19668579101562,-37.149169921875,227.98077392578125
1700075425,1.96466064453125,-2.0254669189453125,1.404937744140625,-1.3329353332519531,1.443532943725586,0.4663333594799042,87.54022216796875,-38.360931396484375,228.1366424560547
1700075425,1.4077301025390625,-0.9570159912109376,0.0274810791015625,-1.8149913549423216,1.7105419635772705,2.9838244915008545,88.85009765625,-39.90452575683594,226.80517578125
1700075425,1.329345703125,0.4033966064453125,-0.58062744140625,-0.7461562156677246,1.1927694082260132,3.548328161239624,90.3922119140625,-41.03437805175781,226.9721221923828
1700075425,1.5603790283203125,0.13916015625,-0.0434112548828125,-0.301409900188446,1.0164740085601809,2.4536778926849365,92.1312255859375,-42.53846740722656,226.3851928710937
1700075425,1.446136474609375,-0.1736602783203125,-0.3935394287109375,-0.6464447975158691,1.0436060428619385,1.5469881296157837,93.36376953125,-43.14747619628906,226.4651641845703
1700075425,1.0981597900390625,0.2774200439453125,-0.4625396728515625,-0.6200134754180908,1.366200566291809,1.283290982246399,94.96705627441406,-44.59716796875,226.68946838378903
1700075425,0.785400390625,0.6285247802734375,-0.26568603515625,-0.3465422391891479,1.4706172943115234,1.425225019454956,96.7017822265625,-45.211212158203125,226.90701293945312
1700075425,0.8014678955078125,0.7645416259765625,-0.2250213623046875,-0.1397371292114257,1.301120042800903,1.1370896100997925,97.7623291015625,-46.071533203125,226.9513397216797
1700075425,1.1793060302734375,0.497039794921875,-0.30084228515625,-0.027673440054059,1.0222642421722412,0.8595424294471741,99.38504028320312,-46.18952941894531,227.261962890625
1700075425,1.26226806640625,0.278106689453125,-0.3767547607421875,0.1528838276863098,0.7285220623016357,0.9147270917892456,100.34130859375,-46.683502197265625,228.25662231445312
1700075425,1.130218505859375,0.2164764404296875,-0.260772705078125,0.3829726874828338,0.6374526619911194,0.9884665608406068,101.210205078125,-47.17535400390625,228.5644378662109
1700075425,1.142425537109375,0.035491943359375,-0.0853424072265625,0.4263379871845245,0.6437118649482727,0.9176246523857116,101.65016174316406,-47.46650695800781,227.97213745117188
1700075425,1.135650634765625,-0.0766754150390625,-0.05999755859375,0.2890579104423523,0.601996660232544,0.8078664541244507,102.28372192382812,-47.54789733886719,228.90109252929688
1700075425,1.0534515380859375,-0.0167388916015625,-0.1467742919921875,-0.001774197909981,0.540577232837677,0.7186406850814819,102.4333038330078,-47.65325927734375,228.3236541748047
1700075425,1.020599365234375,0.04876708984375,-0.179412841796875,-0.3163337409496307,0.4892109632492065,0.629345178604126,102.61595153808594,-47.91304016113281,227.85809326171875
1700075425,1.0695343017578125,0.05145263671875,-0.0963897705078125,-0.452077180147171,0.5102912187576294,0.5635552406311035,102.71087646484376,-48.0484619140625,227.58316040039065
1700075425,1.075469970703125,0.057708740234375,-0.03857421875,-0.4674175381660461,0.4946246445178985,0.4906994104385376,102.01611328125,-47.796417236328125,227.58123779296875
1700075425,1.0448455810546875,0.080291748046875,-0.0673675537109375,-0.430148720741272,0.4565712809562683,0.4002403616905212,101.966552734375,-47.861907958984375,227.67996215820312
1700075425,1.044036865234375,0.106048583984375,-0.1207427978515625,-0.3241466581821441,0.3938415646553039,0.3127600252628326,102.38841247558594,-48.17085266113281,228.382553100586
1700075425,1.056365966796875,0.1090240478515625,-0.1448822021484375,-0.1828300058841705,0.330021321773529,0.2587245106697082,102.3082275390625,-48.62364196777344,227.8348999023437
1700075425,1.0716552734375,0.096527099609375,-0.1458587646484375,0.0175901781767606,0.2779338955879211,0.2110877335071563,102.7462921142578,-47.992767333984375,227.93679809570312
1700075425,1.0823211669921875,0.0637359619140625,-0.115081787109375,0.2136957794427871,0.2589814960956573,0.1812616735696792,102.35824584960938,-47.72874450683594,228.2330780029297
1700075425,1.0611724853515625,0.0483245849609375,-0.0741424560546875,0.3338136672973633,0.2647807896137237,0.1448139101266861,102.44905090332033,-47.45965576171875,227.86773681640625
1700075425,1.0287628173828125,0.0489349365234375,-0.0443267822265625,0.3408531844615936,0.2855510413646698,0.1030768528580665,102.65887451171876,-47.05535888671875,228.3229217529297
1700075425,0.9935150146484376,0.008575439453125,-0.046905517578125,0.2424086481332779,0.3122716248035431,0.1063051372766494,102.18547058105467,-47.47589111328125,228.2267303466797
1700075425,0.9523468017578124,-0.0767974853515625,-0.0954132080078125,0.0755344405770301,0.3079929649829864,0.1571472734212875,102.3687744140625,-47.4700927734375,228.2767028808593
1700075425,0.933807373046875,-0.168426513671875,-0.1727752685546875,-0.0960287973284721,0.2788436114788055,0.2243252545595169,101.85064697265624,-47.15966796875,227.867431640625
1700075426,0.9469146728515624,-0.2242431640625,-0.192718505859375,-0.2411987632513046,0.2547686398029327,0.2883827984333038,102.11985778808594,-47.16053771972656,228.0678253173828
1700075426,0.974456787109375,-0.2106170654296875,-0.1723785400390625,-0.3077008426189422,0.240063726902008,0.3186578750610351,102.08157348632812,-47.11378479003906,227.6818389892578
1700075426,0.983673095703125,-0.13616943359375,-0.14990234375,-0.2651081085205078,0.2416658848524093,0.3164756894111633,101.99969482421876,-47.06169128417969,228.227783203125
1700075426,0.979278564453125,-0.07269287109375,-0.1347503662109375,-0.1116722002625465,0.2529236078262329,0.3172735571861267,102.27409362792967,-47.34074401855469,227.95982360839844
1700075426,0.9752197265625,-0.029754638671875,-0.1168670654296875,0.017968613654375,0.2561627924442291,0.348141998052597,102.34947204589844,-47.1044921875,228.2845001220703
1700075426,0.98040771484375,0.0021209716796875,-0.1146240234375,0.0811430588364601,0.2570722699165344,0.3588753342628479,102.0523681640625,-47.48077392578125,228.10711669921875
1700075426,0.9954986572265624,-0.03662109375,-0.1175384521484375,0.1555637568235397,0.2686490416526794,0.3696065545082092,102.29562377929688,-47.350982666015625,227.7078552246093
1700075426,0.9859466552734376,-0.1202545166015625,-0.1257476806640625,0.1892812401056289,0.2673339545726776,0.4074101150035858,102.17965698242188,-47.17564392089844,228.4017028808593
1700075426,0.9731903076171876,-0.1810302734375,-0.15185546875,0.1477439254522323,0.2489696145057678,0.4456813335418701,102.43299865722656,-47.11231994628906,228.59393310546875
1700075426,0.9879302978515624,-0.221435546875,-0.18768310546875,0.0819209665060043,0.209002211689949,0.5168047547340393,102.54071044921876,-47.573760986328125,228.5451812744141
1700075426,0.9977569580078124,-0.16473388671875,-0.2305908203125,0.0368131436407566,0.1475598961114883,0.567548394203186,102.80804443359376,-47.587890625,228.5503387451172
1700075426,1.025054931640625,-0.059906005859375,-0.2215576171875,0.0919014289975166,0.1462592035531997,0.5420677661895752,102.8492431640625,-47.887786865234375,228.6350860595703
1700075426,1.045684814453125,-0.019500732421875,-0.1316375732421875,0.2053843140602111,0.2027235478162765,0.5269777774810791,103.00091552734376,-47.432159423828125,229.47735595703125
1700075426,1.017181396484375,-0.0140838623046875,-0.05548095703125,0.2426318228244781,0.2453314661979675,0.6060758233070374,103.24392700195312,-48.06578063964844,228.929443359375
1700075426,0.9688568115234376,-0.0087432861328125,-0.042724609375,0.2026313990354538,0.2870597243309021,0.7099172472953796,103.44854736328124,-47.609375,228.8059234619141
1700075426,0.94879150390625,-0.054931640625,-0.090301513671875,0.1894322484731674,0.3139882981777191,0.7824111580848694,103.70564270019533,-48.01678466796875,229.6848297119141
1700075426,0.970489501953125,-0.1133270263671875,-0.1396636962890625,0.1484728306531906,0.325169026851654,0.8376128673553467,104.0689697265625,-48.0247802734375,229.3764190673828
1700075426,0.997650146484375,-0.106170654296875,-0.138458251953125,0.0966005772352218,0.352514386177063,0.8822405338287354,104.03379821777344,-48.57249450683594,230.2417449951172
1700075426,0.9957427978515624,-0.054840087890625,-0.1230316162109375,0.153953343629837,0.3992975950241089,0.8893160223960876,104.0857391357422,-48.79376220703125,230.123779296875
1700075426,0.989105224609375,-0.00091552734375,-0.0973968505859375,0.1592120230197906,0.4033096432685852,0.8915157914161682,104.5524444580078,-48.723541259765625,230.4030303955078
1700075426,0.9828338623046876,0.1005859375,-0.1416778564453125,0.0706696435809135,0.3852140009403229,0.867249071598053,104.48043823242188,-48.93991088867188,230.84634399414065
1700075426,1.0057830810546875,0.1259765625,-0.1841278076171875,0.0714116021990776,0.3738095462322235,0.8317313194274902,104.88784790039062,-49.567901611328125,231.6263427734375
1700075426,1.0291900634765625,0.0728912353515625,-0.2150421142578125,-0.004275971557945,0.3160775303840637,0.8116377592086792,105.07960510253906,-49.45466613769531,230.9942169189453
1700075426,1.027252197265625,0.056549072265625,-0.2573089599609375,-0.0628617852926254,0.2843947112560272,0.8028128147125244,105.17251586914062,-49.57365417480469,231.8595123291016
1700075426,1.0053558349609375,0.0470123291015625,-0.2420654296875,-0.1282783448696136,0.2714738547801971,0.8260752558708191,105.65798950195312,-49.90211486816406,232.14370727539065
1700075426,0.95477294921875,0.0980987548828125,-0.2100372314453125,-0.1549938470125198,0.2630942165851593,0.8651726245880127,105.64616394042967,-50.21990966796875,232.38169860839844
1700075426,0.92193603515625,0.161224365234375,-0.1082916259765625,-0.1797838807106018,0.2835204005241394,0.9325428605079652,105.8758544921875,-50.11862182617188,232.30723571777344
1700075426,0.9160308837890624,0.2002410888671875,-0.0903167724609375,-0.1716732233762741,0.2641126215457916,0.9918165802955629,106.38107299804688,-50.26763916015625,232.93077087402344
1700075426,0.9560699462890624,0.1607666015625,-0.1712646484375,-0.2138843238353729,0.2180127501487732,1.0322604179382324,106.34635925292967,-50.68778991699219,233.171142578125
1700075426,1.014923095703125,0.0881500244140625,-0.219879150390625,-0.2346143722534179,0.1998465359210968,1.0622841119766235,106.28410339355467,-50.41548156738281,233.43362426757807
1700075426,0.9929351806640624,0.0200653076171875,-0.2603759765625,-0.0967651605606079,0.1656395643949508,1.0987260341644287,106.65318298339844,-50.44444274902344,233.5863037109375
1700075426,0.9603424072265624,-0.008056640625,-0.28033447265625,0.0191542524844408,0.0998733341693878,1.1200573444366455,106.8656005859375,-50.295745849609375,233.45730590820312
1700075426,1.0113983154296875,0.033782958984375,-0.290863037109375,0.1195626184344291,0.0429495982825756,1.104808330535889,107.06015014648438,-50.28684997558594,233.69528198242188
1700075426,1.0991363525390625,0.1218414306640625,-0.2826385498046875,0.1934533566236496,-0.0050903661176562,1.0544874668121338,106.89263916015624,-50.097930908203125,234.07579040527344
1700075426,1.1546630859375,0.2059478759765625,-0.2386016845703125,0.2397561371326446,-0.0288955643773078,1.02640700340271,106.71946716308594,-49.84507751464844,233.885009765625
1700075426,1.170623779296875,0.2605743408203125,-0.1509552001953125,0.2229422628879547,-0.0691745430231094,1.0526500940322876,106.835205078125,-49.68670654296875,234.0406036376953
1700075426,1.194549560546875,0.2564239501953125,-0.0822601318359375,0.1453886181116104,-0.1099581941962242,1.1243104934692385,106.71080017089844,-49.126739501953125,234.57501220703125
1700075426,1.26007080078125,0.176300048828125,-0.04913330078125,0.0807667523622512,-0.1477058380842209,1.1886827945709229,106.24102783203124,-48.77568054199219,234.5379180908203
1700075426,1.3170166015625,0.1054840087890625,-0.089508056640625,0.0010466222884133,-0.1896527558565139,1.2232463359832764,106.28671264648438,-48.01463317871094,234.10313415527344
1700075426,1.370635986328125,0.0802001953125,-0.1127166748046875,-0.0267565138638019,-0.241331398487091,1.275631308555603,106.2682647705078,-47.52439880371094,234.04763793945312
1700075426,1.419647216796875,0.0890045166015625,-0.051788330078125,-0.0877391695976257,-0.3115754723548889,1.333246827125549,105.99072265625,-46.96998596191406,234.1576690673828
1700075426,1.46405029296875,0.095947265625,-0.0680389404296875,-0.0901341512799263,-0.3504863679409027,1.3630039691925049,105.68467712402344,-46.326019287109375,233.8265380859375
1700075426,1.527801513671875,0.017822265625,-0.0588836669921875,-0.0929358005523681,-0.3698068261146545,1.3676961660385132,105.1795654296875,-45.959259033203125,234.2262420654297
1700075426,1.5810089111328125,-0.055084228515625,0.0294647216796875,-0.0418201498687267,-0.4152941405773163,1.4515210390090942,104.66741943359376,-45.36625671386719,234.34005737304688
1700075426,1.570648193359375,-0.079010009765625,0.0656890869140625,0.0113192331045866,-0.4860058426856994,1.4890847206115725,104.57952880859376,-44.669769287109375,233.7621612548828
1700075426,1.6112518310546875,-0.1498565673828125,0.09100341796875,0.1203141584992408,-0.4922144711017608,1.4303582906723022,103.94749450683594,-44.4698486328125,233.408203125
1700075426,1.6899871826171875,-0.2828521728515625,0.1511688232421875,0.2945418953895569,-0.4464192986488342,1.3348023891448977,103.6082763671875,-43.88069152832031,233.67372131347656
1700075426,1.7350006103515625,-0.4428863525390625,0.1848297119140625,0.4086631238460541,-0.4003580510616302,1.2174962759017944,103.23175048828124,-42.7877197265625,233.3432464599609
1700075426,1.7590789794921875,-0.6152801513671875,0.1716766357421875,0.3590420484542846,-0.2869057953357696,1.1681122779846191,102.73312377929688,-42.02604675292969,233.39898681640625
1700075426,1.6786346435546875,-0.7695159912109375,0.0276641845703125,0.1417656540870666,-0.1783154159784317,1.2946038246154783,102.29548645019533,-40.86517333984375,232.76983642578125
1700075426,1.4657440185546875,-0.8239593505859375,-0.2805023193359375,0.0882603526115417,-0.1065173894166946,1.7190749645233154,101.46994018554688,-40.02789306640625,232.56114196777344
1700075426,1.194549560546875,-0.6597442626953125,-0.6145477294921875,-0.3783073425292969,0.1265832483768463,2.4016075134277344,101.26115417480467,-39.47996520996094,232.9648284912109
1700075426,1.0772857666015625,-0.253814697265625,-1.2469329833984375,-1.2528729438781738,0.5315176844596863,2.9536709785461426,100.30616760253906,-38.779296875,232.4560546875
1700075426,1.1324920654296875,-0.0373687744140625,-1.6544342041015625,-1.9990205764770508,0.8831990361213684,3.0472445487976074,100.10781860351562,-37.81591796875,232.2983856201172
1700075426,1.333587646484375,-0.132781982421875,-1.527252197265625,-2.468364953994751,0.9605854153633118,3.047434091567993,99.32864379882812,-37.24623107910156,231.8209991455078
1700075426,1.501678466796875,-0.0732269287109375,-1.2365264892578125,-2.6854283809661865,0.8758609294891357,3.19567608833313,98.72531127929688,-36.47677612304688,231.70095825195312
1700075426,1.4567413330078125,0.1893310546875,-1.0001220703125,-2.8123457431793213,0.6441766023635864,3.1880455017089844,98.73052978515624,-36.64617919921875,231.50819396972656
1700075426,1.449066162109375,0.3625030517578125,-0.5890350341796875,-2.7324013710021973,0.7064796686172485,2.96668028831482,98.61174011230467,-36.12440490722656,231.5486297607422
1700075426,1.4648895263671875,0.460357666015625,-0.2866058349609375,-2.23897647857666,0.9794967770576476,2.984388828277588,98.46360778808594,-36.06498718261719,232.05088806152344
1700075426,1.3914947509765625,0.6584930419921875,-0.2006988525390625,-1.8508822917938232,0.8831931352615356,2.9909019470214844,98.45599365234376,-35.473114013671875,232.3227386474609
1700075426,1.453582763671875,0.6893157958984375,-0.24493408203125,-1.6327310800552368,0.6270479559898376,2.6908233165740967,98.38067626953124,-35.37892150878906,232.2442321777344
1700075426,1.6037750244140625,0.4631805419921875,-0.26190185546875,-1.2517024278640747,0.6823375821113586,2.424110174179077,98.18673706054688,-34.849700927734375,232.5127868652344
1700075426,1.486480712890625,0.2017364501953125,-0.396453857421875,-0.951967716217041,0.6764746308326721,2.4104220867156982,98.04470825195312,-34.459228515625,232.51866149902344
1700075426,1.2781524658203125,0.1855621337890625,-0.5049591064453125,-0.9053181409835817,0.5631198287010193,2.4341251850128174,98.1037139892578,-34.71177673339844,232.51158142089844
1700075426,1.21417236328125,0.2332916259765625,-0.56781005859375,-1.0296435356140137,0.4382247626781463,2.303171157836914,97.98394775390624,-34.65087890625,232.7480010986328
1700075426,1.1765594482421875,0.236236572265625,-0.650634765625,-1.2213985919952393,0.3350251317024231,2.041917562484741,98.23043823242188,-34.33929443359375,232.6758728027344
1700075426,1.130859375,0.2383270263671875,-0.64013671875,-1.3975638151168823,0.1889920234680175,1.757413029670715,98.28594970703124,-34.080810546875,233.56414794921875
1700075426,1.053985595703125,0.2625732421875,-0.5651702880859375,-1.5345392227172852,0.0571831278502941,1.5132358074188232,98.87184143066406,-33.628570556640625,233.5989532470703
1700075426,0.9068450927734376,0.318359375,-0.522705078125,-1.70204758644104,-0.0707074627280235,1.259208083152771,99.01033020019533,-33.74198913574219,234.63287353515625
1700075426,0.7558135986328125,0.369964599609375,-0.5029144287109375,-1.871800303459168,-0.2421780079603195,0.9502880573272704,99.37330627441406,-32.90934753417969,235.48211669921875
1700075426,0.6663665771484375,0.3632049560546875,-0.462066650390625,-1.921586513519287,-0.4221469759941101,0.6328698396682739,99.86930847167967,-32.80351257324219,235.89659118652344
1700075426,0.5987701416015625,0.2726287841796875,-0.45880126953125,-2.04172158241272,-0.5209957957267761,0.3521987795829773,100.72093200683594,-32.712493896484375,236.57920837402344
1700075426,0.4841461181640625,0.190826416015625,-0.5203857421875,-2.3005926609039307,-0.6029764413833618,0.1377466768026352,100.95567321777344,-32.51255798339844,237.19940185546875
1700075426,0.356689453125,0.1661834716796875,-0.547821044921875,-2.600858211517334,-0.7096280455589294,-0.064157947897911,101.72160339355467,-32.00572204589844,237.69723510742188
1700075426,0.2481842041015625,0.1436920166015625,-0.486968994140625,-2.847975492477417,-0.866124153137207,-0.2781448066234588,102.36134338378906,-31.858566284179688,238.26795959472656
1700075426,0.2087249755859375,0.089935302734375,-0.369537353515625,-2.90439772605896,-1.0241070985794067,-0.4452248811721802,102.8165283203125,-31.71913146972656,238.98008728027344
1700075426,0.22705078125,0.0439910888671875,-0.2571258544921875,-2.836054801940918,-1.205137848854065,-0.5479446053504944,102.9401397705078,-31.174362182617188,239.11964416503903
1700075426,0.204833984375,0.1207275390625,-0.26031494140625,-2.785298109054565,-1.3756121397018433,-0.7130661606788635,102.836669921875,-30.821441650390625,238.7291412353516
1700075426,0.18603515625,0.2790985107421875,-0.3224334716796875,-2.7779526710510254,-1.5016891956329346,-1.0580129623413086,102.62945556640624,-30.478591918945312,237.4218292236328
1700075426,0.1915130615234375,0.3062744140625,-0.3411712646484375,-2.6526269912719727,-1.59328031539917,-1.417067527770996,102.09709167480467,-30.326217651367188,236.1089324951172
1700075426,0.15789794921875,0.2000579833984375,-0.339752197265625,-2.4085607528686523,-1.7092807292938232,-1.6224664449691772,101.36238098144533,-29.840866088867188,234.7918701171875
1700075426,0.0673828125,0.0759429931640625,-0.2972259521484375,-2.2171804904937744,-1.8271125555038448,-1.844465732574463,100.34553527832033,-29.553955078125,232.81982421875
1700075426,0.0566558837890625,0.00341796875,-0.3885650634765625,-1.947688698768616,-1.9482275247573853,-2.077758312225342,98.94078063964844,-28.724655151367188,232.36827087402344
1700075426,0.0841827392578125,0.0648040771484375,-0.414459228515625,-1.7160358428955078,-2.0342633724212646,-2.3568789958953857,97.54408264160156,-28.538345336914062,231.6801300048828
1700075426,0.1155853271484375,0.150177001953125,-0.4299163818359375,-1.4826472997665403,-2.061117172241211,-2.580300092697144,95.8615264892578,-27.523910522460938,230.4337615966797
1700075426,0.10540771484375,0.210601806640625,-0.4292755126953125,-1.3670620918273926,-2.078232288360596,-2.709101915359497,94.17420959472656,-26.408950805664062,228.9837951660156
1700075426,0.093017578125,0.276611328125,-0.46923828125,-1.3568209409713743,-2.0995442867279053,-2.7711548805236816,92.4263153076172,-25.749740600585938,228.82733154296875
1700075426,0.11956787109375,0.339385986328125,-0.50103759765625,-1.4683125019073486,-2.072172403335572,-2.807178974151612,91.19148254394533,-24.9422607421875,228.46258544921875
1700075426,0.1860198974609375,0.3921966552734375,-0.63848876953125,-1.520814061164856,-2.0708138942718506,-2.7545526027679443,89.40357971191406,-24.12533569335937,227.93067932128903
1700075426,0.215240478515625,0.4756622314453125,-0.6641387939453125,-1.5632771253585815,-2.030817985534668,-2.6625897884368896,87.49998474121094,-22.939529418945312,228.33924865722656
1700075426,0.212921142578125,0.55377197265625,-0.74462890625,-1.5916954278945925,-1.929483652114868,-2.5282342433929443,85.89585876464844,-22.335494995117188,228.3677978515625
1700075426,0.2099456787109375,0.6245574951171875,-0.8284759521484375,-1.5669325590133667,-1.8023128509521484,-2.3485262393951416,84.28169250488281,-22.177703857421875,228.3115997314453
1700075426,0.212005615234375,0.700836181640625,-0.8838348388671875,-1.4060922861099243,-1.6676901578903198,-2.132181406021118,83.10684204101562,-21.450592041015625,229.039291381836
1700075426,0.2093353271484375,0.8105926513671875,-0.9181976318359376,-1.151541233062744,-1.492698073387146,-1.9232685565948489,81.87649536132812,-21.22418212890625,228.5706329345703
1700075426,0.203094482421875,0.9683990478515624,-0.95819091796875,-0.8542472720146179,-1.2781327962875366,-1.7540297508239746,80.41925048828125,-21.249069213867188,229.5370483398437
1700075426,0.2062225341796875,1.124664306640625,-1.0189056396484375,-0.5501344799995422,-1.040508508682251,-1.5761271715164185,80.17509460449219,-21.16255187988281,229.49563598632807
1700075426,0.2403411865234375,1.26776123046875,-1.073150634765625,-0.2281293123960495,-0.8099562525749207,-1.4468506574630735,79.6307373046875,-20.87171936035156,229.5736541748047
1700075426,0.3127593994140625,1.3413238525390625,-1.10772705078125,-0.0356192477047443,-0.5440438389778137,-1.2307801246643066,79.7174072265625,-21.090408325195312,229.956787109375
1700075426,0.3678741455078125,1.3907470703125,-1.0906219482421875,-0.0315358228981494,-0.318101555109024,-0.8951952457427979,79.71365356445312,-21.16883850097656,229.1662750244141
1700075427,0.359619140625,1.4832305908203125,-1.01904296875,0.0923506990075111,-0.0817401334643364,-0.6360805630683899,79.50527954101562,-21.61781311035156,229.3462677001953
1700075427,0.43402099609375,1.395751953125,-0.9610137939453124,-0.1548217982053756,0.5654737949371338,-0.4955466389656067,79.83628845214844,-22.335037231445312,229.39491271972656
1700075427,0.4854278564453125,1.2723236083984375,-1.3337860107421875,0.2152132391929626,1.050596833229065,-0.0557610020041465,80.56608581542969,-22.883056640625,229.107421875
1700075427,0.342010498046875,1.4136199951171875,-1.832305908203125,1.3386741876602173,0.6248961091041565,0.7815538644790649,81.04130554199219,-23.77133178710937,228.1357879638672
1700075427,0.6945648193359375,1.7801361083984375,-1.1934356689453125,1.3795349597930908,0.0845154151320457,0.8519092798233032,82.23945617675781,-24.48300170898437,227.9325408935547
1700075427,1.517425537109375,1.6356048583984375,-0.258056640625,0.4164395630359649,-0.066718578338623,0.1881267577409744,83.09310913085938,-25.6336669921875,227.510009765625
1700075427,2.099472045898437,0.8977508544921875,0.55316162109375,0.5875561833381653,-0.2545731663703918,0.4027093648910522,84.41127014160156,-26.922760009765625,226.942611694336
1700075427,1.3704681396484375,0.4034423828125,0.7911224365234375,0.5723316669464111,-0.1700835824012756,0.802767276763916,86.24362182617188,-28.37164306640625,226.46389770507807
1700075427,0.9418487548828124,0.0424957275390625,0.15167236328125,-0.2293847203254699,-0.032985646277666,1.0104200839996338,88.06983947753906,-29.753952026367188,226.52008056640625
1700075427,0.9210968017578124,-0.02569580078125,-0.730072021484375,-0.5530133843421936,0.0215324554592371,1.016249179840088,89.69943237304688,-31.51123046875,226.259765625
1700075427,0.744903564453125,0.0718841552734375,-1.0796051025390625,-0.2465024590492248,-0.0879522264003753,0.7056156992912292,91.72842407226562,-33.095855712890625,226.0965576171875
1700075427,0.7402496337890625,0.0040435791015625,-0.8390045166015625,0.1887363642454147,0.0013470269041135,0.5509353280067444,93.85179138183594,-34.784576416015625,226.08338928222656
1700075427,0.6198272705078125,0.1717681884765625,-0.4170379638671875,0.6195244789123535,0.1176185086369514,0.4516217708587646,96.1447296142578,-36.90849304199219,225.7192840576172
1700075427,0.4990386962890625,0.6220245361328125,-0.13360595703125,0.5518839359283447,-0.0596673265099525,0.3240087032318115,98.42726135253906,-38.84226989746094,225.9627685546875
1700075427,0.8792877197265625,0.9852752685546876,-0.0478515625,-0.0215673428028821,-0.1234452351927757,0.1151968985795974,100.73233032226562,-41.15150451660156,226.2967834472656
1700075427,1.249114990234375,0.88006591796875,-0.2373504638671875,-0.3791246712207794,-0.0345792807638645,-0.0974834114313125,103.01725769042967,-43.78181457519531,226.63674926757807
1700075427,1.186492919921875,0.3271484375,-0.438812255859375,-0.4628842771053314,0.0230563171207904,-0.1062840968370437,105.46339416503906,-45.88932800292969,227.9105224609375
1700075427,1.087921142578125,-0.0789031982421875,-0.42047119140625,-0.330177903175354,-0.0378773398697376,0.1741177439689636,107.70787048339844,-48.74623107910156,228.8575592041016
1700075427,1.1147003173828125,-0.215240478515625,-0.346435546875,-0.2997691333293915,-0.0267202947288751,0.4409976303577423,109.81045532226562,-51.343109130859375,230.4869079589844
1700075427,1.180694580078125,-0.2342071533203125,-0.410888671875,-0.3232723474502563,-0.0295411143451929,0.5080631971359253,112.20516967773438,-54.22476196289063,231.91262817382807
1700075427,1.1051788330078125,0.007598876953125,-0.4335784912109375,-0.2155152410268783,-0.048293761909008,0.4577792882919311,113.82620239257812,-56.831329345703125,233.3849334716797
1700075427,1.0270233154296875,0.28009033203125,-0.4090728759765625,-0.1973887085914611,-0.0759536176919937,0.2981531322002411,115.6707000732422,-60.244232177734375,235.57986450195312
1700075427,0.9627532958984376,0.3377227783203125,-0.368927001953125,-0.1999621242284774,-0.0720464959740638,0.1467947661876678,117.1204833984375,-63.0428466796875,237.345443725586
1700075427,0.9039459228515624,0.3560028076171875,-0.318695068359375,-0.1719882786273956,-0.0583232268691062,0.0233937390148639,118.93655395507812,-66.33781433105469,239.404525756836
1700075427,0.9019775390625,0.3160247802734375,-0.3203277587890625,-0.1321798712015152,-0.0476764403283596,-0.060099821537733,119.84327697753906,-69.48896789550781,241.81668090820312
1700075427,0.9297027587890624,0.241058349609375,-0.3341217041015625,-0.1036478355526924,-0.0494706146419048,-0.0882821902632713,120.72265625,-72.807861328125,244.6839904785156
1700075427,0.9638519287109376,0.185760498046875,-0.341705322265625,-0.0782964006066322,-0.0449666753411293,-0.095687910914421,121.46304321289062,-76.53633117675781,247.194580078125
1700075427,0.972991943359375,0.139007568359375,-0.3497161865234375,-0.031291875988245,-0.0430153757333755,-0.0997407063841819,121.6446533203125,-79.79124450683594,248.9441680908203
1700075427,0.964874267578125,0.11383056640625,-0.36480712890625,0.0077788271009922,-0.0534552335739135,-0.0865894854068756,121.86647033691406,-83.14607238769531,252.15872192382807
1700075427,0.954620361328125,0.1314544677734375,-0.385498046875,-0.0090598072856664,-0.0962000340223312,-0.0807307958602905,121.50440979003906,-86.05537414550781,255.6485748291016
1700075427,0.977508544921875,0.1729583740234375,-0.379364013671875,-0.0391649790108203,-0.1251632422208786,-0.1007053032517433,121.03097534179688,-88.71522521972656,257.9434814453125
1700075427,0.9958343505859376,0.216094970703125,-0.3595428466796875,-0.0415213443338871,-0.132901057600975,-0.1626011580228805,120.30731201171876,-92.12345886230467,260.91143798828125
1700075427,1.007843017578125,0.224945068359375,-0.33538818359375,0.0047761132009327,-0.1284336000680923,-0.2275362163782119,119.4716796875,-94.72679138183594,263.50421142578125
1700075427,1.0037994384765625,0.21563720703125,-0.3394622802734375,0.0550651177763938,-0.1408809572458267,-0.2619557082653045,118.10623168945312,-96.99153137207033,266.05987548828125
1700075427,0.9657745361328124,0.222198486328125,-0.3465423583984375,0.0918540209531784,-0.1689573228359222,-0.2961389720439911,116.88430786132812,-99.8314971923828,268.1278076171875
1700075427,0.9375762939453124,0.2190704345703125,-0.34832763671875,0.1471510976552963,-0.1831977814435959,-0.3312293291091919,114.82150268554688,-102.01155090332033,270.15301513671875
1700075427,0.92950439453125,0.19561767578125,-0.3501129150390625,0.2002332210540771,-0.1961836218833923,-0.3575224578380584,112.77490234375,-105.02256774902344,271.2792358398437
1700075427,0.9339447021484376,0.15167236328125,-0.3538665771484375,0.1870851963758468,-0.2084751725196838,-0.3557354807853699,110.5250244140625,-106.99650573730467,272.73931884765625
1700075427,0.9511566162109376,0.111541748046875,-0.3568115234375,0.1278764754533767,-0.2163650542497635,-0.3097589313983917,108.5637664794922,-109.22816467285156,273.8304443359375
1700075427,0.9633636474609376,0.1074676513671875,-0.348602294921875,0.0847361907362937,-0.2088133990764618,-0.2739923894405365,106.45314025878906,-111.05030822753906,274.4620056152344
1700075427,0.9783477783203124,0.11944580078125,-0.329193115234375,0.0819318816065788,-0.200313925743103,-0.2728669643402099,104.71223449707033,-113.46492004394533,274.06988525390625
1700075427,1.0042266845703125,0.1399993896484375,-0.3111114501953125,0.1037642136216163,-0.177674651145935,-0.2783370912075043,102.3324737548828,-115.08731079101562,274.2297668457031
1700075427,1.0278472900390625,0.161468505859375,-0.2978515625,0.1840483993291854,-0.1650938838720321,-0.2859851419925689,100.11016845703124,-116.54005432128906,274.412353515625
1700075427,1.0267486572265625,0.1590118408203125,-0.2742156982421875,0.2326481640338897,-0.1371426731348037,-0.2656324803829193,97.96693420410156,-118.18717956542967,274.23858642578125
1700075427,1.007476806640625,0.14605712890625,-0.277191162109375,0.2415644228458404,-0.130494624376297,-0.2333371192216873,96.34358215332033,-118.97697448730467,274.6021728515625
1700075427,0.9836273193359376,0.1187744140625,-0.2922821044921875,0.2127029448747635,-0.1465204656124115,-0.2084802389144897,94.22364807128906,-120.18733215332033,274.342041015625
1700075427,0.96575927734375,0.075927734375,-0.3213348388671875,0.2211750000715255,-0.1453271061182022,-0.1789678931236267,93.0706024169922,-120.53536987304688,274.9584655761719
1700075427,0.936065673828125,0.052093505859375,-0.36553955078125,0.2001112550497055,-0.1650587320327758,-0.1460280418395996,91.88278198242188,-121.62310791015624,275.3441467285156
1700075427,0.9400634765625,0.066619873046875,-0.357696533203125,0.1421851068735122,-0.2155479937791824,-0.1183383613824844,90.53106689453124,-121.52357482910156,275.98077392578125
1700075427,0.9642181396484376,0.095001220703125,-0.3236541748046875,0.1273787319660186,-0.2104877233505249,-0.1011644378304481,89.45549011230469,-121.75418090820312,275.8153686523437
1700075427,0.9482574462890624,0.1295318603515625,-0.31488037109375,0.1664923131465912,-0.2131785899400711,-0.1264756470918655,89.07560729980469,-121.59074401855467,276.7439880371094
1700075427,0.937255859375,0.1369476318359375,-0.2929840087890625,0.2492457777261734,-0.1972438246011734,-0.1226430982351303,88.76979064941406,-121.68434143066406,276.53338623046875
1700075427,0.93597412109375,0.12774658203125,-0.281707763671875,0.3809579908847809,-0.1826243996620178,-0.1029591411352157,88.73890686035156,-121.55838012695312,277.1986083984375
1700075427,0.9370574951171876,0.0867767333984375,-0.2813873291015625,0.4847778677940368,-0.1917531937360763,-0.0769941136240959,88.98635864257812,-120.9591064453125,277.13232421875
1700075427,0.969390869140625,0.03839111328125,-0.2861175537109375,0.5209912657737732,-0.2164782434701919,-0.0260121598839759,89.38058471679688,-120.60061645507812,277.4045715332031
1700075427,1.0350494384765625,0.035003662109375,-0.2909088134765625,0.4871792495250702,-0.2285215854644775,0.0423248186707496,89.50067138671875,-120.43162536621094,278.05206298828125
1700075427,1.101959228515625,0.0713043212890625,-0.266357421875,0.4218079745769501,-0.2110230177640915,0.0973904654383659,90.06918334960938,-119.7638702392578,277.4365234375
1700075427,1.1408538818359375,0.11456298828125,-0.17913818359375,0.3540403544902801,-0.1835469305515289,0.1353852599859237,90.71791076660156,-119.0429229736328,277.4508361816406
1700075427,1.1449127197265625,0.157440185546875,-0.1048126220703125,0.3578814566135406,-0.1562471240758896,0.1603470593690872,90.7255859375,-119.32644653320312,278.51324462890625
1700075427,1.1482696533203125,0.15789794921875,-0.1264801025390625,0.4324654042720794,-0.1298520117998123,0.1813391596078872,90.18609619140624,-119.85577392578124,278.74908447265625
1700075427,1.1623382568359375,0.11602783203125,-0.172454833984375,0.5067060589790344,-0.1790003776550293,0.2331453710794448,90.485107421875,-119.54377746582033,278.596923828125
1700075427,1.16253662109375,0.0802001953125,-0.2117919921875,0.5997223258018494,-0.2323666661977768,0.2353390157222747,90.87472534179688,-118.318115234375,279.0155029296875
1700075427,1.1700592041015625,0.016754150390625,-0.260589599609375,0.6892330050468445,-0.2900786995887756,0.2381140291690826,92.14707946777344,-116.7843017578125,278.93975830078125
1700075427,1.1830596923828125,-0.00823974609375,-0.332763671875,0.7185719609260559,-0.3522792160511017,0.2271764278411865,93.08355712890624,-116.22200012207033,278.55584716796875
1700075427,1.2488250732421875,-0.0565643310546875,-0.302276611328125,0.6992177367210388,-0.3786101639270782,0.2754337191581726,93.90231323242188,-115.17898559570312,278.31561279296875
1700075427,1.3338775634765625,-0.0815277099609375,-0.2113800048828125,0.6991772651672363,-0.4184856712818146,0.3408558666706085,94.4324188232422,-114.9180908203125,278.3847961425781
1700075427,1.391632080078125,-0.106536865234375,-0.0883331298828125,0.5105178356170654,-0.4409329295158386,0.4492169618606567,94.76712036132812,-113.55007934570312,277.7235107421875
1700075427,1.428558349609375,-0.14990234375,-0.001556396484375,0.1007798761129379,-0.4197301566600799,0.677920937538147,95.49481201171876,-113.54217529296876,277.4877624511719
1700075427,1.413177490234375,-0.19757080078125,0.0181427001953125,-0.2011341750621795,-0.4253664910793304,0.8890745043754578,96.0248565673828,-113.14157104492188,276.6649780273437
1700075427,1.388916015625,-0.3213043212890625,0.0538787841796875,-0.2043067961931228,-0.3504530787467956,1.037845015525818,95.8281707763672,-112.90899658203124,276.9350280761719
1700075427,1.4184417724609375,-0.521392822265625,0.1221160888671875,-0.0724291950464248,-0.3074084222316742,1.1608972549438477,96.27272033691406,-112.76580810546876,276.210693359375
1700075427,1.4442138671875,-0.6392669677734375,0.1804351806640625,0.092823676764965,-0.2611809968948364,1.2508385181427002,96.32666015625,-112.2496337890625,276.12158203125
1700075427,1.4581146240234375,-0.705841064453125,0.1990203857421875,0.1931087374687194,-0.2173775881528854,1.2879105806350708,97.20089721679688,-111.6387176513672,275.1077880859375
1700075427,1.42987060546875,-0.7570648193359375,0.1645965576171875,0.0679843798279762,0.0353998020291328,1.450339913368225,96.94155883789062,-111.60050964355467,275.0170288085937
1700075427,1.3303680419921875,-0.677459716796875,-0.1194915771484375,-0.5492290258407593,0.4633447527885437,1.901945233345032,97.71435546875,-111.16876220703124,275.1624755859375
1700075427,1.1787872314453125,-0.3594818115234375,-0.697113037109375,-1.3548879623413086,0.7662388682365417,2.3737692832946777,97.49537658691406,-111.2040557861328,274.6090087890625
1700075427,1.1320343017578125,-0.080474853515625,-1.112518310546875,-1.8898752927780151,0.9367938041687012,2.7328040599823,97.69320678710938,-110.80291748046876,274.7658996582031
1700075427,1.3241119384765625,0.0720367431640625,-1.276702880859375,-2.059632539749145,0.9837660789489746,3.0438928604125977,98.0048828125,-110.515869140625,274.7642822265625
1700075427,1.4373321533203125,0.26629638671875,-1.257537841796875,-1.6977126598358154,1.0921058654785156,3.35184907913208,97.96484375,-110.15452575683594,275.0458068847656
1700075427,1.378265380859375,0.4815673828125,-1.089202880859375,-1.023108959197998,1.2121771574020386,3.631613254547119,98.51748657226562,-110.47322082519533,274.96636962890625
1700075427,1.3633880615234375,0.6836395263671875,-0.914581298828125,-0.5599988698959351,1.1285531520843506,3.9375250339508057,98.49203491210938,-109.98321533203124,275.1075134277344
1700075427,1.471099853515625,0.95623779296875,-0.7156524658203125,-0.5027616620063782,1.1262178421020508,3.981959581375122,98.54183959960938,-110.1799774169922,274.23175048828125
1700075427,1.67938232421875,1.2283935546875,-0.6573333740234375,-0.709669291973114,1.101942539215088,3.409792184829712,98.75091552734376,-109.96739196777344,274.7862548828125
1700075427,1.9763031005859373,1.2862396240234375,-0.4323577880859375,-0.2192303538322448,1.3262156248092651,2.580057144165039,98.72337341308594,-110.13996887207033,274.30841064453125
1700075427,1.993133544921875,0.8683013916015625,-0.224853515625,0.6521764397621155,1.4751728773117063,2.225557327270508,98.7872314453125,-110.017333984375,273.822998046875
1700075427,1.5917510986328125,0.54815673828125,-0.287109375,1.032866597175598,1.441803216934204,2.268432140350342,98.94813537597656,-109.83985900878906,274.15313720703125
1700075427,1.30419921875,0.5303802490234375,-0.543426513671875,1.0102741718292236,1.2524774074554443,2.4008638858795166,99.13874816894533,-109.76022338867188,274.1058654785156
1700075427,1.2027435302734375,0.4484100341796875,-0.664764404296875,0.7407377362251282,1.0986926555633545,2.358139753341675,98.9054718017578,-109.53181457519533,273.69598388671875
1700075427,1.25360107421875,0.2982330322265625,-0.6985931396484375,0.3536906838417053,0.9859451055526732,2.054504632949829,99.23330688476562,-109.53067016601562,273.99444580078125
1700075427,1.346466064453125,0.1497039794921875,-0.6393890380859375,-0.0935272872447967,0.8454322218894958,1.700790524482727,99.16926574707033,-109.31443786621094,274.0486755371094
1700075427,1.3094635009765625,0.0971221923828125,-0.5303955078125,-0.492465615272522,0.7342271208763123,1.3619365692138672,99.2087860107422,-109.1859893798828,274.1609191894531
1700075427,1.1474761962890625,0.0490875244140625,-0.426910400390625,-0.7760509848594666,0.6484919786453247,1.0442832708358765,99.31016540527344,-109.31695556640624,273.3961181640625
1700075427,0.8930511474609375,-0.0595855712890625,-0.2927093505859375,-0.940100908279419,0.5909061431884766,0.8301688432693481,99.50382995605467,-109.16455078125,273.3636169433594
1700075427,0.563995361328125,-0.12451171875,-0.2108612060546875,-0.989263117313385,0.5133189558982849,0.6391152739524841,99.74276733398438,-108.94190979003906,273.178955078125
1700075427,0.2878265380859375,-0.153045654296875,-0.1766204833984375,-1.061132550239563,0.419091522693634,0.2946910262107849,100.0311279296875,-108.5837860107422,272.9861755371094
1700075427,0.206146240234375,-0.2130584716796875,-0.1572265625,-1.077046275138855,0.3132820129394531,-0.1064089983701706,100.00328063964844,-108.47068786621094,273.4169006347656
1700075427,0.2518157958984375,-0.242523193359375,-0.0785369873046875,-0.9801263809204102,0.1730119884014129,-0.4044145941734314,100.05067443847656,-108.34396362304688,272.8236083984375
1700075427,0.2800445556640625,-0.1893157958984375,0.02392578125,-0.8639270663261414,0.0106137618422508,-0.6401128768920898,100.24368286132812,-107.7760772705078,272.4481811523437
1700075427,0.2356414794921875,-0.09796142578125,0.0349578857421875,-0.848857581615448,-0.1462328433990478,-0.9927825331687928,100.4390869140625,-107.75772094726562,272.42059326171875
1700075427,0.16644287109375,-0.0374298095703125,-0.021270751953125,-0.8529090285301208,-0.3011297583580017,-1.46579110622406,100.25837707519533,-107.525390625,271.88397216796875
1700075428,0.1413116455078125,-0.062957763671875,0.0196533203125,-0.8543825745582581,-0.4371728003025055,-1.8801230192184448,100.93226623535156,-107.31597900390624,272.3573913574219
1700075428,0.123931884765625,-0.125579833984375,0.06396484375,-0.7586629390716553,-0.5574142336845398,-2.0798206329345703,100.84580993652344,-107.12890625,272.10028076171875
1700075428,0.0251617431640625,-0.162078857421875,0.0821990966796875,-0.6783510446548462,-0.6862558722496033,-2.231480121612549,101.09820556640624,-106.47113037109376,272.0754699707031
1700075428,-0.04119873046875,-0.1844940185546875,0.0710296630859375,-0.7934097647666931,-0.8002511262893677,-2.494081258773804,100.87614440917967,-106.17425537109376,271.57781982421875
1700075428,-0.0047607421875,-0.1214599609375,0.0304412841796875,-1.091023087501526,-0.900787889957428,-2.760692358016968,100.9991455078125,-106.15863037109376,271.59747314453125
1700075428,-0.00531005859375,-0.0563201904296875,0.0164031982421875,-1.3849265575408936,-1.0779051780700684,-2.918752193450928,101.51603698730467,-105.17092895507812,271.31591796875
1700075428,-0.0062103271484375,0.013031005859375,0.051605224609375,-1.3416224718093872,-1.2003329992294312,-2.852888345718384,101.98977661132812,-105.1261749267578,270.9344177246094
1700075428,0.0176849365234375,0.16650390625,0.1384124755859375,-1.3195518255233765,-1.2936848402023315,-2.8167920112609863,102.21347045898438,-104.68045043945312,270.72662353515625
1700075428,0.06121826171875,0.33868408203125,0.1100311279296875,-1.035132884979248,-1.4164645671844482,-2.878777265548706,102.24668884277344,-104.48533630371094,271.0002746582031
1700075428,0.0507659912109375,0.51495361328125,-0.1082611083984375,-0.693828821182251,-1.4236403703689575,-2.890299320220948,102.54360961914062,-103.74404907226562,271.1014404296875
1700075428,0.0381011962890625,0.6775360107421875,-0.2659149169921875,-0.2425487190485,-1.3901588916778564,-2.8332056999206543,102.56398010253906,-103.67849731445312,270.607666015625
1700075428,0.0792083740234375,0.8970947265625,-0.4132537841796875,0.4904629290103912,-1.3339347839355469,-2.696540117263794,102.59759521484376,-103.15837097167967,270.9120483398437
1700075428,0.1973876953125,1.108642578125,-0.5766143798828125,1.0703204870224,-1.181130051612854,-2.496881484985352,102.63214111328124,-102.6894073486328,270.08367919921875
1700075428,0.280181884765625,1.3123321533203125,-0.7675933837890625,1.2098370790481567,-0.9849711656570436,-2.2439372539520264,102.85740661621094,-102.31048583984376,270.1102294921875
1700075428,0.3192291259765625,1.46649169921875,-0.955902099609375,1.2060025930404663,-0.7973576188087463,-1.964256763458252,103.26968383789062,-101.99095153808594,269.9730224609375
1700075428,0.3562164306640625,1.48126220703125,-1.055877685546875,1.0368822813034058,-0.6446232199668884,-1.440926194190979,103.3184814453125,-101.47752380371094,270.27362060546875
1700075428,0.2981109619140625,1.5747528076171875,-1.1287841796875,0.6655950546264648,-0.5302920937538147,-0.9263043999671936,103.85768127441406,-101.36460876464844,270.31500244140625
1700075428,0.2906646728515625,1.6476593017578125,-1.0744781494140625,0.3136940002441406,-0.3199082314968109,-0.5849939584732056,103.99298095703124,-100.3271942138672,270.18487548828125
1700075428,0.2910003662109375,1.578460693359375,-0.99127197265625,0.1801031976938247,-0.1037967056035995,-0.412438690662384,104.20314025878906,-99.91714477539062,269.929443359375
1700075428,0.2598114013671875,1.4046783447265625,-0.901702880859375,-0.3484578430652618,0.3704390525817871,-0.3799681067466736,104.1029815673828,-99.36888122558594,270.0605773925781
1700075428,0.2055511474609375,1.172210693359375,-1.1480712890625,-0.2956369817256927,0.5826660990715027,-0.3301323652267456,104.34683227539062,-98.50138854980467,269.8056640625
1700075428,0.1531524658203125,0.867156982421875,-1.449127197265625,0.0495036356151104,-0.0742939412593841,-0.043737094849348,104.47380065917967,-98.33985900878906,270.2722473144531
1700075428,0.7933197021484375,0.7368927001953125,-0.44384765625,-0.1263645887374878,-0.4529008865356445,-0.5931570529937744,105.10281372070312,-97.57611083984376,270.243408203125
1700075428,1.863555908203125,0.1295623779296875,0.038055419921875,0.0385021194815635,-0.3407224416732788,-0.6648717522621155,104.99371337890624,-97.06089782714844,270.379150390625
1700075428,1.8250274658203125,-0.0343170166015625,0.1817626953125,0.2819315493106842,-0.1403669714927673,-0.095283642411232,105.2727508544922,-96.4035186767578,270.2099914550781
1700075428,1.0997161865234375,0.162353515625,0.0089569091796875,0.3826025128364563,-0.0676911622285842,0.4783679246902466,105.35414123535156,-95.77516174316406,270.2236022949219
1700075428,0.79400634765625,0.4302520751953125,-0.3824920654296875,-0.0481424964964389,-0.3483838140964508,0.6814224720001221,105.37367248535156,-95.30294799804688,270.0793762207031
1700075428,1.0757904052734375,0.873626708984375,-0.380340576171875,-0.9766789078712464,-0.4199232459068298,0.2445269227027893,105.7559051513672,-94.48794555664062,270.5160522460937
1700075428,1.70562744140625,0.717864990234375,0.0584716796875,-1.0055060386657717,-0.0206086058169603,0.0024413196370005,105.93586730957033,-93.21112060546876,270.6472473144531
1700075428,1.28564453125,0.4983978271484375,-0.181549072265625,-0.6051016449928284,0.0159752387553453,-0.1181362271308898,105.80094909667967,-92.52200317382812,270.65185546875
1700075428,0.92919921875,0.1926422119140625,-0.471649169921875,-0.2050285190343856,-0.0510096549987793,-0.0527343191206455,106.263916015625,-92.17091369628906,271.1883239746094
1700075428,0.9049072265625,0.0130767822265625,-0.45831298828125,-0.0404140017926692,-0.0099540967494249,0.1490989327430725,106.44236755371094,-91.13082885742188,270.982421875
1700075428,0.77813720703125,0.026092529296875,-0.378448486328125,-0.1651617884635925,0.0685537606477737,0.146408349275589,106.24276733398438,-89.89314270019531,271.50689697265625
1700075428,0.7902069091796875,0.1126556396484375,-0.2852020263671875,-0.2597221136093139,0.1228241920471191,0.0701007917523384,106.0495147705078,-89.02471923828125,271.07244873046875
1700075428,0.8683624267578125,0.3027801513671875,-0.2906036376953125,-0.1996028572320938,0.0961193442344665,-0.0429868809878826,105.91473388671876,-88.10813903808594,271.65557861328125
1700075428,1.0235137939453125,0.3977203369140625,-0.3094024658203125,-0.161818191409111,0.0659518539905548,-0.1412354260683059,106.09182739257812,-87.23115539550781,272.0332336425781
1700075428,1.1775665283203125,0.348419189453125,-0.315887451171875,-0.1304360330104828,0.0692392587661743,-0.1993892639875412,106.243408203125,-86.21138000488281,272.0853881835937
1700075428,1.1252288818359375,0.212982177734375,-0.4328460693359375,-0.0622173026204109,-0.0142308678478002,-0.1848590672016143,105.85743713378906,-85.25462341308594,271.38006591796875
1700075428,1.0107421875,0.1109771728515625,-0.47076416015625,-0.0207383017987012,-0.082680232822895,-0.1246346086263656,105.92514038085938,-84.13606262207031,271.9134521484375
1700075428,0.9673004150390624,0.080963134765625,-0.4548492431640625,-0.0288899708539247,-0.1193274557590484,-0.1039703413844108,105.73435974121094,-82.35467529296875,271.4977722167969
1700075428,0.94268798828125,0.1297149658203125,-0.4095458984375,-0.0413578264415264,-0.1473359167575836,-0.1205684915184974,105.58926391601562,-80.28045654296875,271.5371398925781
1700075428,0.9391632080078124,0.219329833984375,-0.3742218017578125,-0.0638500824570655,-0.1909289360046386,-0.1742208003997802,105.58860778808594,-78.353515625,271.57098388671875
1700075428,0.990386962890625,0.258209228515625,-0.3721466064453125,-0.0675737187266349,-0.222059965133667,-0.2301312088966369,105.50889587402344,-76.3370361328125,270.6146850585937
1700075428,1.00225830078125,0.236358642578125,-0.3870391845703125,-0.0225599035620689,-0.2566275298595428,-0.250110775232315,105.67237854003906,-74.08840942382812,270.34283447265625
1700075428,0.9690704345703124,0.196624755859375,-0.381805419921875,0.0039617181755602,-0.2809464633464813,-0.2469554543495178,105.09220886230467,-71.78517150878906,270.2064208984375
1700075428,0.9662322998046876,0.1724853515625,-0.37127685546875,-0.0097154779359698,-0.3026224374771118,-0.2415694743394851,105.03892517089844,-70.00837707519531,269.64605712890625
1700075428,1.0010528564453125,0.163543701171875,-0.363525390625,0.0043183155357837,-0.315113753080368,-0.2528274655342102,104.73873901367188,-67.85026550292969,268.8680725097656
1700075428,1.0319061279296875,0.1495208740234375,-0.3604736328125,0.0552432797849178,-0.3243993818759918,-0.2564288675785064,104.146728515625,-66.18569946289062,268.3507080078125
1700075428,1.01544189453125,0.142059326171875,-0.3684234619140625,0.1204126998782157,-0.3436777293682098,-0.2569745481014251,104.08976745605467,-64.56561279296875,267.86572265625
1700075428,0.9977264404296876,0.1556854248046875,-0.351409912109375,0.1675333380699157,-0.3590830564498901,-0.2750640511512756,104.05380249023438,-62.53770446777344,267.3243408203125
1700075428,0.9998016357421876,0.170989990234375,-0.3212738037109375,0.18762768805027,-0.358455091714859,-0.3041902482509613,103.25616455078124,-61.33653259277344,267.22833251953125
1700075428,0.9832305908203124,0.189453125,-0.3140869140625,0.1549288630485534,-0.3672150373458862,-0.3328429460525512,103.14991760253906,-59.466827392578125,266.1118469238281
1700075428,0.961395263671875,0.204071044921875,-0.3363800048828125,0.0943563282489776,-0.3876902163028717,-0.3664906322956085,102.73854064941406,-58.032745361328125,265.31854248046875
1700075428,0.960540771484375,0.195068359375,-0.3514862060546875,0.0499907284975051,-0.3967268466949463,-0.3899272680282593,102.7107391357422,-56.48565673828125,265.19854736328125
1700075428,0.9517364501953124,0.182586669921875,-0.3493194580078125,0.0172626096755266,-0.3919574022293091,-0.4048297703266144,101.8749542236328,-55.504669189453125,264.0350952148437
1700075428,0.9515228271484376,0.17236328125,-0.3055419921875,0.0241695176810026,-0.3735520243644714,-0.4068892002105713,101.17550659179688,-54.3157958984375,264.19647216796875
1700075428,0.992889404296875,0.1558074951171875,-0.2746124267578125,0.0762609466910362,-0.3554028272628784,-0.3963790237903595,101.07408142089844,-53.29472351074219,263.1739501953125
1700075428,1.04345703125,0.1313018798828125,-0.2722625732421875,0.1371815502643585,-0.3410265743732452,-0.3636375963687897,101.02961730957033,-52.69779968261719,262.4300537109375
1700075428,1.0759735107421875,0.104095458984375,-0.2776336669921875,0.182139977812767,-0.3225554227828979,-0.3055271506309509,100.64649963378906,-51.98381042480469,262.1976928710937
1700075428,1.0904388427734375,0.0782470703125,-0.272857666015625,0.1713696271181106,-0.2901913523674011,-0.238886073231697,100.70916748046876,-51.57087707519531,261.9140625
1700075428,1.0596160888671875,0.0565338134765625,-0.284515380859375,0.2161919474601745,-0.2698719501495361,-0.1767729073762893,100.72999572753906,-51.65087890625,261.6544189453125
1700075428,1.0115814208984375,0.0305633544921875,-0.2918701171875,0.3038727939128876,-0.2426597774028778,-0.1557714939117431,100.53109741210938,-51.390625,260.9898986816406
1700075428,0.981201171875,0.0246429443359375,-0.324981689453125,0.3806551992893219,-0.2503099739551544,-0.1493250429630279,100.9543914794922,-51.18548583984375,260.5239562988281
1700075428,0.9629669189453124,0.058441162109375,-0.3001861572265625,0.449238508939743,-0.2493320703506469,-0.1252178400754928,100.93702697753906,-51.38798522949219,259.4827880859375
1700075428,0.9362335205078124,0.1223907470703125,-0.2522430419921875,0.4444059431552887,-0.2804851830005646,-0.1121683493256568,101.00592041015624,-51.9937744140625,259.1516418457031
1700075428,0.9281463623046876,0.1594085693359375,-0.2378082275390625,0.37142413854599,-0.268119066953659,-0.1086324676871299,101.68879699707033,-51.810577392578125,259.18780517578125
1700075428,0.945587158203125,0.1445465087890625,-0.29595947265625,0.3574950098991394,-0.2782329618930816,-0.1123467832803726,101.50447082519533,-52.61148071289063,258.59185791015625
1700075428,0.9567413330078124,0.0942535400390625,-0.292572021484375,0.3579312562942505,-0.3167909979820251,-0.0680690631270408,101.93789672851562,-52.655120849609375,258.60272216796875
1700075428,0.9652099609375,0.083709716796875,-0.2841949462890625,0.3427467048168182,-0.3187502920627594,-0.0576044395565986,102.39358520507812,-53.40325927734375,258.794189453125
1700075428,0.97216796875,0.0531463623046875,-0.2820281982421875,0.3201396465301513,-0.3256726264953613,-0.0186951234936714,102.77842712402344,-54.192138671875,259.2508544921875
1700075428,0.95220947265625,0.0415191650390625,-0.265716552734375,0.2581324875354767,-0.351579338312149,0.0235913451761007,103.3577117919922,-54.6334228515625,259.38677978515625
1700075428,0.97930908203125,0.0745391845703125,-0.2299346923828125,0.2509989440441131,-0.3615771234035492,0.0617741532623767,104.10389709472656,-55.39860534667969,259.79510498046875
1700075428,1.0502471923828125,0.0879669189453125,-0.2106475830078125,0.2923908531665802,-0.3784069716930389,0.0863631144165992,104.80018615722656,-56.76292419433594,259.6794128417969
1700075428,1.112823486328125,0.118133544921875,-0.2205047607421875,0.3976922333240509,-0.374637246131897,0.0902044624090194,105.35231018066406,-57.690948486328125,260.5975036621094
1700075428,1.14654541015625,0.13641357421875,-0.1694488525390625,0.4570658206939697,-0.352101057767868,0.1073972955346107,105.7263641357422,-58.863128662109375,261.1677551269531
1700075428,1.1580810546875,0.13055419921875,-0.1108245849609375,0.4030808806419372,-0.3875759541988373,0.1598186939954757,106.37001037597656,-60.01640319824219,261.2919311523437
1700075428,1.1631927490234375,0.0900421142578125,-0.07806396484375,0.3741304576396942,-0.3830853402614593,0.2426746934652328,107.07194519042967,-61.09098815917969,261.7989501953125
1700075428,1.17193603515625,0.03985595703125,-0.109405517578125,0.399020105600357,-0.3607248961925506,0.3052107691764831,107.23561096191406,-61.716705322265625,262.623046875
1700075428,1.214752197265625,-0.0444793701171875,-0.0921478271484375,0.3048315346240997,-0.3228976130485534,0.4195892810821533,107.53273010253906,-62.852783203125,263.24761962890625
1700075428,1.2766876220703125,-0.0941162109375,-0.078094482421875,0.2073047161102295,-0.3789856731891632,0.5197585225105286,107.78288269042967,-63.46098327636719,263.76971435546875
1700075428,1.3284759521484375,-0.1108245849609375,-0.0916900634765625,0.2155637145042419,-0.3904199600219726,0.5830751657485962,108.26687622070312,-64.22091674804688,263.8583068847656
1700075428,1.4146575927734375,-0.21466064453125,-0.0536956787109375,0.1854161918163299,-0.4077086448669433,0.7159975171089172,108.1343994140625,-64.88096618652344,264.8525085449219
1700075428,1.437042236328125,-0.227081298828125,-0.02069091796875,0.1466528177261352,-0.4196377396583557,0.8934295773506165,108.73136901855467,-65.70005798339844,264.94219970703125
1700075428,1.4361572265625,-0.1733245849609375,0.029571533203125,0.335440844297409,-0.4329069554805755,0.9343932271003724,108.7738800048828,-66.15341186523438,264.9051513671875
1700075428,1.4685516357421875,-0.2467803955078125,0.16156005859375,0.4566034972667694,-0.4405222535133362,0.9624962210655212,109.071533203125,-66.44091796875,265.4580078125
1700075428,1.53619384765625,-0.3035736083984375,0.195526123046875,0.382254958152771,-0.4619830846786499,1.0244147777557373,109.17507934570312,-67.10389709472656,265.4560241699219
1700075428,1.534454345703125,-0.3709564208984375,0.1429290771484375,0.2394575923681259,-0.4215000867843628,1.0987560749053955,109.13565063476562,-67.41387939453125,265.2722473144531
1700075428,1.431243896484375,-0.520263671875,0.0514373779296875,-0.0189947299659252,-0.1421286463737487,1.17013680934906,109.29109191894533,-67.43312072753906,264.6067199707031
1700075428,1.272430419921875,-0.6069793701171875,-0.221160888671875,-0.5546405911445618,0.2184830754995346,1.45264995098114,109.33465576171876,-67.64579772949219,264.56707763671875
1700075428,1.1084136962890625,-0.4489593505859375,-0.6501617431640625,-1.5289090871810913,0.5443304181098938,2.0663182735443115,109.20521545410156,-67.31596374511719,264.259521484375
1700075428,0.942626953125,-0.1512298583984375,-1.150146484375,-2.398721694946289,0.8288284540176392,2.7113752365112305,109.06863403320312,-67.00070190429688,264.12139892578125
1700075428,0.9787445068359376,0.0016937255859375,-1.43145751953125,-2.490286111831665,0.9966371655464172,3.0635688304901123,108.92877197265624,-66.74029541015625,264.685791015625
1700075428,1.2289581298828125,0.019439697265625,-1.400543212890625,-1.9563267230987549,1.027225375175476,3.358781576156616,108.97917175292967,-66.51576232910156,264.07830810546875
1700075428,1.3789520263671875,0.2225189208984375,-1.1204681396484375,-1.166636347770691,0.8588857054710388,3.7429935932159424,109.16000366210938,-66.3798828125,264.0364685058594
1700075428,1.4244384765625,0.5597381591796875,-0.6229400634765625,-0.6109285950660706,0.7487810254096985,4.08055591583252,108.69223022460938,-65.54814147949219,264.0385437011719
1700075428,1.4995574951171875,0.9127655029296876,-0.261749267578125,-0.3077293336391449,1.1170637607574463,4.194551467895508,108.77735900878906,-65.04379272460938,264.2970886230469
1700075428,1.702606201171875,1.2320098876953125,-0.3265380859375,-0.1656544804573059,1.3380028009414673,3.9106249809265137,108.75953674316406,-64.45747375488281,263.81402587890625
1700075428,1.9591217041015625,1.351287841796875,-0.4299468994140625,-0.0086515452712774,1.4285284280776978,3.3570401668548584,108.66848754882812,-64.23858642578125,263.857666015625
1700075428,2.03546142578125,1.1153106689453125,-0.5372314453125,0.3888707756996155,1.463312745094299,3.034709215164185,108.6203155517578,-64.25923156738281,264.413330078125
1700075429,1.81689453125,0.7414093017578125,-0.609832763671875,0.5572770833969116,1.4658606052398682,2.9614083766937256,108.57179260253906,-63.94346618652344,263.93377685546875
1700075429,1.615875244140625,0.5941162109375,-0.6872100830078125,0.4274820983409881,1.3478604555130005,2.9381511211395264,108.6509246826172,-63.44755554199219,264.2611694335937
1700075429,1.5174560546875,0.4589691162109375,-0.673828125,0.099110871553421,1.2156219482421875,2.761112689971924,108.42745971679688,-64.15419006347656,264.0694885253906
1700075429,1.4945831298828125,0.2661590576171875,-0.6025390625,-0.2368559539318084,1.131436824798584,2.4616708755493164,108.45326232910156,-63.594024658203125,264.6991577148437
1700075429,1.45709228515625,0.12371826171875,-0.4800872802734375,-0.496161550283432,1.0772100687026978,2.184119701385498,108.60899353027344,-63.55369567871094,264.0433349609375
1700075429,1.3142852783203125,0.0936126708984375,-0.37005615234375,-0.7006031274795532,0.979918658733368,1.9597363471984863,108.39208984375,-63.336669921875,264.37530517578125
1700075429,1.08807373046875,0.090576171875,-0.31463623046875,-0.8843918442726135,0.8848874568939209,1.6279847621917725,108.4797821044922,-63.35124206542969,264.5365600585937
1700075429,0.9075775146484376,-0.0054779052734375,-0.292572021484375,-1.075103521347046,0.7989009022712708,1.2723073959350586,108.69139099121094,-63.0357666015625,263.9916381835937
1700075429,0.7236785888671875,-0.09619140625,-0.27655029296875,-1.2248194217681885,0.7222066521644592,0.9863893389701844,108.4652862548828,-62.86192321777344,264.0892333984375
1700075429,0.498809814453125,-0.126007080078125,-0.274993896484375,-1.3175143003463743,0.6228734254837036,0.6448578238487244,108.43405151367188,-62.68992614746094,264.38037109375
1700075429,0.345703125,-0.1932373046875,-0.252105712890625,-1.3590891361236572,0.5209079384803772,0.2237372249364853,108.45281982421876,-62.668853759765625,264.2622375488281
1700075429,0.3046112060546875,-0.2892608642578125,-0.1976165771484375,-1.341181993484497,0.440233051776886,-0.149170845746994,108.604736328125,-63.057159423828125,263.61297607421875
1700075429,0.2577667236328125,-0.3183135986328125,-0.14654541015625,-1.277519702911377,0.2908267676830292,-0.4285460114479065,108.51577758789062,-62.95866394042969,264.1681823730469
1700075429,0.181671142578125,-0.2571563720703125,-0.1320343017578125,-1.12936270236969,0.1083171516656875,-0.7596195340156555,108.4276885986328,-62.88859558105469,264.6776733398437
1700075429,0.175262451171875,-0.1860198974609375,-0.0859222412109375,-1.02338707447052,-0.027327761054039,-1.1143598556518557,108.42210388183594,-62.95857238769531,264.6312255859375
1700075429,0.172393798828125,-0.07159423828125,-0.04632568359375,-0.9393882751464844,-0.1344315707683563,-1.5118848085403442,108.203857421875,-63.02122497558594,264.20428466796875
1700075429,0.1613311767578125,-0.0595550537109375,-0.028717041015625,-0.851257860660553,-0.2340979874134063,-1.8634068965911863,108.48846435546876,-62.91285705566406,264.5767822265625
1700075429,0.13580322265625,-0.11907958984375,-0.0176239013671875,-0.7905194163322449,-0.3326674401760101,-2.068556070327759,108.67901611328124,-63.10052490234375,263.79669189453125
1700075429,0.0441741943359375,-0.11907958984375,-0.0387420654296875,-0.8631742000579834,-0.4445939660072326,-2.3000409603118896,108.69003295898438,-63.09117126464844,264.5844116210937
1700075429,0.024688720703125,-0.11572265625,-0.07598876953125,-0.9459830522537231,-0.5146987438201904,-2.557092666625977,108.78166198730467,-63.03839111328125,264.5114440917969
1700075429,0.0410919189453125,-0.0914764404296875,-0.09930419921875,-1.1068248748779297,-0.6151925921440125,-2.7647018432617188,108.5524444580078,-63.45767211914063,264.67022705078125
1700075429,0.0294189453125,-0.035980224609375,-0.0887298583984375,-1.2729710340499878,-0.7457186579704285,-2.9544591903686523,108.56900024414062,-63.77302551269531,265.548828125
1700075429,0.051300048828125,0.0210418701171875,-0.0807342529296875,-1.322341799736023,-0.8539809584617615,-3.0231728553771973,108.6435546875,-63.651397705078125,265.2156982421875
1700075429,0.0676116943359375,0.0942840576171875,-0.0500030517578125,-1.2729297876358032,-0.8870113492012024,-3.051095724105835,108.65901184082033,-63.72036743164063,265.1270751953125
1700075429,0.102752685546875,0.1755523681640625,-0.01611328125,-1.1210800409317017,-1.0023120641708374,-3.077354669570923,108.61734008789062,-64.05555725097656,265.24591064453125
1700075429,0.159332275390625,0.3685760498046875,-0.033843994140625,-0.6587611436843872,-1.143458604812622,-3.1328284740448,108.70684814453124,-63.94499206542969,265.5334777832031
1700075429,0.2066192626953125,0.5684814453125,-0.09539794921875,-0.090938962996006,-1.2273404598236084,-3.108436822891236,108.86534118652344,-64.19651794433594,265.63922119140625
1700075429,0.26007080078125,0.7811737060546875,-0.1574249267578125,0.3538249135017395,-1.150882124900818,-3.006427526473999,108.790771484375,-64.52285766601562,265.6566162109375
1700075429,0.2914276123046875,0.9464569091796876,-0.2604827880859375,0.6610761880874634,-1.039455771446228,-2.833245754241944,108.94007873535156,-64.92051696777344,265.7235107421875
1700075429,0.29278564453125,1.0708160400390625,-0.4321746826171875,0.829203188419342,-0.9759971499443054,-2.6199047565460205,108.81820678710938,-64.99795532226562,266.4337463378906
1700075429,0.313629150390625,1.1439971923828125,-0.6279296875,0.8231460452079773,-0.8964013457298279,-2.2710678577423096,108.88406372070312,-64.767822265625,266.31939697265625
1700075429,0.355804443359375,1.2043914794921875,-0.741485595703125,0.8631557822227478,-0.7834221124649048,-1.853221654891968,109.020751953125,-64.87600708007812,266.50958251953125
1700075429,0.3798980712890625,1.2740020751953125,-0.80987548828125,0.9416391849517822,-0.6394792795181274,-1.42770254611969,109.0785675048828,-65.11978149414062,266.39599609375
1700075429,0.4167938232421875,1.3445892333984375,-0.84991455078125,0.9420397281646729,-0.467016190290451,-0.9728274345397948,109.2821807861328,-65.13644409179688,266.23614501953125
1700075429,0.4198455810546875,1.5145721435546875,-0.91558837890625,0.8768726587295532,-0.274698406457901,-0.6288213133811951,109.26707458496094,-65.244873046875,266.48687744140625
1700075429,0.4212493896484375,1.66558837890625,-1.0352935791015625,0.7061070799827576,-0.1524366736412048,-0.4579236209392547,108.94137573242188,-65.59906005859375,266.8460693359375
1700075429,0.4369354248046875,1.7512969970703125,-1.0716705322265625,0.4822521209716797,-0.0735149607062339,-0.4027242958545685,109.33503723144533,-65.46440124511719,267.2440185546875
1700075429,0.4910736083984375,1.5737457275390625,-0.871185302734375,0.3767579197883606,0.2014897018671035,-0.3544928431510925,108.85289001464844,-65.56163024902344,266.82794189453125
1700075429,0.5130157470703125,1.071533203125,-0.716949462890625,0.0719817802309989,0.4662966132164001,-0.5199207067489624,109.05921936035156,-65.78408813476562,266.7669982910156
1700075429,0.450653076171875,0.591217041015625,-0.99005126953125,0.2404211312532425,-0.3763976097106933,-0.2175395190715789,108.82191467285156,-65.65357971191406,267.0058288574219
1700075429,0.6633453369140625,0.467987060546875,-0.0409393310546875,-0.3992699086666107,-0.4341314733028412,-0.0730928555130958,109.16682434082033,-65.81756591796875,267.2852783203125
1700075429,1.0853729248046875,0.3933563232421875,0.341400146484375,-0.4565896391868591,-0.1913643628358841,-0.2108246237039566,108.96760559082033,-65.88429260253906,267.0910949707031
1700075429,1.275787353515625,0.1353912353515625,0.1253509521484375,-0.2345624417066574,-0.2044569998979568,-0.0199172496795654,109.29660034179688,-66.08586120605469,267.3666381835937
1700075429,1.25518798828125,0.3655548095703125,-0.1724090576171875,-0.1427765935659408,-0.186214879155159,0.1678848713636398,109.20651245117188,-66.11491394042969,267.4040222167969
1700075429,1.433319091796875,0.4614715576171875,-0.390625,-0.1291135102510452,-0.1937915682792663,0.3000541031360626,109.25186157226562,-66.16339111328125,267.7117919921875
1700075429,1.8569793701171875,0.4874114990234375,-0.33111572265625,-0.3869746029376983,-0.2276403456926345,0.2159570604562759,109.21598815917967,-66.03945922851562,267.56707763671875
1700075429,1.9716033935546875,0.3022613525390625,-0.1147003173828125,-0.3355191349983215,-0.0087807085365057,0.2835137248039245,109.09417724609376,-66.01507568359375,267.6843566894531
1700075429,1.1534423828125,0.290985107421875,-0.35235595703125,-0.0612465776503086,-0.0472511351108551,0.2189869433641433,109.29850769042967,-65.60731506347656,268.42437744140625
1700075429,0.737762451171875,0.2789459228515625,-0.4187469482421875,-0.1543171405792236,-0.0987356305122375,0.1096860170364379,109.2858428955078,-65.45462036132812,268.0169677734375
1700075429,0.7322998046875,0.388153076171875,-0.3734893798828125,-0.2188961207866668,-0.0026549051981419,-0.0814075097441673,109.3625946044922,-65.81498718261719,268.1725769042969
1700075429,0.782379150390625,0.4601593017578125,-0.3401336669921875,-0.1759428083896637,0.0686051622033119,-0.2478633373975753,109.0698699951172,-65.49583435058594,268.78961181640625
1700075429,0.859954833984375,0.4124755859375,-0.2849273681640625,-0.0880688726902008,0.0895261541008949,-0.3326732814311981,109.51383972167967,-65.23234558105469,269.6004638671875
1700075429,0.939056396484375,0.322021484375,-0.3268890380859375,-0.020503943786025,0.0849364623427391,-0.3447368741035461,109.4215850830078,-65.13163757324219,269.4698791503906
1700075429,0.999969482421875,0.202392578125,-0.3946685791015625,0.0515263080596923,0.0583376102149486,-0.3160724639892578,109.5389404296875,-65.4443359375,269.40191650390625
1700075429,1.0183563232421875,0.092926025390625,-0.4496002197265625,0.0589621216058731,-0.0299592297524213,-0.2297543734312057,109.23907470703124,-65.09967041015625,269.84893798828125
1700075429,1.0386810302734375,0.06634521484375,-0.4811553955078125,0.0163645930588245,-0.1210944652557373,-0.1569712460041046,109.45416259765624,-64.24604797363281,270.59210205078125
1700075429,1.05731201171875,0.1022796630859375,-0.473785400390625,-0.0224842708557844,-0.1640035808086395,-0.1348901689052581,109.6016845703125,-63.75885009765625,270.396728515625
1700075429,1.0186614990234375,0.1713409423828125,-0.4375762939453125,-0.0478671230375766,-0.184040680527687,-0.1660475581884384,109.17352294921876,-63.44145202636719,270.9231262207031
1700075429,0.961090087890625,0.2235260009765625,-0.3943328857421875,-0.0166069399565458,-0.2103843986988067,-0.2245726585388183,109.2415771484375,-62.98051452636719,271.111083984375
1700075429,0.9504547119140624,0.2331085205078125,-0.3934173583984375,0.059309396892786,-0.2615351974964142,-0.2752283811569214,109.69813537597656,-62.235595703125,270.5319519042969
1700075429,0.9532012939453124,0.2312774658203125,-0.40997314453125,0.1079323291778564,-0.3190360367298126,-0.3174999356269836,109.45095825195312,-61.3858642578125,270.6412048339844
1700075429,0.960662841796875,0.2075347900390625,-0.408660888671875,0.1480760127305984,-0.34687140583992,-0.3381434381008148,109.94734191894533,-60.694183349609375,270.62615966796875
1700075429,0.94537353515625,0.17767333984375,-0.3956756591796875,0.1278335899114608,-0.3679524660110473,-0.3453368842601776,110.11346435546876,-58.94287109375,270.780517578125
1700075429,0.9439544677734376,0.1573028564453125,-0.376922607421875,0.104437455534935,-0.3854592740535736,-0.3388142883777618,109.5482177734375,-57.64054870605469,270.244140625
1700075429,0.965087890625,0.1516571044921875,-0.3916473388671875,0.0777411311864852,-0.4282517433166504,-0.3377415537834167,109.6394500732422,-55.84996032714844,269.2906494140625
1700075429,0.982513427734375,0.1656494140625,-0.39923095703125,0.0604806542396545,-0.4588442742824554,-0.3594260811805725,109.23019409179688,-54.16786193847656,268.688720703125
1700075429,0.991729736328125,0.194549560546875,-0.3925323486328125,0.0724627450108528,-0.4664747714996338,-0.4027368128299713,109.06446838378906,-52.43995666503906,267.87359619140625
1700075429,0.985626220703125,0.22314453125,-0.367431640625,0.0895149707794189,-0.465670496225357,-0.4581121802330017,108.47833251953124,-50.88853454589844,267.1435241699219
1700075429,0.9754180908203124,0.2474365234375,-0.3218994140625,0.1104522049427032,-0.4505109786987304,-0.5221508145332336,107.74714660644533,-48.85714721679688,266.97998046875
1700075429,0.988525390625,0.232421875,-0.283203125,0.1832281500101089,-0.4307977259159088,-0.5482189059257507,107.16798400878906,-47.20454406738281,266.7601318359375
1700075429,0.9949188232421876,0.18182373046875,-0.296478271484375,0.2520759105682373,-0.4210478961467743,-0.5107378363609314,106.60511779785156,-45.14414978027344,265.92791748046875
1700075429,0.992645263671875,0.127655029296875,-0.344390869140625,0.2371973693370819,-0.4481213390827179,-0.4492473006248474,105.45558166503906,-44.14669799804688,265.15069580078125
1700075429,0.991851806640625,0.0837249755859375,-0.37274169921875,0.1788797378540039,-0.4568908512592315,-0.4220814704895019,105.29446411132812,-43.09223937988281,265.30523681640625
1700075429,0.9903106689453124,0.04345703125,-0.3499908447265625,0.1927585303783416,-0.4085361063480377,-0.3993913233280182,104.71612548828124,-41.99932861328125,265.2785339355469
1700075429,0.9567718505859376,0.0391082763671875,-0.2993621826171875,0.2719002366065979,-0.3740697205066681,-0.3736260533332824,104.08837890625,-40.38580322265625,265.5214233398437
1700075429,0.92315673828125,0.0809478759765625,-0.2811126708984375,0.3084560930728912,-0.3657236397266388,-0.3667790591716766,103.67738342285156,-39.58056640625,265.33172607421875
1700075429,0.9163665771484376,0.1234588623046875,-0.2773895263671875,0.328756034374237,-0.3497446775436401,-0.3770093321800232,103.14036560058594,-38.60121154785156,265.7043762207031
1700075429,0.9361419677734376,0.1502838134765625,-0.2643585205078125,0.3691149353981018,-0.3175728917121887,-0.377465009689331,102.61007690429688,-38.52293395996094,264.9325866699219
1700075429,0.9560089111328124,0.1553497314453125,-0.2759246826171875,0.4085579216480255,-0.3076832592487335,-0.3644623756408691,102.52873229980467,-37.55543518066406,264.8799743652344
1700075429,0.9622039794921876,0.1312255859375,-0.280792236328125,0.471834123134613,-0.2960407137870788,-0.3132098317146301,102.07786560058594,-36.88996887207031,265.023681640625
1700075429,0.9820404052734376,0.091644287109375,-0.2618408203125,0.4943223893642425,-0.2865968644618988,-0.224522054195404,101.73403930664062,-36.564239501953125,264.135498046875
1700075429,0.9764404296875,0.053924560546875,-0.2612152099609375,0.4540418088436126,-0.2738707065582275,-0.1343865692615509,101.59722900390624,-36.9111328125,263.9208374023437
1700075429,0.956085205078125,-0.0040283203125,-0.27825927734375,0.4164265096187591,-0.265135258436203,-0.085083469748497,101.71026611328124,-36.300872802734375,263.99658203125
1700075429,0.9451751708984376,-0.0534210205078125,-0.2964324951171875,0.3915866911411285,-0.2646934390068054,-0.0593866258859634,101.74911499023438,-36.42340087890625,263.6578369140625
1700075429,0.9369049072265624,-0.0753021240234375,-0.28997802734375,0.2996319830417633,-0.2562136650085449,0.0025995115283876,101.92660522460938,-36.2584228515625,263.45281982421875
1700075429,0.931640625,-0.06561279296875,-0.275115966796875,0.2667403519153595,-0.2297333329916,0.0944340899586677,101.77735900878906,-36.76655578613281,263.0714111328125
1700075429,0.9091339111328124,-0.022796630859375,-0.261810302734375,0.276077389717102,-0.2358567416667938,0.1623937040567398,101.9502410888672,-37.31954956054688,263.47265625
1700075429,0.9117584228515624,0.0543975830078125,-0.2033843994140625,0.2230836749076843,-0.2311179041862487,0.2079641222953796,102.99171447753906,-37.74754333496094,263.41357421875
1700075429,0.9215087890625,0.1436004638671875,-0.2193756103515625,0.1620858460664749,-0.2315109819173813,0.1911726146936416,103.55262756347656,-38.46086120605469,263.64019775390625
1700075429,0.9516448974609376,0.1500091552734375,-0.2616119384765625,0.1445451974868774,-0.2617040574550628,0.1760770231485366,104.23867797851562,-38.981964111328125,263.7867431640625
1700075429,1.0099029541015625,0.1059417724609375,-0.26239013671875,0.1958344876766204,-0.3014724850654602,0.179519698023796,104.84371948242188,-40.01348876953125,263.9164123535156
1700075429,1.071533203125,0.072601318359375,-0.2827911376953125,0.3542273342609405,-0.3613510131835937,0.1829823404550552,106.0636749267578,-41.40251159667969,263.8392333984375
1700075429,1.1461639404296875,0.0606842041015625,-0.2810211181640625,0.4564578235149383,-0.4289665520191192,0.2001594603061676,106.84359741210938,-42.49879455566406,264.32635498046875
1700075429,1.2357940673828125,0.1219024658203125,-0.2141876220703125,0.4655479788780212,-0.4456400573253631,0.2122978866100311,107.7246551513672,-43.56843566894531,264.39508056640625
1700075429,1.2983245849609375,0.164154052734375,-0.090484619140625,0.4833208620548248,-0.4054686725139618,0.1909603625535965,108.33454895019533,-44.80364990234375,264.68731689453125
1700075429,1.2883453369140625,0.130523681640625,-0.0484771728515625,0.4364649355411529,-0.4076772332191467,0.2344748228788375,109.29067993164062,-45.493927001953125,265.42730712890625
1700075429,1.2593536376953125,0.081298828125,-0.0833587646484375,0.3673918545246124,-0.4282355010509491,0.3059971928596496,110.14097595214844,-47.00169372558594,266.2574462890625
1700075429,1.2771453857421875,0.0147247314453125,-0.1020050048828125,0.3514435291290283,-0.4217610955238342,0.3631342649459839,110.91082763671876,-48.0179443359375,266.293701171875
1700075429,1.2985382080078125,-0.1055145263671875,-0.068939208984375,0.2443293184041977,-0.3911041021347046,0.4901159107685089,111.36822509765624,-49.69871520996094,267.1022033691406
1700075429,1.320556640625,-0.1457977294921875,-0.11517333984375,0.2152835428714752,-0.4773476421833038,0.5547364354133606,111.74404907226562,-51.03826904296875,268.2725830078125
1700075430,1.3534088134765625,-0.2042388916015625,-0.0692138671875,0.228934645652771,-0.5053601264953613,0.6318277716636658,112.14027404785156,-51.96495056152344,268.6156005859375
1700075430,1.4327392578125,-0.2990264892578125,-0.022186279296875,-0.0235753674060106,-0.5208770036697388,0.8181291818618774,112.79583740234376,-53.21417236328125,269.39813232421875
1700075430,1.499603271484375,-0.2538604736328125,-0.04302978515625,-0.1205442547798156,-0.5340220928192139,0.854693591594696,112.78646850585938,-54.150238037109375,269.9835205078125
1700075430,1.5532073974609375,-0.34759521484375,-0.0038909912109375,-0.0537780113518238,-0.5144777297973633,0.8724092245101929,112.98757934570312,-54.78265380859375,270.6171875
1700075430,1.563934326171875,-0.4858245849609375,0.0662841796875,-0.1415376961231231,-0.5011667013168335,0.9457082152366638,113.11129760742188,-55.04728698730469,270.37359619140625
1700075430,1.4598236083984375,-0.553253173828125,0.0643157958984375,-0.4132110178470611,-0.4083794951438904,1.0140981674194336,113.31138610839844,-54.93147277832031,271.0106811523437
1700075430,1.32598876953125,-0.640411376953125,-0.0593414306640625,-0.7676036953926086,-0.1300714462995529,1.1461111307144165,113.28968811035156,-55.58843994140625,271.25885009765625
1700075430,1.2093353271484375,-0.65545654296875,-0.3191070556640625,-1.5008797645568848,0.3348738551139831,1.6148724555969238,113.14315795898438,-55.4730224609375,270.2152709960937
1700075430,1.05584716796875,-0.4316253662109375,-0.8652801513671875,-2.28704833984375,0.7116597294807434,2.2883903980255127,113.49372863769533,-55.83367919921875,270.2740478515625
1700075430,0.94732666015625,-0.1950531005859375,-1.3551788330078125,-2.434179306030273,0.9138839840888976,2.705977439880371,113.42483520507812,-55.871490478515625,270.2935791015625
1700075430,1.09307861328125,-0.171783447265625,-1.431121826171875,-2.0673980712890625,1.0071039199829102,3.100592374801636,113.97412109375,-56.064208984375,270.242919921875
1700075430,1.2787933349609375,0.0106048583984375,-1.2863311767578125,-1.346938967704773,0.9951021075248718,3.713298320770264,113.9420928955078,-56.679107666015625,270.7525329589844
1700075430,1.3522186279296875,0.436676025390625,-0.9675445556640624,-0.5325941443443298,0.7140834927558899,4.383877277374268,113.80465698242188,-56.49211120605469,270.33843994140625
1700075430,1.4830474853515625,0.8736724853515625,-0.5307464599609375,-0.2076738327741623,0.7053238153457642,4.693292140960693,113.70982360839844,-56.130767822265625,270.5853271484375
1700075430,1.65521240234375,1.2600250244140625,-0.517913818359375,-0.5635190010070801,1.193771481513977,4.345827579498291,113.15402221679688,-56.138763427734375,270.93927001953125
1700075430,1.8990478515625,1.652862548828125,-0.79901123046875,-0.9133105874061584,1.4550782442092896,3.7903079986572266,113.37969970703124,-55.82206726074219,270.92822265625
1700075430,2.033294677734375,1.8956146240234373,-0.5784912109375,-0.2340958565473556,1.6686861515045166,3.334566116333008,113.33221435546876,-55.70539855957031,270.535888671875
1700075430,1.955047607421875,1.3335418701171875,-0.418670654296875,0.5023890733718872,1.761159062385559,3.0850775241851807,113.22120666503906,-56.01641845703125,270.71539306640625
1700075430,1.824798583984375,0.7428436279296875,-0.480377197265625,0.6885706782341003,1.6754156351089478,3.089060068130493,113.16761779785156,-56.01959228515625,270.4754638671875
1700075430,1.707763671875,0.5893402099609375,-0.5595245361328125,0.529146671295166,1.4914183616638184,3.130053997039795,113.21351623535156,-55.86402893066406,270.5965576171875
1700075430,1.6102752685546875,0.4349212646484375,-0.580352783203125,0.19017393887043,1.32450270652771,3.026833295822144,113.17515563964844,-55.49504089355469,270.5480041503906
1700075430,1.561279296875,0.249847412109375,-0.5646209716796875,-0.1340416967868805,1.2036268711090088,2.781189203262329,113.0760498046875,-55.52604675292969,270.42041015625
1700075430,1.482574462890625,0.0943145751953125,-0.48712158203125,-0.3261360228061676,1.1281968355178833,2.54659366607666,113.0128936767578,-55.61642456054688,270.2723083496094
1700075430,1.305908203125,0.0227508544921875,-0.3681793212890625,-0.5171909332275391,0.973927080631256,2.348381280899048,113.06459045410156,-55.72422790527344,270.5874938964844
1700075430,1.113311767578125,-0.0057830810546875,-0.263824462890625,-0.6684547662734985,0.7890259027481079,2.051971912384033,113.20140075683594,-55.9112548828125,269.95721435546875
1700075430,0.9730224609375,-0.0809173583984375,-0.1900634765625,-0.7377411723136902,0.6534883379936218,1.6326240301132202,113.22206115722656,-55.87646484375,269.850830078125
1700075430,0.831298828125,-0.1739959716796875,-0.1280670166015625,-0.693238377571106,0.5129114985466003,1.311578631401062,113.03875732421876,-56.0352783203125,270.08154296875
1700075430,0.597747802734375,-0.18365478515625,-0.0579833984375,-0.620902419090271,0.3374067842960357,1.0617001056671145,113.19349670410156,-56.37457275390625,270.0015869140625
1700075430,0.362060546875,-0.1631011962890625,-0.0421905517578125,-0.5387009978294373,0.1720838844776153,0.7743188738822937,113.27261352539062,-56.23023986816406,269.8083190917969
1700075430,0.2205047607421875,-0.1741180419921875,-0.0577545166015625,-0.5619003772735596,0.0712984129786491,0.361332356929779,113.05897521972656,-56.5841064453125,269.98388671875
1700075430,0.1704864501953125,-0.27105712890625,-0.0265655517578125,-0.7186851501464844,-0.0472093224525451,-0.0834978222846984,113.4199676513672,-56.73506164550781,270.4002685546875
1700075430,0.16754150390625,-0.3621826171875,-0.0006103515625,-0.8894321322441101,-0.1691932827234268,-0.4205916821956634,113.30036926269533,-56.78578186035156,270.42156982421875
1700075430,0.1370849609375,-0.3352508544921875,-0.02099609375,-0.9990960359573364,-0.3225421011447906,-0.6297712922096252,113.52049255371094,-56.6302490234375,270.65631103515625
1700075430,0.0586090087890625,-0.325897216796875,0.0123748779296875,-1.134804129600525,-0.4266421198844909,-0.9229983687400818,113.1815948486328,-57.122100830078125,271.1492614746094
1700075430,0.018768310546875,-0.3588714599609375,-0.0093231201171875,-1.3006694316864014,-0.5120171904563904,-1.2513999938964844,113.42927551269533,-57.2010498046875,271.0191650390625
1700075430,-0.035125732421875,-0.3398590087890625,-0.046630859375,-1.4600192308425903,-0.5916739702224731,-1.5569825172424316,113.3155517578125,-57.0020751953125,271.2401123046875
1700075430,-0.0836944580078125,-0.322265625,-0.0465850830078125,-1.608135223388672,-0.6764886975288391,-1.8566511869430544,113.27992248535156,-57.53840637207031,271.22662353515625
1700075430,-0.099761962890625,-0.2945404052734375,-0.0614776611328125,-1.761694312095642,-0.7590267658233643,-2.123976707458496,113.28013610839844,-57.61299133300781,271.4908447265625
1700075430,-0.09326171875,-0.2352752685546875,-0.095855712890625,-1.9020099639892576,-0.8389942646026611,-2.373037338256836,113.08218383789062,-57.810791015625,271.8558349609375
1700075430,-0.084686279296875,-0.1714935302734375,-0.0888824462890625,-2.073553562164306,-0.9361623525619508,-2.628037452697754,113.27676391601562,-57.77487182617188,271.7386169433594
1700075430,-0.049163818359375,-0.1415557861328125,-0.1150054931640625,-2.103046178817749,-1.0856245756149292,-2.819915294647217,113.24609375,-58.20146179199219,272.1842346191406
1700075430,-0.007843017578125,-0.0633544921875,-0.160736083984375,-1.8197169303894043,-1.1863855123519895,-2.934321165084839,113.55108642578124,-58.72808837890625,272.510498046875
1700075430,0.0424041748046875,0.10748291015625,-0.1329193115234375,-1.35643470287323,-1.182955622673035,-3.026395559310913,113.26544189453124,-58.52638244628906,273.1572570800781
1700075430,0.1227874755859375,0.2754974365234375,-0.1176910400390625,-0.948247253894806,-1.192953109741211,-3.1271090507507324,113.10104370117188,-58.54438781738281,272.718017578125
1700075430,0.200439453125,0.43890380859375,-0.2639617919921875,-0.5379388332366943,-1.1520267724990845,-3.216561317443848,113.22932434082033,-58.94023132324219,273.12066650390625
1700075430,0.2640228271484375,0.5482177734375,-0.4363555908203125,-0.1680020540952682,-1.0613315105438232,-3.20733904838562,113.30509948730467,-59.0162353515625,273.35260009765625
1700075430,0.3114166259765625,0.6365509033203125,-0.5390777587890625,0.0929307416081428,-0.9032752513885498,-3.091129302978516,113.39727783203124,-59.43336486816406,273.3584899902344
1700075430,0.3217010498046875,0.7669219970703125,-0.7034759521484375,0.2040178477764129,-0.7649778127670288,-2.921718120574951,113.42111206054688,-59.48454284667969,273.4887084960937
1700075430,0.3910980224609375,0.894561767578125,-0.8298797607421875,0.105824701488018,-0.6477910280227661,-2.63663649559021,113.23493957519533,-59.7381591796875,273.9005126953125
1700075430,0.4784393310546875,1.0496673583984375,-0.898529052734375,-0.0601307153701782,-0.5412286520004272,-2.246433734893799,113.5705108642578,-59.6138916015625,273.9874267578125
1700075430,0.5242767333984375,1.209503173828125,-0.9181060791015624,-0.2332471013069152,-0.4402545988559723,-1.7952126264572144,113.46775817871094,-59.78118896484375,273.789306640625
1700075430,0.5452880859375,1.351348876953125,-0.88726806640625,-0.3137741684913635,-0.3585317730903625,-1.3968002796173096,113.30027770996094,-59.75926208496094,274.3236083984375
1700075430,0.5423583984375,1.4634552001953125,-0.8722991943359375,-0.2591530084609985,-0.2581804096698761,-1.1343151330947876,113.3262939453125,-59.938323974609375,274.34722900390625
1700075430,0.5487823486328125,1.505584716796875,-0.9068450927734376,-0.220806673169136,-0.1312246024608612,-0.956227958202362,113.36756896972656,-60.08247375488281,275.1495361328125
1700075430,0.5413970947265625,1.4759368896484375,-0.8513336181640625,0.005372661165893,0.0459874644875526,-0.7301114797592163,113.27711486816406,-60.32713317871094,275.4609680175781
1700075430,0.487579345703125,1.3654022216796875,-0.756500244140625,0.2750238478183746,0.170856699347496,-0.4980611801147461,113.23463439941406,-60.356964111328125,275.1898803710937
1700075430,0.4405975341796875,1.246429443359375,-0.694122314453125,0.3925416767597198,0.1816190630197525,-0.2258698791265487,113.2665557861328,-59.82264709472656,275.5243530273437
1700075430,0.403961181640625,1.21343994140625,-0.5904693603515625,0.3522472679615021,0.3103442788124084,-0.157106801867485,113.3035888671875,-60.34396362304688,275.25897216796875
1700075430,0.431488037109375,1.0168914794921875,-0.54669189453125,0.3947361409664154,0.3846781849861145,-0.3427919745445251,113.06243896484376,-59.896087646484375,275.8524780273437
1700075430,0.4373931884765625,0.6545257568359375,-0.6807403564453125,0.3178384304046631,0.0464412681758403,-0.1276996433734893,112.86512756347656,-59.84625244140625,276.0289306640625
1700075430,0.487945556640625,0.58453369140625,-0.2904510498046875,-0.2275021374225616,0.1287654340267181,0.0224525779485702,113.11129760742188,-60.19331359863281,276.5126342773437
1700075430,0.7108154296875,0.517059326171875,-0.4581146240234375,0.2378972470760345,0.0026200178544968,-0.0723660737276077,112.91941833496094,-60.20252990722656,276.186767578125
1700075430,1.413330078125,0.3854217529296875,-0.308990478515625,0.4819533228874206,-0.1308890432119369,-0.0678882375359535,113.14849853515624,-60.181396484375,276.7087097167969
1700075430,1.9762725830078125,0.3915252685546875,-0.324798583984375,0.2222916632890701,-0.3805369436740875,0.1735994815826416,112.81648254394533,-60.39723205566406,276.7557067871094
1700075430,1.8537750244140625,0.494140625,-0.2716064453125,0.2445495575666427,-0.312919020652771,0.2713103294372558,112.8693389892578,-59.92767333984375,277.53985595703125
1700075430,1.3587646484375,0.4009246826171875,-0.1692962646484375,0.1773161888122558,-0.2530852556228637,0.2629093825817108,112.66668701171876,-59.80464172363281,277.7435302734375
1700075430,1.0648193359375,0.381072998046875,-0.0146636962890625,-0.0800365135073661,-0.2228522598743438,0.272152692079544,113.09536743164062,-59.855224609375,278.0084228515625
1700075430,1.117828369140625,0.312042236328125,-0.127166748046875,-0.3537144064903259,-0.12186811119318,0.2489208728075027,112.33566284179688,-59.60479736328125,278.39654541015625
1700075430,1.153167724609375,0.1620330810546875,-0.4615631103515625,-0.3334828913211822,-0.1404846757650375,0.209318071603775,112.39328002929688,-59.38032531738281,278.70489501953125
1700075430,0.9981842041015624,0.150848388671875,-0.64862060546875,-0.1842489391565323,-0.2802678644657135,0.2499230206012725,111.84375,-58.79222106933594,279.19366455078125
1700075430,0.822113037109375,0.2542724609375,-0.571624755859375,-0.1404974609613418,-0.2646452486515045,0.154107004404068,112.1304168701172,-58.22476196289063,279.3091125488281
1700075430,0.763427734375,0.3596038818359375,-0.421722412109375,-0.1448027193546295,-0.1682569235563278,-0.0264835394918918,111.78829956054688,-57.82582092285156,279.83111572265625
1700075430,0.8814239501953125,0.4519500732421875,-0.2129974365234375,-0.0946876257658004,-0.1020440757274627,-0.1330230385065078,111.47601318359376,-57.04750061035156,280.5884704589844
1700075430,1.0399932861328125,0.469970703125,-0.2163238525390625,-0.0148716242983937,-0.1138876900076866,-0.1927745193243026,111.4364776611328,-57.05364990234375,280.8919677734375
1700075430,1.1309356689453125,0.34600830078125,-0.3917083740234375,0.041763424873352,-0.1874623000621795,-0.1990446597337722,111.16595458984376,-56.10624694824219,281.2381286621094
1700075430,1.063812255859375,0.19281005859375,-0.508148193359375,0.0220392551273107,-0.2747053205966949,-0.1427907049655914,110.80973815917967,-55.448272705078125,281.105712890625
1700075430,0.9444427490234376,0.10748291015625,-0.533721923828125,-0.0634892284870147,-0.3504448235034942,-0.0679114088416099,110.61257934570312,-54.67588806152344,281.39703369140625
1700075430,0.9396209716796876,0.1070709228515625,-0.4765167236328125,-0.0934263542294502,-0.3989692330360412,-0.0389423407614231,110.0701141357422,-52.84709167480469,280.64227294921875
1700075430,0.957916259765625,0.1789703369140625,-0.4461669921875,-0.0796021521091461,-0.4485503733158111,-0.0693961158394813,109.6631317138672,-51.04002380371094,280.2791748046875
1700075430,0.964569091796875,0.2478179931640625,-0.44451904296875,-0.0234507303684949,-0.4955900311470032,-0.1286999285221099,109.03591918945312,-49.258148193359375,279.48956298828125
1700075430,0.9690093994140624,0.2744140625,-0.43292236328125,0.0272076521068811,-0.5279743671417236,-0.1932152658700943,108.27491760253906,-47.51625061035156,278.36199951171875
1700075430,0.971038818359375,0.2681427001953125,-0.4031982421875,0.0429136455059051,-0.5285463929176331,-0.2380378693342209,107.01553344726562,-45.25263977050781,278.3095397949219
1700075430,0.9459228515625,0.2467803955078125,-0.3816070556640625,0.0537857338786125,-0.523999035358429,-0.269802987575531,106.07583618164062,-42.85809326171875,277.8088684082031
1700075430,0.907501220703125,0.2259979248046875,-0.375244140625,0.0473613888025283,-0.5233004689216614,-0.2841691374778747,104.55223083496094,-40.81390380859375,277.1395263671875
1700075430,0.91754150390625,0.2061309814453125,-0.36053466796875,0.0279613267630338,-0.5216637253761292,-0.27936452627182,103.26161193847656,-38.84071350097656,277.1981811523437
1700075430,0.94769287109375,0.197540283203125,-0.3725738525390625,0.0255218707025051,-0.5343078970909119,-0.2678501009941101,101.65444946289062,-37.30778503417969,276.76715087890625
1700075430,0.9740142822265624,0.1912384033203125,-0.362548828125,0.0138838579878211,-0.5411543250083923,-0.2656175494194031,100.8419189453125,-36.2486572265625,276.0855407714844
1700075430,0.9758758544921876,0.1932830810546875,-0.3643951416015625,0.0068632322363555,-0.5514431595802307,-0.2830753922462463,99.38406372070312,-35.26905822753906,276.14764404296875
1700075430,0.954132080078125,0.2092132568359375,-0.3747406005859375,0.021328991279006,-0.5616582632064819,-0.3206099569797516,97.87608337402344,-34.12974548339844,275.665771484375
1700075430,0.940277099609375,0.22711181640625,-0.3563232421875,0.0373324565589427,-0.5695217847824097,-0.3651316463947296,96.73890686035156,-32.67829895019531,275.5365600585937
1700075430,0.939056396484375,0.2403564453125,-0.330535888671875,0.047311320900917,-0.5634404420852661,-0.4135321974754333,95.95051574707033,-31.71934509277344,275.4976806640625
1700075430,0.9434051513671876,0.2335052490234375,-0.31732177734375,0.031775239855051,-0.5642367601394653,-0.4410828649997711,94.4215850830078,-30.82362365722656,274.9268798828125
1700075430,0.9304962158203124,0.2278900146484375,-0.3415374755859375,-0.0256334580481052,-0.5781525373458862,-0.4636118710041046,93.20281982421876,-30.22714233398437,273.8646240234375
1700075430,0.9456634521484376,0.2069091796875,-0.340972900390625,-0.0752814412117004,-0.5836024284362793,-0.4602168798446655,92.24810791015624,-29.83271789550781,274.0122375488281
1700075430,0.94537353515625,0.1885528564453125,-0.3529815673828125,-0.145080491900444,-0.596253514289856,-0.4531565606594085,91.52943420410156,-29.569869995117188,272.71978759765625
1700075430,0.937713623046875,0.16668701171875,-0.3382568359375,-0.2072743624448776,-0.5763458609580994,-0.4548660516738891,90.48922729492188,-29.05928039550781,271.748046875
1700075430,0.9513702392578124,0.1287689208984375,-0.3009033203125,-0.1569643169641494,-0.5270656943321228,-0.4242340922355652,89.81637573242188,-28.799560546875,271.1845092773437
1700075430,0.956512451171875,0.103363037109375,-0.2681884765625,-0.0681215301156044,-0.4764403104782104,-0.3712121546268463,89.52230834960938,-28.708511352539062,270.38604736328125
1700075430,0.9846649169921876,0.0955963134765625,-0.2561187744140625,0.0183800719678401,-0.4590969979763031,-0.3268191218376159,89.19142150878906,-28.751434326171875,269.35650634765625
1700075431,0.9972991943359376,0.1054229736328125,-0.262603759765625,0.0493880547583103,-0.4442235231399536,-0.302306056022644,89.03897094726562,-29.027557373046875,268.722412109375
1700075431,0.9864349365234376,0.129974365234375,-0.2548065185546875,0.0252619478851556,-0.390465497970581,-0.2981739044189453,89.31350708007812,-28.951217651367188,267.8236389160156
1700075431,0.96588134765625,0.1232757568359375,-0.2492828369140625,0.0640676692128181,-0.3340946137905121,-0.2709982097148895,89.35551452636719,-29.460479736328125,266.98223876953125
1700075431,0.9107666015625,0.1140289306640625,-0.251068115234375,0.1655394285917282,-0.3358179628849029,-0.2128709852695465,89.68272399902344,-29.836471557617188,266.6683654785156
1700075431,0.897613525390625,0.1119384765625,-0.2349395751953125,0.1740884482860565,-0.3243890106678009,-0.1710111647844314,89.92658996582031,-30.92562866210937,266.70416259765625
1700075431,0.928863525390625,0.079345703125,-0.2553863525390625,0.099410742521286,-0.2972793579101562,-0.1232939735054969,90.32460021972656,-31.40840148925781,265.8551025390625
1700075431,0.937255859375,0.0266876220703125,-0.2714080810546875,0.0777725577354431,-0.2690232098102569,-0.0548169091343879,91.12081909179688,-32.15226745605469,265.40460205078125
1700075431,0.9373931884765624,-0.03411865234375,-0.269287109375,0.1159889176487922,-0.2403564155101776,0.0507430732250213,91.87098693847656,-32.78807067871094,265.3457946777344
1700075431,0.9322662353515624,-0.051177978515625,-0.2317352294921875,0.0755648016929626,-0.219652459025383,0.1657833755016327,92.81272888183594,-33.49200439453125,264.6556091308594
1700075431,0.9154205322265624,-0.0327911376953125,-0.20196533203125,-0.0238528680056333,-0.1813825666904449,0.2605162858963012,93.73878479003906,-34.58665466308594,264.18609619140625
1700075431,0.883270263671875,-0.0067596435546875,-0.2404327392578125,-0.0456598959863185,-0.1270405054092407,0.3527141213417053,94.610595703125,-35.642730712890625,264.161376953125
1700075431,0.8409576416015625,0.0238037109375,-0.2633056640625,-0.0619880035519599,-0.1231666728854179,0.4181133508682251,95.81706237792967,-36.75045776367188,263.48358154296875
1700075431,0.8329925537109375,0.0577239990234375,-0.229278564453125,-0.1038949713110923,-0.0988288447260856,0.4619140923023224,96.7332763671875,-38.28111267089844,263.07232666015625
1700075431,0.8612213134765625,0.0867919921875,-0.2174835205078125,-0.1050952598452568,-0.0749783739447593,0.500751256942749,97.80165100097656,-39.43438720703125,263.509765625
1700075431,0.86578369140625,0.1081085205078125,-0.2548370361328125,-0.1537940949201584,-0.0965960472822189,0.5209129452705383,98.65675354003906,-40.51573181152344,263.6324462890625
1700075431,0.9116363525390624,0.0905914306640625,-0.284576416015625,-0.1470728069543838,-0.1033397018909454,0.5761930346488953,99.57142639160156,-41.25746154785156,264.31817626953125
1700075431,0.9405059814453124,0.097412109375,-0.271697998046875,-0.1501460969448089,-0.1101440787315368,0.6289475560188293,100.3332977294922,-42.4283447265625,264.66314697265625
1700075431,0.9842529296875,0.1150970458984375,-0.22412109375,-0.0777424648404121,-0.0765728056430816,0.6560276746749878,101.0377197265625,-43.30226135253906,265.2891845703125
1700075431,1.05316162109375,0.099884033203125,-0.1753082275390625,0.0464987941086292,-0.063116654753685,0.7098368406295776,101.7828369140625,-44.618988037109375,266.1907958984375
1700075431,1.074432373046875,0.116943359375,-0.172515869140625,0.0612327307462692,-0.0570555627346038,0.7664439082145691,102.33712768554688,-45.1514892578125,266.4639587402344
1700075431,1.0702056884765625,0.1428375244140625,-0.1717529296875,0.0077423420734703,-0.0257218740880489,0.8048746585845947,103.0277862548828,-46.229736328125,266.95361328125
1700075431,1.0393524169921875,0.150482177734375,-0.1750335693359375,-0.0405831113457679,-0.0378014408051967,0.8205097913742065,102.94856262207033,-46.53654479980469,267.73785400390625
1700075431,1.00830078125,0.2022552490234375,-0.19647216796875,-0.0888984501361846,-0.0598643980920314,0.8131802678108215,103.43133544921876,-46.61195373535156,267.3861694335937
1700075431,1.0381011962890625,0.299072265625,-0.1383514404296875,-0.1355980485677719,-0.0909509435296058,0.8041899800300598,103.75428771972656,-46.74421691894531,267.7303466796875
1700075431,1.1107635498046875,0.3658294677734375,-0.1262969970703125,-0.1299939453601837,-0.1311817169189453,0.7647700905799866,103.91851806640624,-47.36273193359375,268.0556640625
1700075431,1.201171875,0.324920654296875,-0.180145263671875,-0.0202815700322389,-0.1548289954662323,0.725284993648529,103.846435546875,-47.12504577636719,267.93798828125
1700075431,1.2457427978515625,0.2035064697265625,-0.2222137451171875,0.1122216135263443,-0.2164822369813919,0.727597177028656,104.13365173339844,-47.10444641113281,268.2445068359375
1700075431,1.24310302734375,0.1412200927734375,-0.2973480224609375,0.1014246270060539,-0.2895364761352539,0.7067475318908691,104.1414031982422,-47.46098327636719,267.96099853515625
1700075431,1.2440338134765625,0.0919036865234375,-0.3326568603515625,0.0225503165274858,-0.3737110197544098,0.6980467438697815,104.52467346191406,-47.87525939941406,268.14312744140625
1700075431,1.237823486328125,0.0852203369140625,-0.351654052734375,0.0315041318535804,-0.4620400667190552,0.6911441087722778,104.52088928222656,-47.62110900878906,268.2654724121094
1700075431,1.2676849365234375,0.1244964599609375,-0.329132080078125,0.0587306916713714,-0.5365771651268005,0.6838776469230652,104.46875,-47.62957763671875,267.6874389648437
1700075431,1.3585357666015625,0.150482177734375,-0.2164306640625,0.0538475178182125,-0.5840208530426025,0.6933401226997375,104.48786926269533,-47.37239074707031,267.5971374511719
1700075431,1.464691162109375,0.142181396484375,-0.0662078857421875,-0.0020575581584125,-0.6173694729804993,0.7257809042930603,104.64895629882812,-47.40597534179688,268.0764465332031
1700075431,1.5069732666015625,0.0991058349609375,-0.0063323974609375,0.0032607743050903,-0.6979117393493652,0.8003113269805908,104.83770751953124,-47.54412841796875,268.2530517578125
1700075431,1.5064849853515625,0.02655029296875,-0.0139312744140625,0.0477795079350471,-0.7266562581062317,0.8195896744728088,104.71253967285156,-47.230072021484375,267.79815673828125
1700075431,1.5585784912109375,-0.0734710693359375,-0.0595703125,0.2025693506002426,-0.7724650502204895,0.7874677181243896,104.55770874023438,-47.40475463867188,267.6796875
1700075431,1.5981903076171875,-0.2127532958984375,-0.0042266845703125,0.3441970646381378,-0.8241689801216125,0.7695541977882385,104.79890441894533,-47.07231140136719,268.04248046875
1700075431,1.6653289794921875,-0.294830322265625,0.09515380859375,0.4760403037071228,-0.8466612696647644,0.7459660768508911,104.84072875976562,-47.46269226074219,268.04217529296875
1700075431,1.714080810546875,-0.355743408203125,0.2021026611328125,0.5571703314781189,-0.7889707684516907,0.6475995182991028,104.60877990722656,-47.19013977050781,268.1131591796875
1700075431,1.6796722412109375,-0.44000244140625,0.2573089599609375,0.5391247272491455,-0.6716513633728027,0.5498501062393188,104.73362731933594,-47.24336242675781,268.0155029296875
1700075431,1.5636749267578125,-0.5016937255859375,0.2357330322265625,0.3668341934680938,-0.4707581996917724,0.56605064868927,104.927001953125,-47.599853515625,267.8061828613281
1700075431,1.364013671875,-0.5040740966796875,-0.04119873046875,0.1066239178180694,-0.2344900071620941,0.8708975911140442,104.7932586669922,-47.41133117675781,267.65673828125
1700075431,1.17449951171875,-0.3395233154296875,-0.5553436279296875,-0.4816015064716339,-0.0535484477877616,1.569976806640625,104.86701965332033,-47.54389953613281,268.2178955078125
1700075431,0.92169189453125,0.04266357421875,-1.0695648193359375,-1.4350429773330688,0.1225895658135414,2.238517999649048,105.23043823242188,-47.519378662109375,267.87603759765625
1700075431,0.817962646484375,0.226043701171875,-1.281158447265625,-2.316955804824829,0.3614594042301178,2.5801925659179688,105.0608367919922,-47.87980651855469,267.6146850585937
1700075431,0.977874755859375,0.243621826171875,-1.2152099609375,-2.7299001216888428,0.5901637077331543,2.8734304904937744,105.11834716796876,-47.73941040039063,267.78741455078125
1700075431,1.125396728515625,0.4087982177734375,-0.990692138671875,-2.558798789978028,0.6621910333633423,3.40057110786438,105.024658203125,-47.96440124511719,267.4754638671875
1700075431,1.1371307373046875,0.71435546875,-0.8211517333984375,-2.175358533859253,0.4179900586605072,4.072616100311279,105.08103942871094,-47.80734252929688,267.927001953125
1700075431,1.21990966796875,1.09039306640625,-0.5457916259765625,-1.92988121509552,0.5485696196556091,4.242557525634766,105.30807495117188,-48.463165283203125,267.69122314453125
1700075431,1.38299560546875,1.269744873046875,-0.54010009765625,-1.5874218940734863,0.9573342204093932,4.023555278778076,105.43528747558594,-48.50445556640625,268.6202087402344
1700075431,1.442962646484375,1.295806884765625,-0.7044525146484375,-1.3118566274642944,1.054592847824097,3.839914560317993,105.45648193359376,-48.74610900878906,268.9131774902344
1700075431,1.458984375,1.2128448486328125,-0.7222442626953125,-0.9720622897148132,1.0418390035629272,3.655953884124756,105.49058532714844,-48.665069580078125,269.621826171875
1700075431,1.5015716552734375,0.7728729248046875,-0.60882568359375,-0.5448441505432129,1.0812660455703735,3.5606188774108887,105.577392578125,-48.81617736816406,268.923828125
1700075431,1.454681396484375,0.43798828125,-0.5325775146484375,-0.2080165743827819,1.0544456243515017,3.594644069671631,105.52702331542967,-49.12962341308594,269.3094482421875
1700075431,1.3386383056640625,0.3785858154296875,-0.505218505859375,0.0310500618070364,0.9183202385902404,3.61933708190918,105.64723205566406,-49.47169494628906,269.268798828125
1700075431,1.2645111083984375,0.367431640625,-0.4753570556640625,0.1771060675382614,0.7479208111763,3.48034405708313,105.80865478515624,-49.37864685058594,269.5259094238281
1700075431,1.221832275390625,0.3250885009765625,-0.4373626708984375,0.2884096801280975,0.5840464234352112,3.207569360733032,105.7791748046875,-49.62382507324219,269.7538452148437
1700075431,1.159759521484375,0.24810791015625,-0.3491363525390625,0.4007532894611358,0.4695773422718048,2.910787343978882,106.038330078125,-49.76681518554688,270.18829345703125
1700075431,1.0479888916015625,0.1222381591796875,-0.2686767578125,0.4720700681209564,0.3968040645122528,2.655672550201416,105.95545959472656,-50.29695129394531,270.6319580078125
1700075431,0.8936309814453125,0.014495849609375,-0.256744384765625,0.4224010407924652,0.2870046198368072,2.4889144897460938,105.6616668701172,-50.44084167480469,270.17120361328125
1700075431,0.7367706298828125,-0.0469207763671875,-0.2638092041015625,0.1941857188940048,0.1190752610564231,2.359879970550537,105.7503662109375,-50.19595336914063,271.1037902832031
1700075431,0.61590576171875,-0.1090545654296875,-0.2728271484375,-0.1750703454017639,-0.109307050704956,2.163154125213623,106.23233032226562,-50.72184753417969,271.03759765625
1700075431,0.5430450439453125,-0.199066162109375,-0.2517852783203125,-0.5531313419342041,-0.3808639943599701,1.8360167741775515,106.27638244628906,-50.62821960449219,271.41650390625
1700075431,0.51312255859375,-0.32867431640625,-0.1476287841796875,-0.8287237882614136,-0.6945641040802002,1.409321427345276,106.2789306640625,-51.08221435546875,271.52740478515625
1700075431,0.466552734375,-0.4689483642578125,0.0108489990234375,-1.1324080228805542,-0.9948245882987976,0.9619524478912354,106.04042053222656,-51.500518798828125,271.79034423828125
1700075431,0.3839111328125,-0.560882568359375,0.053314208984375,-1.4412306547164917,-1.2104607820510864,0.6015697121620178,106.27403259277344,-51.66354370117188,272.00347900390625
1700075431,0.2725830078125,-0.5782623291015625,-0.0087432861328125,-1.724254846572876,-1.3485687971115112,0.3232744634151459,106.16905212402344,-51.61357116699219,272.31866455078125
1700075431,0.198760986328125,-0.55303955078125,-0.129791259765625,-1.9475457668304443,-1.4595134258270264,0.0757328420877456,106.4299774169922,-51.79103088378906,272.9467163085937
1700075431,0.1844635009765625,-0.5203857421875,-0.2320556640625,-2.141615867614746,-1.5817842483520508,-0.2002997994422912,106.38589477539062,-52.14892578125,273.3541564941406
1700075431,0.226654052734375,-0.474212646484375,-0.2895660400390625,-2.3546853065490723,-1.7278623580932615,-0.504115104675293,106.0565948486328,-52.22998046875,273.431884765625
1700075431,0.29278564453125,-0.386932373046875,-0.3166656494140625,-2.5076966285705566,-1.8944036960601809,-0.8074384927749634,106.0279541015625,-52.05825805664063,274.1820678710937
1700075431,0.342010498046875,-0.2979736328125,-0.3083343505859375,-2.619595050811768,-2.0871822834014893,-1.0967155694961548,106.1527862548828,-52.22755432128906,273.69677734375
1700075431,0.349029541015625,-0.230377197265625,-0.286376953125,-2.735003471374512,-2.288736343383789,-1.371750831604004,106.27346801757812,-52.451568603515625,274.0425720214844
1700075431,0.345947265625,-0.200592041015625,-0.29156494140625,-2.7896816730499268,-2.468986988067627,-1.6400803327560425,106.11143493652344,-52.367462158203125,273.69586181640625
1700075431,0.3514251708984375,-0.2024993896484375,-0.3005218505859375,-2.81162691116333,-2.622731685638428,-1.9108721017837524,106.33889770507812,-52.29669189453125,274.6270446777344
1700075431,0.3686981201171875,-0.2187347412109375,-0.3138275146484375,-2.825303316116333,-2.747633457183838,-2.169914722442627,106.08224487304688,-51.985382080078125,273.7730712890625
1700075431,0.3966217041015625,-0.2324371337890625,-0.3395843505859375,-2.803436756134033,-2.848963499069214,-2.423172235488892,106.05259704589844,-52.41835021972656,274.23052978515625
1700075431,0.440399169921875,-0.2127532958984375,-0.3787689208984375,-2.75057339668274,-2.948601007461548,-2.6680054664611816,106.05577087402344,-52.04170227050781,274.0860595703125
1700075431,0.492095947265625,-0.1511993408203125,-0.414642333984375,-2.651029586791992,-3.0342397689819336,-2.875150203704834,105.88656616210938,-51.68620300292969,274.4721069335937
1700075431,0.5445709228515625,-0.0656890869140625,-0.4547119140625,-2.490215301513672,-3.091516494750977,-3.092700242996216,106.02726745605467,-51.914306640625,274.53521728515625
1700075431,0.6049652099609375,0.010406494140625,-0.4811553955078125,-2.311082601547241,-3.154849052429199,-3.322017431259156,105.81878662109376,-52.199310302734375,275.1976318359375
1700075431,0.7018280029296875,0.072296142578125,-0.4694366455078125,-2.0842251777648926,-3.246775388717652,-3.5470967292785645,105.38381958007812,-51.725616455078125,275.02056884765625
1700075431,0.8318023681640625,0.0955047607421875,-0.421234130859375,-1.7979432344436646,-3.331860065460205,-3.7978906631469727,105.48683166503906,-52.0509033203125,275.2406311035156
1700075431,0.9774627685546876,0.0514373779296875,-0.3727264404296875,-1.4484206438064575,-3.3236207962036133,-4.03910493850708,105.13157653808594,-51.92897033691406,275.38018798828125
1700075431,1.074920654296875,-0.002227783203125,-0.4028778076171875,-1.1814028024673462,-3.2203285694122314,-4.208976268768311,105.01202392578124,-52.03146362304688,276.08563232421875
1700075431,1.10870361328125,0.0259552001953125,-0.5191497802734375,-1.108290433883667,-3.1112210750579834,-4.357634544372559,105.20315551757812,-51.68914794921875,276.2283630371094
1700075431,1.1515960693359375,0.0940093994140625,-0.6460723876953125,-1.2620075941085815,-2.985957860946656,-4.53623104095459,104.87567138671876,-51.668975830078125,276.4867553710937
1700075431,1.2611083984375,0.130340576171875,-0.7878875732421875,-1.6338677406311035,-2.8613529205322266,-4.6478776931762695,104.91964721679688,-51.65570068359375,276.8091125488281
1700075431,1.3846435546875,0.1866302490234375,-0.9518280029296876,-2.1168344020843506,-2.801198005676269,-4.696241855621338,104.754638671875,-51.25335693359375,277.06121826171875
1700075431,1.51055908203125,0.2316436767578125,-1.0589752197265625,-2.5784687995910645,-2.77026629447937,-4.683664321899414,103.995361328125,-50.63471984863281,276.60479736328125
1700075431,1.6147918701171875,0.25225830078125,-1.0821685791015625,-2.8973541259765625,-2.7003841400146484,-4.577760696411133,103.90699768066406,-50.54022216796875,276.6407470703125
1700075431,1.6465911865234375,0.3221435546875,-1.04095458984375,-2.981388568878174,-2.5969762802124023,-4.4471964836120605,103.41793823242188,-49.97599792480469,277.21734619140625
1700075431,1.6526641845703125,0.42236328125,-0.95684814453125,-2.9959068298339844,-2.485499620437622,-4.3014421463012695,103.06825256347656,-49.93916320800781,277.00079345703125
1700075431,1.6475982666015625,0.56622314453125,-0.949432373046875,-2.776973962783813,-2.344576597213745,-4.139285564422607,102.72821044921876,-49.33772277832031,276.826904296875
1700075431,1.6801605224609375,0.7352294921875,-0.9249267578125,-2.534575939178467,-2.1945395469665527,-4.050797462463379,102.20741271972656,-48.61921691894531,277.03814697265625
1700075431,1.7115325927734375,0.8929290771484375,-0.8307342529296875,-2.281550168991089,-2.03420090675354,-3.9711976051330566,102.11456298828124,-47.8843994140625,276.4358825683594
1700075431,1.66387939453125,1.0595245361328125,-0.6950225830078125,-1.8815840482711792,-1.8438369035720823,-3.769782781600952,101.32273864746094,-46.79985046386719,275.69354248046875
1700075431,1.5265045166015625,1.1724090576171875,-0.618316650390625,-1.4167859554290771,-1.6388691663742063,-3.4540343284606934,100.40956115722656,-45.342864990234375,274.6224670410156
1700075431,1.3801116943359375,1.159149169921875,-0.6751556396484375,-1.175362467765808,-1.365687131881714,-3.040850877761841,99.41473388671876,-44.28318786621094,273.0360717773437
1700075431,1.181182861328125,1.05816650390625,-0.8230438232421875,-1.2007354497909546,-0.9614202976226808,-2.4996070861816406,98.19027709960938,-43.15216064453125,271.41998291015625
1700075432,0.9267120361328124,0.938079833984375,-0.9475250244140624,-1.4410063028335571,-0.5016628503799438,-1.8571926355361936,97.07780456542967,-41.98490905761719,271.0863037109375
1700075432,0.747344970703125,0.8746795654296875,-1.0605316162109375,-1.7359544038772583,-0.1391309946775436,-1.1041021347045898,95.33673095703124,-40.68325805664063,270.5569152832031
1700075432,0.6459808349609375,0.9334259033203124,-1.03594970703125,-1.87065064907074,0.1799125075340271,-0.2713787853717804,94.05711364746094,-39.316741943359375,269.6742553710937
1700075432,0.649383544921875,1.0885162353515625,-0.882354736328125,-1.9226303100585933,0.5017153024673462,0.5651166439056396,92.77786254882812,-38.15887451171875,268.2547607421875
1700075432,0.588409423828125,1.343292236328125,-0.8241729736328125,-1.75385320186615,0.8288990259170532,1.3023231029510498,91.16368103027344,-36.7529296875,267.62322998046875
1700075432,0.57061767578125,1.5316925048828125,-0.81402587890625,-1.5807610750198364,1.021838665008545,1.7970374822616575,89.86170959472656,-36.499786376953125,266.2970275878906
1700075432,0.70477294921875,1.559051513671875,-0.752044677734375,-1.2996633052825928,0.9332358241081238,1.859089612960816,88.58050537109375,-35.68531799316406,266.0814208984375
1700075432,1.095611572265625,1.078704833984375,-0.37841796875,-0.7972154021263123,0.1474171578884124,1.0893296003341677,87.04359436035156,-34.85380554199219,265.5331420898437
1700075432,1.7679901123046875,-0.1981964111328125,0.7194976806640625,-0.213839054107666,0.1882689744234085,-0.5956226587295532,85.83680725097656,-34.181976318359375,264.70458984375
1700075432,2.3239288330078125,-1.68927001953125,1.4692230224609375,-0.2776997983455658,1.2864660024642944,-0.5504580736160278,84.78102111816406,-33.727569580078125,263.7642822265625
1700075432,1.55010986328125,-1.3270263671875,0.417449951171875,-0.9444085955619812,1.4608842134475708,1.5712157487869265,83.2093505859375,-33.29701232910156,263.476806640625
1700075432,0.9251861572265624,-0.028076171875,-0.31524658203125,-0.5491712689399719,1.151484489440918,2.853573799133301,82.32452392578125,-33.01042175292969,261.74468994140625
1700075432,1.1627044677734375,0.013397216796875,-0.14825439453125,0.0571434460580349,1.080617070198059,2.376552104949951,81.1326904296875,-32.892181396484375,261.115234375
1700075432,1.332550048828125,-0.4188079833984375,-0.181060791015625,-0.1171599105000495,1.0623810291290283,1.8202053308486936,79.90989685058594,-32.96617126464844,260.1105041503906
1700075432,0.951690673828125,-0.0017852783203125,-0.4332275390625,-0.5700584053993225,1.1336042881011963,1.6722880601882937,79.40968322753906,-32.60044860839844,259.70806884765625
1700075432,0.81365966796875,0.441253662109375,-0.2702178955078125,-0.8134830594062805,1.1458873748779297,1.5865403413772583,78.99641418457031,-32.79164123535156,258.5557861328125
1700075432,1.00665283203125,0.548065185546875,-0.0545654296875,-0.7700647115707397,1.1770747900009155,1.2343138456344604,78.37527465820312,-32.99346923828125,257.42254638671875
1700075432,1.1954193115234375,0.33660888671875,-0.02484130859375,-0.6898087859153748,1.094236969947815,1.1210592985153198,78.10481262207031,-32.77824401855469,257.2869567871094
1700075432,1.0980987548828125,0.313385009765625,-0.14752197265625,-0.5320993065834045,0.9070186018943788,1.070392370223999,78.17364501953125,-33.381072998046875,256.7260131835937
1700075432,1.0308685302734375,0.3040618896484375,-0.2583770751953125,-0.3055247664451599,0.7239478230476379,0.9321535229682922,78.34304809570312,-33.76646423339844,255.9187774658203
1700075432,1.05755615234375,0.181121826171875,-0.2726898193359375,-0.1375147253274917,0.5676301717758179,0.8062600493431091,78.25920104980469,-34.23197937011719,255.1763153076172
1700075432,1.103271484375,0.0996551513671875,-0.1217041015625,-0.036723393946886,0.5491257309913635,0.8054903745651245,78.61407470703125,-34.64268493652344,254.9210205078125
1700075432,1.0897979736328125,0.147857666015625,-0.0086669921875,0.0454572290182113,0.6093397736549377,0.6735587120056152,79.27789306640625,-35.19407653808594,253.91656494140625
1700075432,1.105224609375,0.13958740234375,0.042724609375,-0.0309589803218841,0.6083360314369202,0.5252824425697327,80.25331115722656,-35.95399475097656,253.5420837402344
1700075432,1.1126861572265625,0.12481689453125,0.0185699462890625,-0.1760511845350265,0.6137015223503113,0.517413318157196,80.66960144042969,-36.596954345703125,252.6342163085937
1700075432,1.05316162109375,0.206573486328125,-0.049224853515625,-0.2715899646282196,0.6228255033493042,0.4512404203414917,81.40264892578125,-37.61549377441406,252.30368041992188
1700075432,1.0873870849609375,0.140472412109375,-0.0491943359375,-0.2724626958370209,0.6118905544281006,0.3875362873077392,82.3388671875,-38.32954406738281,251.2474822998047
1700075432,1.0960845947265625,0.0662384033203125,-0.10174560546875,-0.2191919982433319,0.5584262609481812,0.3428167402744293,83.79063415527344,-39.7437744140625,251.87811279296875
1700075432,1.0566253662109375,0.0450439453125,-0.1605682373046875,-0.2022785395383834,0.4849549829959869,0.3086843490600586,84.60026550292969,-40.75938415527344,251.4414520263672
1700075432,1.0261688232421875,0.0006866455078125,-0.184783935546875,-0.214045450091362,0.4290072917938232,0.2986596524715423,85.79446411132812,-41.786163330078125,250.70790100097656
1700075432,0.9905548095703124,-0.0576934814453125,-0.189178466796875,-0.1344155967235565,0.3598463237285614,0.3333292305469513,86.59938049316406,-42.63134765625,251.4506072998047
1700075432,0.969207763671875,-0.094970703125,-0.1922454833984375,0.0205417610704898,0.2753101289272308,0.3767904341220855,87.80616760253906,-43.64875793457031,251.464599609375
1700075432,0.982757568359375,-0.10565185546875,-0.184906005859375,0.1128027141094207,0.2282760441303253,0.4035610556602478,88.72190856933594,-44.529052734375,252.0296936035156
1700075432,1.0116424560546875,-0.073944091796875,-0.167724609375,0.1257528662681579,0.2007325738668441,0.4164541959762573,90.0546875,-45.56362915039063,252.7114715576172
1700075432,1.0222930908203125,-0.0102996826171875,-0.145294189453125,0.0346218943595886,0.1936775892972946,0.4070055782794952,91.10115051269533,-46.156982421875,252.8347625732422
1700075432,1.0277252197265625,0.0145111083984375,-0.13238525390625,-0.0222456511110067,0.2077095210552215,0.3964892923831939,91.86624145507812,-47.09588623046875,252.689697265625
1700075432,1.01239013671875,-0.002777099609375,-0.121978759765625,-0.0926553681492805,0.2161418795585632,0.431680291891098,92.54324340820312,-47.67729187011719,253.6725616455078
1700075432,0.9911346435546876,-0.011810302734375,-0.1062774658203125,-0.1619652062654495,0.2238986045122146,0.4658611714839935,93.24714660644533,-48.57197570800781,254.1743011474609
1700075432,0.9841461181640624,-0.02880859375,-0.0978851318359375,-0.1124210804700851,0.2517643272876739,0.4839302003383636,94.1391143798828,-49.26560974121094,254.73858642578125
1700075432,0.9806060791015624,-0.07501220703125,-0.1026763916015625,-0.0118268318474292,0.2668138444423675,0.5106438398361206,94.01976013183594,-49.630889892578125,254.82774353027344
1700075432,0.9737091064453124,-0.1066131591796875,-0.1085052490234375,0.0092363748699426,0.2715332508087158,0.5544275045394897,94.50796508789062,-49.87297058105469,254.86070251464844
1700075432,0.973968505859375,-0.12060546875,-0.1460113525390625,0.0334991030395031,0.2591181099414825,0.6217069625854492,94.84800720214844,-50.30949401855469,255.03868103027344
