timestamp,acc-x,acc-y,acc-z,gyr-x,gyr-y,gyr-z,mag-x,mag-y,mag-z
1700075023,0.951446533203125,-0.019927978515625,-0.2210845947265625,0.0938705652952194,-0.1879709661006927,-0.2243766486644745,104.19381713867188,-64.88609313964844,260.4144287109375
1700075023,0.9658050537109376,-0.0890350341796875,-0.2101287841796875,0.0595144592225551,-0.163400113582611,-0.103702962398529,104.17063903808594,-63.93547058105469,260.1913452148437
1700075023,0.9309844970703124,-0.0863037109375,-0.24188232421875,0.0768239423632621,-0.1380534768104553,-0.0155470017343759,103.98594665527344,-62.882110595703125,261.44012451171875
1700075023,0.8829193115234375,-0.0910797119140625,-0.243499755859375,0.1110008209943771,-0.09518563747406,0.0820996612310409,103.86988830566406,-61.77699279785156,261.127197265625
1700075023,0.8720550537109375,-0.09930419921875,-0.19500732421875,0.0924388542771339,-0.0488343834877014,0.1769380271434784,103.39178466796876,-60.87272644042969,260.67547607421875
1700075023,0.899200439453125,-0.12054443359375,-0.1688690185546875,0.1099648475646972,0.0031931300181895,0.2718903720378876,102.9903564453125,-60.17872619628906,260.9402160644531
1700075023,0.933624267578125,-0.163360595703125,-0.20849609375,0.1292053908109665,0.0220669526606798,0.3765227794647217,103.02960205078124,-59.10438537597656,261.19268798828125
1700075023,0.9873199462890624,-0.1898651123046875,-0.213348388671875,0.1233469694852829,0.0426561161875724,0.4791029393672943,102.95205688476562,-58.49737548828125,261.2103881835937
1700075023,1.0121307373046875,-0.1521453857421875,-0.239471435546875,0.098807007074356,0.0381183587014675,0.5589708685874939,102.3404541015625,-57.3631591796875,261.9076538085937
1700075023,1.0005950927734375,-0.0120086669921875,-0.238189697265625,0.0694357976317405,0.0509076565504074,0.5671462416648865,102.16618347167967,-56.901947021484375,262.544677734375
1700075023,1.0042266845703125,0.112762451171875,-0.19866943359375,0.0458535067737102,0.0918915718793869,0.5460215210914612,101.86628723144533,-55.96217346191406,262.5396423339844
1700075023,0.9977569580078124,0.1519317626953125,-0.1551513671875,0.0804658159613609,0.1299468129873275,0.5487078428268433,101.48716735839844,-55.59588623046875,262.63250732421875
1700075023,1.0052490234375,0.0768890380859375,-0.1595916748046875,0.10274288803339,0.1301572024822235,0.6089214086532593,101.6441650390625,-55.28070068359375,262.955322265625
1700075023,1.0345306396484375,-0.010711669921875,-0.22711181640625,0.124117687344551,0.1058689057826995,0.6488392353057861,101.38644409179688,-55.22181701660156,263.404296875
1700075023,1.0975494384765625,-0.0831298828125,-0.27099609375,0.1386574804782867,0.0869655236601829,0.7027648091316223,101.43646240234376,-54.43006896972656,263.9757080078125
1700075023,1.100372314453125,-0.0699005126953125,-0.3146514892578125,0.1192811205983161,0.03345463052392,0.749942421913147,101.10598754882812,-54.447540283203125,264.1973876953125
1700075023,1.079986572265625,0.015380859375,-0.3275146484375,0.1516768783330917,-0.0179153513163328,0.7324239015579224,100.91018676757812,-53.98396301269531,265.04736328125
1700075023,1.1182403564453125,0.0836181640625,-0.308624267578125,0.2769376039505005,-0.0703599154949188,0.6766887307167053,100.69895935058594,-53.96546936035156,264.7323608398437
1700075024,1.1725311279296875,0.1836700439453125,-0.2740325927734375,0.3471158742904663,-0.1342366337776184,0.6242207288742065,100.93955993652344,-53.86090087890625,265.4647827148437
1700075024,1.2683868408203125,0.2674102783203125,-0.1849822998046875,0.4130333662033081,-0.18237966299057,0.5859907865524292,100.54620361328124,-53.572601318359375,265.4259948730469
1700075024,1.4028472900390625,0.2838134765625,-0.0824127197265625,0.4787689745426178,-0.1771114021539688,0.5063499808311462,100.64143371582033,-53.51332092285156,265.611083984375
1700075024,1.5411529541015625,0.2481231689453125,-0.0351715087890625,0.5540674924850464,-0.1777489632368087,0.4800566136837005,100.76663208007812,-53.78999328613281,266.63134765625
1700075024,1.596038818359375,0.1844940185546875,-0.0227813720703125,0.5666279792785645,-0.2288534194231033,0.5129258632659912,100.51809692382812,-53.71920776367188,267.2319030761719
1700075024,1.6025848388671875,0.090118408203125,-0.019195556640625,0.5834916830062866,-0.2816678881645202,0.5598343014717102,100.59732055664062,-54.12297058105469,267.8524169921875
1700075024,1.5749969482421875,-0.0417938232421875,-0.0077667236328125,0.6220307946205139,-0.3215708434581756,0.6111387610435486,100.75665283203124,-54.50489807128906,268.2628479003906
1700075024,1.502685546875,-0.160552978515625,0.01165771484375,0.6412023901939392,-0.3461363613605499,0.6920163035392761,100.90835571289062,-54.38664245605469,268.9645690917969
1700075024,1.408050537109375,-0.2364501953125,0.02239990234375,0.6510406136512756,-0.3924125134944916,0.799690306186676,100.80081176757812,-55.00982666015625,269.88592529296875
1700075024,1.3398895263671875,-0.28204345703125,0.0520782470703125,0.7063509821891785,-0.3599256873130798,0.8492730259895325,101.24519348144533,-55.17564392089844,270.13238525390625
1700075024,1.272705078125,-0.3782501220703125,0.0465087890625,0.6430793404579163,-0.2397212535142898,0.9124735593795776,101.36647033691406,-55.61441040039063,270.6016540527344
1700075024,1.212371826171875,-0.42474365234375,-0.071685791015625,0.3325955271720886,-0.2055571526288986,1.056050419807434,101.59722900390624,-56.0382080078125,271.8343505859375
1700075024,1.193695068359375,-0.355926513671875,-0.1786041259765625,0.0334242694079875,-0.0210863761603832,1.1054928302764893,101.37396240234376,-56.84831237792969,273.15362548828125
1700075024,1.0946807861328125,-0.3964691162109375,-0.371490478515625,-0.2904017269611358,0.2301173508167266,1.238666534423828,101.32626342773438,-57.50924682617188,273.66583251953125
1700075024,0.9942169189453124,-0.32977294921875,-0.6515960693359375,-0.7088251113891602,0.3678877353668213,1.5380479097366333,101.28831481933594,-58.23741149902344,274.6190795898437
1700075024,0.968902587890625,-0.1733551025390625,-0.8551788330078125,-1.178901195526123,0.5093748569488525,1.8449125289916992,101.10179138183594,-58.8956298828125,275.4022827148437
1700075024,1.0620269775390625,-0.03521728515625,-0.993499755859375,-1.4856913089752195,0.6567317843437195,2.0887396335601807,101.16595458984376,-59.21669006347656,276.2464599609375
1700075024,1.1407623291015625,0.085174560546875,-1.018402099609375,-1.48552405834198,0.580181360244751,2.30273699760437,101.28463745117188,-60.04447937011719,277.2405700683594
1700075024,1.1658172607421875,0.2469329833984375,-0.828277587890625,-1.417526364326477,0.4041607975959778,2.374852418899536,101.43943786621094,-60.86415100097656,277.60089111328125
1700075024,1.2588348388671875,0.347991943359375,-0.4864501953125,-1.3297767639160156,0.5804721713066101,2.3989920616149902,101.54312133789062,-61.60395812988281,278.8507080078125
1700075024,1.307861328125,0.44342041015625,-0.3621368408203125,-0.9949007630348206,0.9452692866325378,2.516475200653076,101.26187133789062,-62.42950439453125,279.543701171875
1700075024,1.3143768310546875,0.5894775390625,-0.4414520263671875,-0.5431290864944458,0.9777713418006896,2.612812042236328,101.72355651855467,-62.843597412109375,280.4193115234375
1700075024,1.4333953857421875,0.7036285400390625,-0.39984130859375,-0.2203355729579925,1.0326356887817385,2.572464942932129,101.26268005371094,-63.47868347167969,281.79791259765625
1700075024,1.5751495361328125,0.721099853515625,-0.5192413330078125,0.1986806094646453,1.1024792194366455,2.429750204086304,101.47743225097656,-63.78121948242188,281.9443054199219
1700075024,1.5947723388671875,0.6592559814453125,-0.57708740234375,0.6621524095535278,1.0630038976669312,2.423769950866699,101.32052612304688,-64.35824584960938,282.6177978515625
1700075024,1.5712432861328125,0.6446380615234375,-0.455322265625,0.9508947134017944,1.025410771369934,2.402155637741089,101.3546905517578,-64.71553039550781,283.44842529296875
1700075024,1.5889434814453125,0.5868072509765625,-0.404815673828125,1.0658202171325684,1.0219014883041382,2.2778639793396,101.39862060546876,-64.79168701171875,284.23541259765625
1700075024,1.5735321044921875,0.4506988525390625,-0.3698577880859375,1.095287561416626,1.019955277442932,2.150169134140014,101.13760375976562,-64.75709533691406,284.7177734375
1700075024,1.4857330322265625,0.3385772705078125,-0.3529815673828125,1.040951132774353,0.984324038028717,2.116263628005981,100.95982360839844,-65.00193786621094,285.4700622558594
1700075024,1.3529205322265625,0.299041748046875,-0.4047393798828125,0.8200501203536987,0.9360816478729248,2.0623912811279297,101.21865844726562,-64.58360290527344,285.557861328125
1700075024,1.245513916015625,0.283172607421875,-0.472137451171875,0.4729095101356506,0.8824325799942017,1.8598227500915527,101.14582824707033,-64.45648193359375,286.31524658203125
1700075024,1.2125701904296875,0.21856689453125,-0.4686279296875,0.1203591674566268,0.8532688021659851,1.5698416233062744,100.53707885742188,-64.13314819335938,286.0384521484375
1700075024,1.162353515625,0.127166748046875,-0.381988525390625,-0.2061105519533157,0.8447149991989136,1.3389338254928589,100.91873168945312,-63.728546142578125,285.8388061523437
1700075024,1.00701904296875,0.0589752197265625,-0.2982177734375,-0.5449464321136475,0.8356389403343201,1.1908977031707764,101.12716674804688,-63.153839111328125,285.8951416015625
1700075024,0.8129425048828125,0.017486572265625,-0.266876220703125,-0.852825403213501,0.7782880663871765,1.090274453163147,101.31202697753906,-63.10310363769531,286.0643920898437
1700075024,0.6220245361328125,0.0037384033203125,-0.231842041015625,-1.108879566192627,0.7043173909187317,0.8850570917129517,101.24691772460938,-63.47785949707031,285.7109069824219
1700075024,0.511138916015625,-0.020233154296875,-0.196868896484375,-1.3069812059402466,0.6370499730110168,0.6218947172164917,101.1621551513672,-63.4246826171875,285.87481689453125
1700075024,0.448455810546875,0.000579833984375,-0.190887451171875,-1.4209482669830322,0.5932894349098206,0.3594591021537781,101.12188720703124,-62.91819763183594,286.31610107421875
1700075024,0.4130859375,0.0299530029296875,-0.177734375,-1.4591143131256104,0.4982545375823974,0.0675835683941841,100.9532470703125,-62.34565734863281,285.9531555175781
1700075024,0.411590576171875,-0.0027923583984375,-0.1303863525390625,-1.4135433435440063,0.378290057182312,-0.1955796182155609,101.12052917480467,-61.75547790527344,286.5521850585937
1700075024,0.3917083740234375,0.0050811767578125,-0.09698486328125,-1.4262771606445312,0.2590478062629699,-0.450957328081131,100.48728942871094,-61.511474609375,287.072265625
1700075024,0.383148193359375,0.0708770751953125,-0.136077880859375,-1.392735242843628,0.1303345710039138,-0.6486363410949707,100.61509704589844,-61.255859375,286.92431640625
1700075024,0.3413543701171875,0.0809478759765625,-0.1692962646484375,-1.3172281980514526,0.0273445397615432,-0.9265496730804444,100.0648956298828,-60.59678649902344,286.34698486328125
1700075024,0.3204498291015625,0.0048065185546875,-0.12921142578125,-1.2064846754074097,-0.0777129009366035,-1.1715404987335205,100.26919555664062,-60.45521545410156,287.2670288085937
1700075024,0.2725067138671875,-0.00653076171875,-0.104461669921875,-1.0581923723220823,-0.1777923703193664,-1.379436731338501,100.662353515625,-60.316741943359375,286.95770263671875
1700075024,0.2302703857421875,-0.0167388916015625,-0.08197021484375,-0.9411630034446716,-0.2785799503326416,-1.5661461353302002,100.384521484375,-60.19015502929688,286.9661560058594
1700075024,0.1996917724609375,0.0149993896484375,-0.1153106689453125,-0.8378797173500061,-0.3591120839118957,-1.7955702543258667,100.32272338867188,-59.82081604003906,286.8873291015625
1700075024,0.1885986328125,0.0568084716796875,-0.1630859375,-0.7257771492004395,-0.4433646500110626,-2.0332868099212646,100.28829956054688,-59.8848876953125,286.6524658203125
1700075024,0.19549560546875,0.0875396728515625,-0.160430908203125,-0.6324983835220337,-0.532288670539856,-2.24747633934021,100.03068542480467,-59.7579345703125,285.9771423339844
1700075024,0.204925537109375,0.103546142578125,-0.13873291015625,-0.5462018251419067,-0.6165164709091187,-2.409151792526245,100.13035583496094,-59.264007568359375,286.6578369140625
1700075024,0.213043212890625,0.1340484619140625,-0.14306640625,-0.4708820283412933,-0.7157831192016602,-2.5409083366394043,100.17735290527344,-59.24684143066406,286.8924560546875
1700075024,0.21856689453125,0.1868743896484375,-0.127349853515625,-0.4798763394355774,-0.7341147065162659,-2.652282476425171,100.28919982910156,-59.159698486328125,287.1137390136719
1700075024,0.247039794921875,0.237396240234375,-0.1900177001953125,-0.522799551486969,-0.7633269429206848,-2.7065625190734863,99.6352081298828,-59.01185607910156,287.5253601074219
1700075024,0.2626190185546875,0.282958984375,-0.205322265625,-0.6417403221130371,-0.7889952659606934,-2.69191575050354,100.438720703125,-59.09718322753906,286.5678100585937
1700075024,0.2686920166015625,0.334197998046875,-0.2373046875,-0.7531598210334778,-0.8264784812927246,-2.6317386627197266,100.14219665527344,-59.40106201171875,287.0549621582031
1700075024,0.2888336181640625,0.4161834716796875,-0.3081512451171875,-0.8248201608657837,-0.8725895285606384,-2.517190933227539,99.71414184570312,-59.067413330078125,286.89727783203125
1700075024,0.307464599609375,0.536651611328125,-0.356201171875,-0.8664644956588745,-0.8632010817527771,-2.367434501647949,100.20755004882812,-59.016387939453125,286.45416259765625
1700075024,0.3495025634765625,0.667236328125,-0.4214630126953125,-0.775266706943512,-0.8686293959617615,-2.1525142192840576,100.29119873046876,-59.356964111328125,286.88885498046875
1700075024,0.3981781005859375,0.7941436767578125,-0.44879150390625,-0.5634135603904724,-0.8417665958404541,-1.8871721029281616,100.131103515625,-59.50773620605469,286.9176025390625
1700075024,0.42803955078125,0.924591064453125,-0.5346221923828125,-0.3165566325187683,-0.7736397981643677,-1.6284974813461304,100.12692260742188,-59.62110900878906,287.08111572265625
1700075024,0.4545745849609375,1.066986083984375,-0.639678955078125,-0.0304572414606809,-0.6863059401512146,-1.5189146995544434,100.04255676269533,-59.51454162597656,286.6185302734375
1700075024,0.4941253662109375,1.136993408203125,-0.70989990234375,0.1003705486655235,-0.5060756802558899,-1.212819218635559,100.03253173828124,-59.78904724121094,286.9541015625
1700075024,0.4492645263671875,1.271209716796875,-0.781158447265625,0.0256646163761615,-0.4267686307430267,-0.7953778505325317,99.97906494140624,-59.85714721679688,287.06610107421875
1700075024,0.397979736328125,1.458892822265625,-0.7577056884765625,0.0741336122155189,-0.2910717725753784,-0.5635608434677124,99.87083435058594,-60.29945373535156,286.91876220703125
1700075024,0.4495849609375,1.36456298828125,-0.678680419921875,-0.0520956926047802,0.100396379828453,-0.4185477197170257,100.24417114257812,-60.49053955078125,287.65631103515625
1700075024,0.4354248046875,1.1773681640625,-0.8698577880859375,-0.031606663018465,0.6821633577346802,-0.1010296791791915,100.21243286132812,-60.640380859375,287.6068725585937
1700075024,0.2154083251953125,1.17706298828125,-1.4911346435546875,0.3328059315681457,0.7845557928085327,0.3775206506252289,99.86642456054688,-60.775909423828125,286.9499816894531
1700075024,0.2718658447265625,1.3586883544921875,-1.6056976318359375,0.4382471144199371,0.1589086949825287,0.4198569357395172,100.03213500976562,-61.505157470703125,287.1459045410156
1700075024,1.36029052734375,1.2474517822265625,-0.638153076171875,0.3060675263404846,-0.2907639145851135,0.0209409687668085,100.10441589355467,-61.5888671875,287.6261901855469
1700075024,2.01324462890625,0.704132080078125,0.322052001953125,0.4509996771812439,-0.2764790058135986,0.0073886741884052,99.80738830566406,-62.01416015625,287.000732421875
1700075024,1.541961669921875,0.2822418212890625,0.7566070556640625,0.467806875705719,0.0122819663956761,0.4966742098331451,99.9714813232422,-62.30758666992188,287.34307861328125
1700075024,0.992767333984375,0.22161865234375,0.0430908203125,0.2928560972213745,0.028087293729186,0.6867141723632812,100.10279846191406,-62.69340515136719,287.51470947265625
1700075024,1.2847137451171875,0.1878662109375,-0.743743896484375,0.0382821410894393,-0.2595109343528747,0.5844780802726746,99.64492797851562,-62.921234130859375,287.7005615234375
1700075024,1.63446044921875,-0.012115478515625,-0.6391754150390625,-0.1507546305656433,-0.2396820932626724,0.7385587692260742,99.88438415527344,-63.18473815917969,288.13385009765625
1700075024,1.1958770751953125,-0.12286376953125,-0.375701904296875,-0.1710574924945831,0.0640844404697418,0.8387340903282166,99.83285522460938,-63.49909973144531,288.18475341796875
1700075024,0.62652587890625,-0.0343475341796875,-0.490142822265625,0.0510248355567455,0.0210285857319831,0.7907788157463074,99.86418151855467,-63.586669921875,288.4403076171875
1700075024,0.525299072265625,0.3229827880859375,-0.5196990966796875,0.0880528911948204,-0.107252150774002,0.5548411011695862,99.8577117919922,-64.14935302734375,288.27703857421875
1700075024,0.72857666015625,0.6329498291015625,-0.3274078369140625,-0.1314914524555206,-0.0147320739924907,0.2250056862831115,99.7982940673828,-64.36915588378906,288.15771484375
1700075024,0.8684234619140625,0.8071441650390625,-0.28985595703125,-0.279661476612091,0.0614465810358524,-0.1314331293106079,99.6666259765625,-64.59600830078125,287.8760986328125
1700075024,1.052642822265625,0.6763153076171875,-0.3267059326171875,-0.1826246678829193,0.0518570728600025,-0.2974860072135925,99.59098815917967,-64.79779052734375,288.642822265625
1700075024,1.1225433349609375,0.3394012451171875,-0.38616943359375,-0.0570462420582771,-0.0348828844726085,-0.2134379744529724,99.86433410644533,-65.17489624023438,288.67889404296875
1700075024,1.007843017578125,0.1732635498046875,-0.4449005126953125,-0.091737113893032,-0.0970876663923263,-0.0845300629734993,99.84025573730467,-65.16548156738281,288.7008972167969
1700075024,0.9122161865234376,0.105438232421875,-0.4665985107421875,-0.2352716326713562,-0.117689348757267,-0.0552169159054756,99.86338806152344,-65.65530395507812,288.20391845703125
1700075024,0.873992919921875,0.11279296875,-0.4725799560546875,-0.2942699790000915,-0.1302525401115417,-0.0831529423594474,99.99459838867188,-65.61093139648438,288.85845947265625
1700075024,0.9188385009765624,0.17962646484375,-0.45916748046875,-0.2039027959108352,-0.1732178479433059,-0.1300128549337387,99.44081115722656,-65.8779296875,288.28582763671875
1700075024,0.9907379150390624,0.2386322021484375,-0.4478607177734375,-0.0794817730784416,-0.2408613413572311,-0.1727893501520156,99.92593383789062,-66.07391357421875,288.72076416015625
1700075024,1.0054473876953125,0.286712646484375,-0.4492950439453125,-0.0372751988470554,-0.3062576651573181,-0.2398376315832138,99.82774353027344,-66.11048889160156,288.999755859375
1700075024,0.9876556396484376,0.3097076416015625,-0.4552459716796875,-0.034165158867836,-0.3537341058254242,-0.3314873874187469,99.60971069335938,-66.39411926269531,288.73944091796875
1700075024,0.96405029296875,0.303741455078125,-0.44757080078125,-0.0153334159404039,-0.3916961252689361,-0.4013152122497558,99.59504699707033,-66.361083984375,289.1579895019531
1700075024,0.9388427734375,0.2902679443359375,-0.4296112060546875,-0.0027286747936159,-0.4198910295963287,-0.4519815742969513,99.34939575195312,-66.193115234375,288.62652587890625
1700075024,0.9251708984375,0.271270751953125,-0.409881591796875,-0.0111229587346315,-0.4331578314304352,-0.4951764643192291,99.54701232910156,-66.27912902832031,288.6982116699219
1700075024,0.9251708984375,0.2418212890625,-0.4007568359375,-0.0261208172887563,-0.42861208319664,-0.5138462781906128,99.66600036621094,-66.13027954101562,289.0337219238281
1700075024,0.919586181640625,0.2140960693359375,-0.3901824951171875,-0.031764056533575,-0.4196627736091614,-0.5236645340919495,99.56900024414062,-66.14456176757812,289.20977783203125
1700075024,0.91107177734375,0.1915130615234375,-0.381622314453125,-0.0271759610623121,-0.413595050573349,-0.525706946849823,99.40583801269533,-65.59950256347656,289.2411804199219
1700075024,0.9084625244140624,0.1778411865234375,-0.3697357177734375,-0.0302998479455709,-0.3941137492656708,-0.5353651642799377,99.70915222167967,-65.87289428710938,289.5457763671875
1700075024,0.9244232177734376,0.168212890625,-0.36077880859375,-0.000851945253089,-0.3684360980987549,-0.5352780818939209,99.43605041503906,-65.73329162597656,289.0762939453125
1700075024,0.9336395263671876,0.17333984375,-0.36279296875,0.0751200541853904,-0.3706939220428467,-0.5320708155632019,99.19813537597656,-65.47407531738281,289.4798889160156
1700075024,0.9349822998046876,0.1939544677734375,-0.3673553466796875,0.1085384637117385,-0.397009402513504,-0.556709349155426,99.3603973388672,-65.16954040527344,289.52587890625
1700075024,0.9420166015625,0.2064208984375,-0.358673095703125,0.1054995283484458,-0.406312882900238,-0.5938494801521301,99.3179931640625,-64.81895446777344,289.4183349609375
1700075024,0.9407501220703124,0.20794677734375,-0.3636627197265625,0.1011596396565437,-0.4152155816555023,-0.615001380443573,99.47293090820312,-64.81318664550781,289.44207763671875
1700075025,0.933319091796875,0.206207275390625,-0.367095947265625,0.1105036064982414,-0.4445484280586242,-0.6321305632591248,99.1340789794922,-64.19192504882812,289.42657470703125
1700075025,0.9335784912109376,0.186614990234375,-0.350250244140625,0.0841987654566764,-0.4451290071010589,-0.629942774772644,99.38856506347656,-63.96987915039063,288.91259765625
1700075025,0.935028076171875,0.163360595703125,-0.359710693359375,0.067254401743412,-0.4521107375621795,-0.6217929720878601,99.1990203857422,-63.94450378417969,288.8277587890625
1700075025,0.9190673828125,0.134979248046875,-0.360565185546875,0.0265005826950073,-0.4604735970497131,-0.5926153659820557,99.05897521972656,-63.96159362792969,289.4374694824219
1700075025,0.8985595703125,0.131378173828125,-0.3403472900390625,-0.0175443720072507,-0.4456880092620849,-0.5683084726333618,98.98431396484376,-63.20359802246094,289.59344482421875
1700075025,0.899688720703125,0.11102294921875,-0.306304931640625,-0.0594276413321495,-0.405679315328598,-0.5562903881072998,99.06362915039062,-62.73873901367188,289.5118408203125
1700075025,0.9127044677734376,0.0815582275390625,-0.2858428955078125,-0.0559564754366874,-0.3763728439807892,-0.5391095280647278,98.8924560546875,-62.33985900878906,289.33026123046875
1700075025,0.927703857421875,0.0560302734375,-0.2926788330078125,-0.0350133776664733,-0.3808565437793731,-0.4881196022033691,98.37442016601562,-62.69841003417969,289.767578125
1700075025,0.931884765625,0.0479278564453125,-0.3108978271484375,0.0103274723514914,-0.3859221339225769,-0.4452517628669739,98.26809692382812,-62.34260559082031,289.3601989746094
1700075025,0.925201416015625,0.05499267578125,-0.3425445556640625,0.0577727518975734,-0.4166552722454071,-0.4331162869930267,98.28280639648438,-62.56439208984375,289.82928466796875
1700075025,0.9110565185546876,0.0660247802734375,-0.322265625,0.0202437527477741,-0.4237688481807709,-0.4203898310661316,98.24246215820312,-62.0863037109375,289.678466796875
1700075025,0.9208984375,0.0906829833984375,-0.2931060791015625,-0.017001885920763,-0.3639750182628631,-0.4139614999294281,97.56483459472656,-62.04933166503906,290.17333984375
1700075025,0.9485931396484376,0.1024017333984375,-0.2800140380859375,0.0450534932315349,-0.3328562378883362,-0.3830533623695373,97.5847625732422,-61.96595764160156,290.2518310546875
1700075025,0.9698638916015624,0.0789947509765625,-0.2427215576171875,0.1846252381801605,-0.3177289664745331,-0.3395972549915313,97.64144897460938,-61.876861572265625,290.5604553222656
1700075025,0.9804229736328124,0.02972412109375,-0.2252349853515625,0.2407806515693664,-0.3005638122558594,-0.2972029149532318,97.32965087890624,-61.531097412109375,290.41705322265625
1700075025,0.955841064453125,0.0083770751953125,-0.2525482177734375,0.1898977607488632,-0.2823861539363861,-0.2453101575374603,96.7359619140625,-61.312591552734375,290.7826232910156
1700075025,0.92730712890625,0.0168914794921875,-0.26605224609375,0.1306576132774353,-0.2460353374481201,-0.2096632122993469,96.78602600097656,-61.08763122558594,291.1341552734375
1700075025,0.9245758056640624,0.0183868408203125,-0.2656097412109375,0.1048691570758819,-0.2236067205667495,-0.1840673089027404,96.69287109375,-60.220062255859375,291.75152587890625
1700075025,0.9402313232421876,-0.0081787109375,-0.273223876953125,0.0765160769224166,-0.2108898609876632,-0.1120405197143554,96.40597534179688,-59.61834716796875,291.2119140625
1700075025,0.9516448974609376,0.0061798095703125,-0.2644195556640625,0.1329585760831833,-0.2146643698215484,-0.0685481652617454,95.51870727539062,-58.402099609375,291.1010131835937
1700075025,0.941986083984375,-0.000335693359375,-0.23297119140625,0.1702881157398224,-0.1916533261537552,-0.0354360230267047,95.35032653808594,-57.212188720703125,291.05615234375
1700075025,0.9227142333984376,0.027618408203125,-0.2400054931640625,0.162118598818779,-0.1714689582586288,-0.0075780246406793,95.21018981933594,-56.17863464355469,290.2498779296875
1700075025,0.91522216796875,0.0390167236328125,-0.246124267578125,0.1327561885118484,-0.1562138348817825,0.025004418566823,94.73942565917967,-54.66307067871094,289.9022216796875
1700075025,0.931396484375,0.0318756103515625,-0.239593505859375,0.0979665070772171,-0.1285718232393264,0.070388413965702,94.25373840332033,-53.27299499511719,289.2064208984375
1700075025,0.95709228515625,0.0099639892578125,-0.24029541015625,0.0991204604506492,-0.1163870617747306,0.1225493550300598,93.91194152832033,-52.02210998535156,288.68121337890625
1700075025,0.976531982421875,-0.01202392578125,-0.246337890625,0.1270197331905365,-0.1144432201981544,0.190844789147377,93.14817810058594,-50.737884521484375,288.11212158203125
1700075025,0.9788360595703124,-0.00616455078125,-0.231597900390625,0.0826866254210472,-0.1126154959201812,0.2547960579395294,92.83595275878906,-49.66941833496094,287.6314697265625
1700075025,0.9910125732421876,0.0215911865234375,-0.2228851318359375,-0.0140990410000085,-0.0885122865438461,0.2999963164329529,92.11314392089844,-48.78721618652344,287.2699584960937
1700075025,1.0081787109375,0.012725830078125,-0.2274627685546875,-0.0153967989608645,-0.0572326630353927,0.3588609397411346,91.90481567382812,-47.98637390136719,286.86199951171875
1700075025,1.024444580078125,-0.0269927978515625,-0.234161376953125,0.0440433584153652,-0.043709397315979,0.4436386823654175,91.21127319335938,-47.01820373535156,286.549560546875
1700075025,1.044769287109375,-0.06951904296875,-0.21697998046875,0.0865657851099968,-0.024036094546318,0.5700206160545349,90.30517578125,-46.250762939453125,285.826171875
1700075025,1.03900146484375,-0.0673065185546875,-0.2021636962890625,0.071670725941658,-0.0145850675180554,0.6715762615203857,89.6199951171875,-45.45362854003906,285.57489013671875
1700075025,1.058990478515625,-0.042327880859375,-0.199127197265625,0.0908119305968284,-0.0048269792459905,0.7446587085723877,89.1982421875,-45.35102844238281,285.23114013671875
1700075025,1.1068115234375,-0.0054168701171875,-0.2147064208984375,0.1450551897287368,-0.0398701839148998,0.805983304977417,88.38720703125,-44.64350891113281,285.4591064453125
1700075025,1.1851348876953125,0.0436859130859375,-0.1967010498046875,0.2141359895467758,-0.0755272507667541,0.8402214646339417,87.73237609863281,-44.0592041015625,284.99053955078125
1700075025,1.30328369140625,0.066741943359375,-0.1465301513671875,0.2705247104167938,-0.0953725948929786,0.8518120646476746,86.86177062988281,-43.42747497558594,283.8040771484375
1700075025,1.3973846435546875,0.081268310546875,-0.1594390869140625,0.307907223701477,-0.1301135271787643,0.8487020134925842,86.41450500488281,-42.884307861328125,283.63916015625
1700075025,1.4716644287109375,0.0848846435546875,-0.1768646240234375,0.3742982447147369,-0.1668078899383545,0.8431581258773804,85.94499206542969,-42.47831726074219,282.58306884765625
1700075025,1.528228759765625,0.0604400634765625,-0.134246826171875,0.4844127595424652,-0.172745406627655,0.8293735980987549,85.44203186035156,-41.748626708984375,281.2319030761719
1700075025,1.5431365966796875,0.0287322998046875,-0.0633392333984375,0.5756361484527588,-0.1901358515024185,0.8336343765258789,84.8177490234375,-41.2955322265625,281.2039794921875
1700075025,1.5254669189453125,0.01422119140625,0.016448974609375,0.6512563228607178,-0.217348039150238,0.837349534034729,84.26051330566406,-40.7452392578125,280.02703857421875
1700075025,1.5034942626953125,-0.024627685546875,0.0493316650390625,0.7740986347198486,-0.2918158769607544,0.828172504901886,83.89308166503906,-40.95301818847656,278.5757141113281
1700075025,1.51416015625,-0.097747802734375,0.122222900390625,0.834522008895874,-0.3261125981807709,0.8788822889328003,83.60655212402344,-40.414154052734375,278.0551147460937
1700075025,1.5175628662109375,-0.135589599609375,0.1622772216796875,0.7582852840423584,-0.2837885618209839,0.9454399943351746,83.56355285644531,-40.39344787597656,276.86407470703125
1700075025,1.5041046142578125,-0.1691741943359375,0.1027069091796875,0.6205825805664062,-0.2341240793466568,0.9493588805198668,83.20855712890625,-39.97642517089844,275.9595947265625
1700075025,1.461273193359375,-0.237884521484375,0.0112152099609375,0.4045879542827606,-0.0868792384862899,0.9324933290481568,83.23641967773438,-39.96453857421875,275.0936279296875
1700075025,1.30120849609375,-0.2971343994140625,-0.18798828125,0.0668227076530456,0.0860664397478103,0.976775288581848,83.60813903808594,-39.7606201171875,275.15850830078125
1700075025,1.0924530029296875,-0.296539306640625,-0.4169158935546875,-0.3271791934967041,0.3237269222736358,1.2181484699249268,83.38822937011719,-39.56382751464844,274.4008178710937
1700075025,0.935455322265625,-0.175018310546875,-0.69281005859375,-0.7459591627120972,0.4050723910331726,1.5502135753631592,83.71353149414062,-40.42720031738281,273.3238525390625
1700075025,0.944671630859375,-0.021636962890625,-0.84320068359375,-1.0711462497711182,0.523323655128479,1.7791074514389038,84.35565185546875,-40.2362060546875,272.71392822265625
1700075025,1.085479736328125,0.04449462890625,-0.896820068359375,-1.2416837215423584,0.6590396761894226,1.9897496700286863,84.44380187988281,-40.72720336914063,272.0295104980469
1700075025,1.1675872802734375,0.188934326171875,-0.91796875,-1.123546123504639,0.6332658529281616,2.2492377758026123,84.77999877929688,-41.02755737304688,272.1347045898437
1700075025,1.1732177734375,0.3944549560546875,-0.814178466796875,-0.8140715956687927,0.578453779220581,2.420729160308838,85.32626342773438,-41.522369384765625,271.745849609375
1700075025,1.2094268798828125,0.5258331298828125,-0.6365203857421875,-0.4458994567394256,0.7403861880302429,2.4366486072540283,86.20535278320312,-42.317962646484375,271.58746337890625
1700075025,1.27935791015625,0.633636474609375,-0.4855499267578125,-0.021491976454854,1.034616470336914,2.422535419464112,86.93951416015625,-42.38920593261719,271.4743957519531
1700075025,1.3387298583984375,0.7858734130859375,-0.3864593505859375,0.3506799936294555,1.1521074771881104,2.381483793258667,87.64610290527344,-43.07826232910156,272.2032470703125
1700075025,1.4253692626953125,0.9132843017578124,-0.3172454833984375,0.6372819542884827,1.1695945262908936,2.229172706604004,88.34046936035156,-43.89588928222656,271.770751953125
1700075025,1.5145263671875,0.8831329345703125,-0.3444671630859375,1.031180500984192,1.2326483726501465,2.034362554550171,88.73600769042969,-44.65803527832031,271.6790771484375
1700075025,1.4665679931640625,0.6441497802734375,-0.4105682373046875,1.467219591140747,1.3310612440109253,1.9006484746932983,89.46522521972656,-45.08172607421875,272.47467041015625
1700075025,1.3561553955078125,0.44805908203125,-0.476318359375,1.7105693817138672,1.316461443901062,1.920696496963501,90.36544799804688,-45.71923828125,272.2017822265625
1700075025,1.3068084716796875,0.387115478515625,-0.5168304443359375,1.6679319143295288,1.1721152067184448,2.030226945877075,90.71510314941406,-46.81639099121094,272.2572326660156
1700075025,1.285430908203125,0.3437042236328125,-0.534820556640625,1.4400454759597778,1.0515507459640503,2.0706686973571777,91.11708068847656,-46.79374694824219,272.2996520996094
1700075025,1.275054931640625,0.2611846923828125,-0.5631256103515625,1.1686617136001587,0.9541040658950806,2.032814741134644,91.74900817871094,-47.29896545410156,272.8619384765625
1700075025,1.2546539306640625,0.18511962890625,-0.5088958740234375,0.8577383756637573,0.876139760017395,1.9842920303344729,92.17666625976562,-48.08290100097656,273.31719970703125
1700075025,1.1747283935546875,0.1649017333984375,-0.45135498046875,0.5204368233680725,0.8368858695030212,1.9176315069198608,92.98538208007812,-48.6142578125,273.6156616210937
1700075025,1.06109619140625,0.17059326171875,-0.4371795654296875,0.1699709296226501,0.8164365291595459,1.8240472078323364,93.14601135253906,-48.783294677734375,273.7745056152344
1700075025,0.9628448486328124,0.1894989013671875,-0.4070281982421875,-0.162373200058937,0.7967740893363953,1.6333625316619873,93.62702941894533,-49.254791259765625,274.022216796875
1700075025,0.9132843017578124,0.182281494140625,-0.3750457763671875,-0.4861368834972381,0.7441228628158569,1.3581115007400513,93.41014099121094,-48.95579528808594,274.3967590332031
1700075025,0.90350341796875,0.148468017578125,-0.330841064453125,-0.7907372713088989,0.6693639755249023,1.0546658039093018,93.64396667480467,-49.25752258300781,274.8034973144531
1700075025,0.86029052734375,0.099945068359375,-0.2661590576171875,-0.9667586088180542,0.596839427947998,0.8089309334754944,94.19436645507812,-49.19610595703125,274.7325744628906
1700075025,0.7337188720703125,0.0587310791015625,-0.176605224609375,-1.071747064590454,0.532221794128418,0.5895079970359802,94.30528259277344,-48.94126892089844,274.34503173828125
1700075025,0.585174560546875,0.0182342529296875,-0.1180572509765625,-1.1153388023376465,0.4685283303260803,0.3633467853069305,94.5979461669922,-48.7467041015625,274.3866271972656
1700075025,0.461578369140625,-0.0228729248046875,-0.09515380859375,-1.1036888360977173,0.4029754102230072,0.1495873630046844,94.37692260742188,-48.77838134765625,274.44384765625
1700075025,0.3929443359375,-0.0163116455078125,-0.11993408203125,-1.0739657878875732,0.3217487335205078,-0.0429165735840797,94.8179168701172,-48.9796142578125,274.8751525878906
1700075025,0.380523681640625,0.0368499755859375,-0.1881866455078125,-1.0600560903549194,0.2268019914627075,-0.26326784491539,94.7897491455078,-48.89485168457031,275.4435119628906
1700075025,0.408935546875,0.0821685791015625,-0.2300262451171875,-1.0441783666610718,0.1501940339803695,-0.5524687767028809,94.40583801269533,-48.62046813964844,275.33258056640625
1700075025,0.4568023681640625,0.082183837890625,-0.20654296875,-1.03983473777771,0.1003335267305374,-0.8285994529724121,94.63067626953124,-48.103057861328125,275.3441772460937
1700075025,0.4457855224609375,0.0487823486328125,-0.164794921875,-1.062573790550232,0.0515111275017261,-1.0724464654922483,94.27403259277344,-47.84982299804688,275.79052734375
1700075025,0.3952789306640625,0.0362091064453125,-0.183563232421875,-1.0376743078231812,-0.0433232374489307,-1.1928471326828003,93.8389129638672,-47.63052368164063,275.477783203125
1700075025,0.286376953125,0.0037078857421875,-0.1970672607421875,-1.011916995048523,-0.0991942286491394,-1.2949447631835938,93.8415069580078,-47.61225891113281,275.4022827148437
1700075025,0.2157135009765625,-0.030975341796875,-0.2297515869140625,-1.044784665107727,-0.1669442504644394,-1.5076178312301636,93.80294799804688,-47.34454345703125,275.4005126953125
1700075025,0.226470947265625,0.001434326171875,-0.2360992431640625,-1.0638388395309448,-0.2386905997991562,-1.7253470420837402,93.67266845703124,-47.26017761230469,274.98150634765625
1700075025,0.2358245849609375,0.0530548095703125,-0.2059326171875,-1.0251891613006592,-0.3127240836620331,-1.914406418800354,93.53688049316406,-46.93577575683594,275.44976806640625
1700075025,0.210601806640625,0.097625732421875,-0.1645050048828125,-0.9407328963279724,-0.3920780420303345,-2.1015546321868896,93.3705596923828,-46.71710205078125,275.441162109375
1700075025,0.210693359375,0.13360595703125,-0.1669921875,-0.8645052313804626,-0.4564405083656311,-2.28290057182312,93.72970581054688,-46.845123291015625,275.4046325683594
1700075025,0.2218475341796875,0.1576690673828125,-0.1904449462890625,-0.7984108924865723,-0.5480159521102905,-2.433931589126587,93.84098815917967,-47.28846740722656,275.7526550292969
1700075025,0.2257843017578125,0.18743896484375,-0.1851959228515625,-0.7726727724075317,-0.5845156311988831,-2.5754051208496094,93.7737274169922,-47.5394287109375,275.2164001464844
1700075025,0.2546844482421875,0.2295379638671875,-0.235382080078125,-0.6469963192939758,-0.6537301540374756,-2.6329658031463623,93.78370666503906,-46.972991943359375,275.426513671875
1700075025,0.2778167724609375,0.321929931640625,-0.23077392578125,-0.5732254385948181,-0.6647790670394897,-2.649312973022461,93.86863708496094,-46.72325134277344,275.8798828125
1700075025,0.2943878173828125,0.4129486083984375,-0.2487945556640625,-0.569494366645813,-0.6592258214950562,-2.614314317703247,93.77828979492188,-47.13742065429688,275.23974609375
1700075025,0.322723388671875,0.5038299560546875,-0.296783447265625,-0.6099948883056641,-0.6545423865318298,-2.500641345977783,93.69132995605467,-46.945159912109375,275.46942138671875
1700075025,0.3398284912109375,0.5899200439453125,-0.3502960205078125,-0.6122045516967773,-0.651464581489563,-2.289433479309082,93.81976318359376,-46.98554992675781,275.15509033203125
1700075025,0.340179443359375,0.6699676513671875,-0.4074554443359375,-0.5326175689697266,-0.6332032680511475,-2.0256476402282715,93.94129943847656,-47.23663330078125,275.34820556640625
1700075025,0.342071533203125,0.7945404052734375,-0.4951629638671875,-0.3779979050159454,-0.5912055373191833,-1.763175368309021,93.82803344726562,-47.375244140625,275.3929138183594
1700075025,0.3618927001953125,0.979522705078125,-0.6288909912109375,-0.1550207436084747,-0.5018500685691833,-1.6924731731414795,93.61109924316406,-47.7630615234375,275.92431640625
1700075025,0.4167938232421875,1.0952911376953125,-0.7500457763671875,-0.0123874275013804,-0.3601861298084259,-1.5392261743545532,93.5906982421875,-47.96206665039063,275.90985107421875
1700075025,0.437164306640625,1.20086669921875,-0.8093719482421875,0.0340612977743148,-0.321885347366333,-1.2269552946090698,94.08106994628906,-47.83634948730469,276.2200927734375
1700075025,0.389556884765625,1.3934478759765625,-0.7486419677734375,0.2825938761234283,-0.2350306212902069,-1.0283915996551514,94.52102661132812,-48.2093505859375,276.0494384765625
1700075025,0.4189300537109375,1.338287353515625,-0.621826171875,0.5925341844558716,-0.085776686668396,-0.8038703799247742,94.5506591796875,-48.40397644042969,275.91943359375
1700075026,0.3714447021484375,1.2458953857421875,-0.6219635009765625,0.6316775679588318,0.0245918948203325,-0.5975614190101624,94.27018737792967,-48.545989990234375,276.5277099609375
1700075026,0.3380889892578125,1.162200927734375,-0.6312103271484375,0.2233950048685073,0.5801440477371216,-0.4903441369533539,94.549072265625,-48.55465698242188,276.30535888671875
1700075026,0.316619873046875,1.0020751953125,-1.0745086669921875,0.3113999664783478,0.871500551700592,-0.1248609721660614,94.66946411132812,-48.714630126953125,276.380615234375
1700075026,0.1989898681640625,1.1130828857421875,-1.457916259765625,0.6966075897216797,0.196598544716835,0.2265311479568481,94.56199645996094,-49.161865234375,276.18731689453125
1700075026,0.9698944091796876,1.2607269287109375,-0.597869873046875,0.2738462090492248,-0.3070784509181976,0.0149208921939134,94.66249084472656,-49.18617248535156,276.4404296875
1700075026,1.912811279296875,0.9833526611328124,0.1944580078125,0.0483281165361404,-0.3115379214286804,-0.1192792579531669,94.85467529296876,-49.236602783203125,276.45428466796875
1700075026,1.8206634521484373,0.6158294677734375,0.5796356201171875,0.0778085142374038,-0.1387437731027603,0.244247019290924,94.91262817382812,-49.52630615234375,276.1959228515625
1700075026,1.0977020263671875,0.427215576171875,0.21142578125,-0.0610242038965225,-0.1940648108720779,0.281945139169693,94.93777465820312,-49.922943115234375,276.27752685546875
1700075026,0.9203338623046876,0.213897705078125,-0.4673004150390625,-0.297408789396286,-0.2453559637069702,0.1935827881097793,94.83694458007812,-50.12129211425781,276.68951416015625
1700075026,0.9898834228515624,0.0895538330078125,-0.7530670166015625,-0.258971631526947,-0.2838495671749115,0.1613175123929977,95.07493591308594,-50.27058410644531,276.8294677734375
1700075026,1.006011962890625,-0.0445404052734375,-0.6801910400390625,-0.068458154797554,-0.1886649876832962,0.2161341607570648,95.4359893798828,-50.43568420410156,277.1754455566406
1700075026,1.127044677734375,-0.169677734375,-0.5977783203125,0.1711552441120147,-0.1743856519460678,0.4757497608661651,95.19447326660156,-50.64154052734375,277.5238952636719
1700075026,1.124053955078125,-0.0173797607421875,-0.3560943603515625,0.1280226856470108,-0.1483894735574722,0.560610294342041,95.33233642578124,-50.49955749511719,277.6664123535156
1700075026,1.0284881591796875,0.3875274658203125,-0.2539825439453125,-0.0093799196183681,-0.1457390934228897,0.4135620296001434,95.53887939453124,-50.858642578125,277.5062255859375
1700075026,0.9863128662109376,0.7134246826171875,-0.2436676025390625,-0.2321288436651229,-0.104298710823059,0.0610359236598014,95.26164245605467,-50.91197204589844,277.42236328125
1700075026,1.0153656005859375,0.7523651123046875,-0.3322296142578125,-0.263008713722229,-0.0872411653399467,-0.2430539280176162,95.45413208007812,-51.61343383789063,277.6697998046875
1700075026,1.0656280517578125,0.5624237060546875,-0.384033203125,-0.1599103063344955,-0.0706035941839218,-0.3419091403484344,95.63127136230467,-51.428955078125,277.7460327148437
1700075026,0.983795166015625,0.2942962646484375,-0.4254913330078125,-0.0208070110529661,-0.0663611814379692,-0.2598552703857422,95.71221923828124,-51.568389892578125,277.6519775390625
1700075026,0.8672332763671875,0.107208251953125,-0.4100799560546875,-0.0968953892588615,-0.0715918913483619,-0.1827887296676635,96.03546142578124,-51.89375305175781,277.7481689453125
1700075026,0.881103515625,0.0674896240234375,-0.408447265625,-0.2866986095905304,-0.0716643333435058,-0.1753627657890319,95.81048583984376,-52.13177490234375,277.9561767578125
1700075026,0.916229248046875,0.133880615234375,-0.444793701171875,-0.326734185218811,-0.0810588970780372,-0.2121018767356872,95.89288330078124,-52.36099243164063,278.1852111816406
1700075026,0.9050750732421876,0.2056884765625,-0.457275390625,-0.2659336626529693,-0.1164222136139869,-0.2582299411296844,95.85501098632812,-52.29167175292969,278.310791015625
1700075026,0.934417724609375,0.23388671875,-0.433868408203125,-0.1848888993263244,-0.1671181470155716,-0.3035809099674225,95.84523010253906,-52.61878967285156,278.300048828125
1700075026,0.982452392578125,0.241973876953125,-0.4349365234375,-0.1039287969470024,-0.2360993474721908,-0.3461853861808777,96.25634765625,-52.27296447753906,278.339599609375
1700075026,0.9929656982421876,0.2425384521484375,-0.476837158203125,-0.0519529469311237,-0.3346115350723266,-0.3751999735832214,95.8925323486328,-52.516204833984375,278.1434326171875
1700075026,0.9682159423828124,0.2409210205078125,-0.497802734375,-0.0522416345775127,-0.4241989552974701,-0.4006856381893158,95.9553680419922,-52.65110778808594,278.57733154296875
1700075026,0.930511474609375,0.2404022216796875,-0.4976348876953125,-0.0678773149847984,-0.4935567080974579,-0.4306738972663879,95.6538543701172,-52.80348205566406,278.776611328125
1700075026,0.907196044921875,0.2355194091796875,-0.4778900146484375,-0.107773870229721,-0.5457160472869873,-0.4640001654624939,95.30313110351562,-52.65753173828125,278.68115234375
1700075026,0.91741943359375,0.2233428955078125,-0.441680908203125,-0.1299750506877899,-0.5666868686676025,-0.4902682602405548,95.47100830078124,-52.355224609375,278.6764831542969
1700075026,0.9318389892578124,0.1975555419921875,-0.4144439697265625,-0.1276548951864242,-0.5652753710746765,-0.4875712692737579,95.7827606201172,-53.09602355957031,278.7021179199219
1700075026,0.930938720703125,0.1837310791015625,-0.393310546875,-0.15581676363945,-0.5703375339508057,-0.4833410978317261,96.3197021484375,-52.7454833984375,278.6669311523437
1700075026,0.9464569091796876,0.17401123046875,-0.3780059814453125,-0.1861128807067871,-0.5526431798934937,-0.493358314037323,95.48934936523438,-52.36625671386719,278.80877685546875
1700075026,0.96099853515625,0.1645050048828125,-0.3553009033203125,-0.1742828488349914,-0.5227662920951843,-0.5043483972549438,95.4529266357422,-52.26608276367188,278.9732666015625
1700075026,0.9510650634765624,0.163238525390625,-0.3466949462890625,-0.1295505315065384,-0.4965647459030151,-0.5068749189376831,95.35255432128906,-52.528350830078125,278.8555908203125
1700075026,0.9298858642578124,0.1740875244140625,-0.3584442138671875,-0.1195285245776176,-0.4875374436378479,-0.5236232876777649,95.36483764648438,-52.25434875488281,278.91656494140625
1700075026,0.935699462890625,0.190948486328125,-0.3449249267578125,-0.129890888929367,-0.4702023863792419,-0.5741333365440369,95.16392517089844,-52.223480224609375,279.09381103515625
1700075026,0.9569854736328124,0.19635009765625,-0.3208160400390625,-0.1129185631871223,-0.4502923190593719,-0.6159532070159912,95.12481689453124,-51.79165649414063,278.4023742675781
1700075026,0.950042724609375,0.20196533203125,-0.3194580078125,-0.0631547346711158,-0.4383698999881744,-0.643987238407135,95.02113342285156,-51.786041259765625,278.1591796875
1700075026,0.945526123046875,0.190155029296875,-0.3366851806640625,0.0374768003821373,-0.4522865116596222,-0.6656216979026794,94.78924560546876,-51.25628662109375,279.0628662109375
1700075026,0.9449005126953124,0.182830810546875,-0.3399810791015625,0.0673915594816207,-0.4757116734981537,-0.6755470037460327,94.65435791015624,-51.12754821777344,278.9254150390625
1700075026,0.9343719482421876,0.18231201171875,-0.3433990478515625,-0.0037140443455427,-0.4808768630027771,-0.6958981156349182,94.37574768066406,-50.87879943847656,278.6908569335937
1700075026,0.941650390625,0.1483612060546875,-0.3486480712890625,-0.089210033416748,-0.4699824154376983,-0.6804304718971252,94.28167724609376,-51.03765869140625,278.8297119140625
1700075026,0.9454803466796876,0.101959228515625,-0.3510589599609375,-0.1258354187011718,-0.458651453256607,-0.6315366625785828,94.0002899169922,-50.0595703125,279.00982666015625
1700075026,0.931915283203125,0.0517425537109375,-0.31939697265625,-0.1326009184122085,-0.4526825249195099,-0.5849249958992004,93.7389678955078,-50.10353088378906,278.7428283691406
1700075026,0.9138336181640624,0.021453857421875,-0.2948455810546875,-0.1469617486000061,-0.4349413514137268,-0.5398133993148804,93.02101135253906,-49.82469177246094,278.8475341796875
1700075026,0.8970489501953125,0.0241241455078125,-0.3058013916015625,-0.1470672041177749,-0.428202748298645,-0.5354593992233276,93.15841674804688,-49.91819763183594,278.8436889648437
1700075026,0.8944091796875,0.0285491943359375,-0.3067474365234375,-0.1394226104021072,-0.4115393459796905,-0.5127615928649902,92.73054504394533,-49.73602294921875,279.4599304199219
1700075026,0.9028778076171876,0.0446929931640625,-0.296051025390625,-0.1442916691303253,-0.3874268233776092,-0.4870040118694305,92.43089294433594,-49.69854736328125,279.3529968261719
1700075026,0.924468994140625,0.0631561279296875,-0.2816009521484375,-0.0987609326839447,-0.355623334646225,-0.4627295732498169,92.34915161132812,-49.7445068359375,279.625
1700075026,0.955535888671875,0.0494232177734375,-0.2660675048828125,0.0200549345463514,-0.3280543088912964,-0.4397174417972564,91.8750457763672,-49.5732421875,279.96533203125
1700075026,0.9739990234375,0.019561767578125,-0.2318267822265625,0.0638729855418205,-0.2926939129829407,-0.3728238940238952,91.70271301269533,-49.42671203613281,279.7435913085937
1700075026,0.97613525390625,0.031982421875,-0.2448577880859375,0.1367333531379699,-0.2781565189361572,-0.3195979595184326,91.43011474609376,-48.922210693359375,279.806884765625
1700075026,0.9476470947265624,0.0026397705078125,-0.2481536865234375,0.1790600270032882,-0.2671981453895569,-0.2698599696159363,91.00917053222656,-49.11174011230469,279.513427734375
1700075026,0.9226837158203124,-0.03375244140625,-0.2418975830078125,0.1258495450019836,-0.2413601577281952,-0.1830529123544693,90.87078857421876,-48.311920166015625,279.5550231933594
1700075026,0.896759033203125,-0.0331573486328125,-0.2794647216796875,0.0828887596726417,-0.2019565552473068,-0.0762036889791488,90.07290649414062,-47.6451416015625,278.8731994628906
1700075026,0.896484375,-0.0362091064453125,-0.286895751953125,0.1873195618391037,-0.1930426955223083,-0.0625267624855041,89.67420959472656,-47.11322021484375,278.4368896484375
1700075026,0.9335784912109376,-0.114990234375,-0.2186737060546875,0.2297759354114532,-0.1592589020729065,-0.0090462258085608,89.1702880859375,-46.241973876953125,277.543212890625
1700075026,0.9509735107421876,-0.1303863525390625,-0.204376220703125,0.1501458287239074,-0.1260157227516174,0.0906785055994987,88.55421447753906,-46.08953857421875,276.6614685058594
1700075026,0.942352294921875,-0.1140594482421875,-0.216400146484375,0.0746252387762069,-0.0995809212327003,0.1848659962415695,87.99137878417969,-45.28062438964844,276.3009948730469
1700075026,0.935302734375,-0.121063232421875,-0.24676513671875,0.0176660791039466,-0.0944729745388031,0.2694983184337616,87.36103820800781,-44.50537109375,275.836669921875
1700075026,0.9075469970703124,-0.0684051513671875,-0.354766845703125,-0.0195518638938665,-0.141324907541275,0.3043082356452942,86.3927001953125,-43.69645690917969,275.0006103515625
1700075026,0.91583251953125,0.0627899169921875,-0.3632354736328125,-0.0214155428111553,-0.1598051041364669,0.2658202350139618,85.89900207519531,-43.31358337402344,274.85968017578125
1700075026,0.9561004638671876,0.1925506591796875,-0.2669830322265625,0.0354597233235836,-0.1217088550329208,0.1736916303634643,85.45521545410156,-43.08186340332031,274.32623291015625
1700075026,0.957550048828125,0.2624664306640625,-0.1827850341796875,0.1655455529689788,-0.0602114088833332,0.080325998365879,84.74371337890625,-42.80564880371094,274.0414428710937
1700075026,0.9533538818359376,0.208404541015625,-0.1572113037109375,0.2797834575176239,-0.0139576271176338,0.066493809223175,83.62132263183594,-42.47096252441406,273.7353515625
1700075026,0.968292236328125,0.055999755859375,-0.1778564453125,0.2626992762088775,-0.0005478122038766,0.1271861791610717,83.25178527832031,-41.73234558105469,274.0679931640625
1700075026,0.99945068359375,-0.1067047119140625,-0.2284698486328125,0.2090040743350982,0.002386991167441,0.2527518272399902,82.58641052246094,-41.722930908203125,273.62042236328125
1700075026,0.997039794921875,-0.180145263671875,-0.2980194091796875,0.1051479876041412,-0.0278563983738422,0.3594526946544647,82.16123962402344,-41.56272888183594,273.417236328125
1700075026,0.9927825927734376,-0.121856689453125,-0.297271728515625,-0.0500296130776405,-0.0236880183219909,0.3833673596382141,81.08126831054688,-41.34542846679688,273.68426513671875
1700075026,1.003997802734375,0.01141357421875,-0.2873992919921875,-0.0793632641434669,0.0036218990571796,0.3437390029430389,80.46893310546875,-40.92326354980469,272.8887634277344
1700075026,0.9881591796875,0.1368255615234375,-0.2462310791015625,0.0151299508288502,0.0225865356624126,0.3022594749927521,79.6339111328125,-40.876068115234375,272.8106689453125
1700075026,0.9822540283203124,0.195587158203125,-0.1777191162109375,0.1458703875541687,0.0519915632903575,0.2752153277397156,78.72993469238281,-40.44294738769531,271.9600830078125
1700075026,0.991363525390625,0.147918701171875,-0.1476898193359375,0.2052687257528305,0.0749522745609283,0.326211929321289,78.27308654785156,-40.22163391113281,270.73687744140625
1700075026,0.9761962890625,0.0303192138671875,-0.1996917724609375,0.1891291737556457,0.0696840062737464,0.4244548678398132,77.68107604980469,-40.02146911621094,270.4339904785156
1700075026,0.9706573486328124,-0.0953521728515625,-0.2903594970703125,0.1806454062461853,0.0522645376622676,0.5226173996925354,77.19013977050781,-40.21150207519531,269.6767578125
1700075026,1.003265380859375,-0.1977691650390625,-0.3155059814453125,0.1277100294828415,0.0316708423197269,0.6366313099861145,76.4417724609375,-40.17303466796875,268.7102355957031
1700075026,1.0320281982421875,-0.19952392578125,-0.3166656494140625,0.116680808365345,0.0210589468479156,0.7283897399902344,76.17648315429688,-39.95997619628906,267.90252685546875
1700075026,1.0703277587890625,-0.1067962646484375,-0.314483642578125,0.1904804706573486,0.0149456597864627,0.7723172307014465,75.95001220703125,-40.34197998046875,267.1878662109375
1700075026,1.1224822998046875,0.029510498046875,-0.27069091796875,0.2118289023637771,-0.0021140172611922,0.7700785994529724,75.56526184082031,-40.1710205078125,265.89703369140625
1700075026,1.1933746337890625,0.1319122314453125,-0.187255859375,0.2074000537395477,0.011461179703474,0.7710977792739868,75.56777954101562,-40.82676696777344,265.6026306152344
1700075026,1.241668701171875,0.1771392822265625,-0.1534423828125,0.3465220034122467,-0.0261679552495479,0.8092784285545349,75.15339660644531,-40.908538818359375,264.66131591796875
1700075026,1.278961181640625,0.2120208740234375,-0.2139892578125,0.3320277333259582,-0.1823136210441589,0.8357649445533752,75.52812194824219,-41.40716552734375,264.0552062988281
1700075026,1.42132568359375,0.25439453125,-0.216644287109375,0.2468238919973373,-0.2542855441570282,0.799776017665863,75.7039794921875,-41.90605163574219,263.5101318359375
1700075026,1.589141845703125,0.241180419921875,-0.0909423828125,0.2831419706344604,-0.1946555078029632,0.747397243976593,75.89927673339844,-42.25032043457031,262.6618347167969
1700075026,1.59423828125,0.2270050048828125,0.0022735595703125,0.3853719234466553,-0.2076338827610016,0.7390045523643494,76.32223510742188,-43.027740478515625,261.3991394042969
1700075026,1.5248565673828125,0.1746826171875,-0.0027008056640625,0.5040892362594604,-0.2702357470989227,0.7266943454742432,76.67449951171875,-43.360260009765625,261.2395935058594
1700075026,1.499969482421875,0.069854736328125,-0.040283203125,0.6127398610115051,-0.3008690178394317,0.7004092335700989,77.26348876953125,-43.86976623535156,260.78857421875
1700075026,1.490447998046875,-0.0489349365234375,-0.047149658203125,0.6922799348831177,-0.3300423622131347,0.689490556716919,77.71803283691406,-44.25852966308594,259.8641357421875
1700075026,1.4841461181640625,-0.1678619384765625,-0.014678955078125,0.7398203015327454,-0.4183456003665924,0.743884265422821,78.57957458496094,-45.0491943359375,260.37548828125
1700075026,1.4472503662109375,-0.245697021484375,0.042572021484375,0.6294687390327454,-0.4550388753414154,0.8913277983665466,79.49069213867188,-45.94903564453125,259.67291259765625
1700075026,1.4109649658203125,-0.277099609375,0.0031280517578125,0.4242695271968841,-0.5414304733276367,0.9940096735954284,80.39089965820312,-46.58937072753906,258.94171142578125
1700075026,1.384490966796875,-0.337646484375,-0.0229339599609375,0.2481605410575866,-0.4218926429748535,1.0117112398147583,81.02394104003906,-47.47134399414063,258.614013671875
1700075026,1.3138580322265625,-0.480072021484375,-0.1255340576171875,-0.0517366975545883,-0.1852095425128936,1.0461357831954956,81.94743347167969,-48.29661560058594,258.8309326171875
1700075026,1.1730804443359375,-0.5022430419921875,-0.38916015625,-0.5397255420684814,0.0850973203778266,1.2039672136306765,82.97128295898438,-49.11640930175781,258.9382629394531
1700075026,1.001800537109375,-0.4075927734375,-0.7590179443359375,-1.292251467704773,0.2248754501342773,1.6321015357971191,83.55313110351562,-49.81590270996094,258.8475952148437
1700075026,0.8706817626953125,-0.1823883056640625,-1.0289306640625,-2.08701753616333,0.5427942872047424,2.1891298294067383,84.65263366699219,-50.35203552246094,259.5322265625
1700075026,0.8888702392578125,-0.0150299072265625,-1.26812744140625,-2.422088623046875,0.7479327917098999,2.557828187942505,85.72885131835938,-51.267425537109375,259.3139953613281
1700075026,1.061248779296875,0.0617523193359375,-1.2469940185546875,-2.2449731826782227,0.5734978914260864,2.8083724975585938,86.80253601074219,-51.76539611816406,259.17364501953125
1700075026,1.22900390625,0.236328125,-0.936981201171875,-1.9095059633255005,0.2275460809469223,2.985840320587158,87.52919006347656,-52.626739501953125,260.3433532714844
1700075026,1.3394622802734375,0.460479736328125,-0.5212249755859375,-1.6203830242156982,0.2820700407028198,3.067721605300904,88.00320434570312,-53.0947265625,260.1258544921875
1700075027,1.366180419921875,0.687652587890625,-0.3491668701171875,-1.1144429445266724,0.5432220101356506,2.9528133869171143,88.83865356445312,-53.56736755371094,259.969482421875
1700075027,1.428802490234375,0.900390625,-0.3078765869140625,-0.5120006799697876,0.7125058174133301,2.756448984146118,89.52880859375,-54.14314270019531,260.39208984375
1700075027,1.5012359619140625,1.0565338134765625,-0.2674407958984375,-0.0662956684827804,0.9461345672607422,2.53794813156128,89.88841247558594,-54.29597473144531,260.881103515625
1700075027,1.4758148193359375,1.0901336669921875,-0.4239501953125,0.4182979166507721,1.0958468914031982,2.403844356536865,90.2774658203125,-54.45648193359375,261.7509155273437
1700075027,1.426300048828125,0.931243896484375,-0.48175048828125,0.9291667938232422,1.1753406524658203,2.261676788330078,90.63909912109376,-54.81298828125,261.6287841796875
1700075027,1.437835693359375,0.60723876953125,-0.4983062744140625,1.241418957710266,1.1620697975158691,2.2409474849700928,90.89045715332033,-54.25628662109375,261.8538818359375
1700075027,1.4096832275390625,0.4494171142578125,-0.5283660888671875,1.272353172302246,1.0743013620376587,2.325429916381836,91.19784545898438,-54.22004699707031,262.2330017089844
1700075027,1.39520263671875,0.3907928466796875,-0.5508880615234375,1.0559226274490356,0.9959431290626526,2.3575189113616943,91.2642822265625,-53.983428955078125,261.8459167480469
1700075027,1.3907623291015625,0.309967041015625,-0.5562286376953125,0.717507004737854,0.940609335899353,2.2668399810791016,91.772705078125,-54.06097412109375,261.91485595703125
1700075027,1.3264007568359375,0.2235565185546875,-0.54718017578125,0.3434769511222839,0.9023317098617554,2.12239670753479,91.68196105957033,-53.49644470214844,261.6534423828125
1700075027,1.232635498046875,0.1758880615234375,-0.4947357177734375,-0.0297496393322944,0.8662573099136353,1.9625486135482788,91.91477966308594,-53.2803955078125,262.26861572265625
1700075027,1.135894775390625,0.1537017822265625,-0.40728759765625,-0.2905889451503753,0.8502197861671448,1.7557352781295776,92.11158752441406,-53.75654602050781,262.6102600097656
1700075027,1.028839111328125,0.1189727783203125,-0.2847442626953125,-0.4786145091056824,0.8322170376777649,1.49372661113739,91.8897705078125,-53.50852966308594,262.19390869140625
1700075027,0.9197540283203124,0.095001220703125,-0.1807708740234375,-0.6703512072563171,0.7868069410324097,1.2359675168991089,91.780029296875,-53.18089294433594,262.9219665527344
1700075027,0.7860870361328125,0.1162109375,-0.1612091064453125,-0.8193782567977905,0.7278730869293213,0.978127419948578,92.13165283203124,-53.21449279785156,262.7395324707031
1700075027,0.64215087890625,0.137786865234375,-0.16986083984375,-0.9315612316131592,0.6880335211753845,0.6389229893684387,91.9696807861328,-53.10270690917969,262.75421142578125
1700075027,0.5384521484375,0.0677947998046875,-0.1263427734375,-0.9911579489707948,0.6138468980789185,0.2960934340953827,92.4014892578125,-53.0252685546875,262.6886291503906
1700075027,0.45965576171875,-0.0267333984375,-0.06134033203125,-1.0377038717269895,0.5175802707672119,0.0448689386248588,91.92782592773438,-52.754241943359375,262.4807434082031
1700075027,0.3871917724609375,-0.0528411865234375,-0.067474365234375,-1.0722535848617554,0.4184542298316955,-0.119038239121437,91.71485900878906,-52.40638732910156,262.8902587890625
1700075027,0.3416290283203125,-0.022552490234375,-0.11346435546875,-1.1087990999221802,0.3298093378543854,-0.3384616672992706,92.09465026855467,-52.41929626464844,262.97686767578125
1700075027,0.346954345703125,-0.0122222900390625,-0.1285247802734375,-1.1576377153396606,0.2098592221736908,-0.6589893698692322,91.90753173828124,-52.47236633300781,262.0676574707031
1700075027,0.380126953125,-0.0177001953125,-0.08148193359375,-1.1263704299926758,0.1009905263781547,-0.9248594045639038,91.90658569335938,-52.86766052246094,262.2235717773437
1700075027,0.3700408935546875,-0.0298309326171875,-0.0450897216796875,-1.02818763256073,-0.0203947536647319,-1.0896656513214111,92.04551696777344,-53.16996765136719,262.8148803710937
1700075027,0.30169677734375,-0.0024566650390625,-0.032623291015625,-0.9635668396949768,-0.1495956182479858,-1.3073039054870603,91.96450805664062,-52.97877502441406,262.4334716796875
1700075027,0.279144287109375,0.0321044921875,-0.0651092529296875,-0.9008099436759948,-0.2603096067905426,-1.5621449947357178,92.01852416992188,-53.084320068359375,262.14227294921875
1700075027,0.27471923828125,0.0467071533203125,-0.067108154296875,-0.8275232315063477,-0.3524384796619415,-1.8253161907196045,91.88865661621094,-53.03868103027344,262.4288635253906
1700075027,0.25946044921875,0.0237579345703125,-0.0696258544921875,-0.7549278736114502,-0.4708189070224762,-2.045755386352539,91.81585693359376,-52.808929443359375,262.44403076171875
1700075027,0.24432373046875,0.0318756103515625,-0.071868896484375,-0.6702966094017029,-0.565153956413269,-2.2544851303100586,91.78407287597656,-53.0782470703125,261.8509826660156
1700075027,0.2301177978515625,0.0476226806640625,-0.0501556396484375,-0.6095208525657654,-0.6587406396865845,-2.4520177841186523,92.20620727539062,-53.34944152832031,262.4576416015625
1700075027,0.2200927734375,0.0706939697265625,-0.0587310791015625,-0.5496889352798462,-0.7446081042289734,-2.619950294494629,92.32341003417967,-53.2557373046875,262.42584228515625
1700075027,0.2110137939453125,0.11724853515625,-0.0708770751953125,-0.4755337834358215,-0.8214307427406311,-2.755009651184082,92.0803680419922,-53.60714721679688,262.35406494140625
1700075027,0.21868896484375,0.1768646240234375,-0.0565185546875,-0.4402064085006714,-0.8896430730819702,-2.8478047847747803,92.387939453125,-53.36158752441406,262.8041381835937
1700075027,0.245208740234375,0.2550048828125,-0.0680999755859375,-0.3960365653038025,-0.9399784207344056,-2.876638174057007,92.57785034179688,-53.485687255859375,263.3231201171875
1700075027,0.269012451171875,0.332122802734375,-0.1159820556640625,-0.3893932998180389,-0.9860628247261048,-2.859234094619751,92.30845642089844,-54.09498596191406,262.7611389160156
1700075027,0.278717041015625,0.4332122802734375,-0.1997833251953125,-0.4312227666378021,-1.01742684841156,-2.7806396484375,92.81550598144533,-53.96807861328125,263.42987060546875
1700075027,0.3242645263671875,0.54541015625,-0.272705078125,-0.4619638919830322,-1.0165975093841553,-2.619269847869873,93.10650634765624,-53.93280029296875,263.49761962890625
1700075027,0.3773345947265625,0.6900482177734375,-0.3607177734375,-0.4626800417900085,-0.9906261563301086,-2.4113144874572754,92.77041625976562,-54.16481018066406,263.7142944335937
1700075027,0.417510986328125,0.837615966796875,-0.4432220458984375,-0.3952996432781219,-0.9447420239448548,-2.16710901260376,93.09030151367188,-54.44667053222656,263.557373046875
1700075027,0.4436798095703125,0.974884033203125,-0.52606201171875,-0.2390509247779846,-0.886067271232605,-1.9036691188812256,93.03167724609376,-54.44398498535156,263.598876953125
1700075027,0.4412994384765625,1.1085052490234375,-0.6439056396484375,-0.027709923684597,-0.8216112852096558,-1.639151930809021,93.565673828125,-54.84413146972656,263.5622863769531
1700075027,0.4361724853515625,1.236328125,-0.716705322265625,0.2809978425502777,-0.7005053758621216,-1.399397373199463,93.4044952392578,-54.8619384765625,264.04669189453125
1700075027,0.4387054443359375,1.297943115234375,-0.7061920166015625,0.4542412757873535,-0.544904351234436,-1.0013169050216677,93.10760498046876,-55.25732421875,264.1146545410156
1700075027,0.3582916259765625,1.461578369140625,-0.750732421875,0.608576774597168,-0.3984051644802093,-0.7283833622932434,93.77574157714844,-55.309967041015625,264.2543334960937
1700075027,0.36322021484375,1.458740234375,-0.7415313720703125,0.7102932929992676,-0.2508287727832794,-0.5044378638267517,93.01353454589844,-55.62237548828125,264.2218933105469
1700075027,0.3639373779296875,1.3424072265625,-0.730682373046875,0.7053893208503723,-0.1344627290964126,-0.2377332001924514,93.6894989013672,-55.827911376953125,264.1253967285156
1700075027,0.307220458984375,1.2353668212890625,-0.696533203125,0.3556561172008514,0.2247894406318664,-0.1108623370528221,93.64216613769533,-56.21012878417969,264.4384765625
1700075027,0.27166748046875,1.069183349609375,-0.86578369140625,-0.0075290226377546,0.9099137187004088,0.0356450788676738,93.4827880859375,-56.09791564941406,264.7035827636719
1700075027,0.0669097900390625,1.056121826171875,-1.6876373291015625,0.0848017036914825,0.6420084834098816,0.0344354733824729,93.64346313476562,-56.54176330566406,264.83013916015625
1700075027,0.64208984375,0.91473388671875,-1.3632354736328125,0.1711251437664032,0.0364890359342098,-0.2441916316747665,93.84780883789062,-56.55867004394531,264.828369140625
1700075027,1.8673095703125,0.451385498046875,-0.3297271728515625,0.4656111001968384,-0.2680359780788421,-0.5829992294311523,93.71649169921876,-56.84056091308594,264.3993530273437
1700075027,2.1340789794921875,-0.063873291015625,0.297149658203125,0.8187806010246277,0.0688459128141403,-0.0334423780441284,94.17369079589844,-56.739837646484375,264.5196533203125
1700075027,1.2061767578125,-0.310089111328125,0.4006500244140625,1.0147242546081543,0.2623216211795807,0.7037155628204346,94.17430114746094,-57.20623779296875,264.669189453125
1700075027,0.7819671630859375,-0.1726837158203125,-0.260009765625,1.016741156578064,0.0526546873152256,1.200101375579834,94.56948852539062,-57.43125915527344,264.9067077636719
1700075027,1.3420867919921875,0.558319091796875,-0.701873779296875,-0.2646476328372955,-0.4040971398353576,0.9584897756576538,94.09393310546876,-57.83406066894531,264.77606201171875
1700075027,1.9869232177734373,0.8499755859375,-0.1793060302734375,-1.016911506652832,0.0168226566165685,0.524589478969574,94.20004272460938,-57.72151184082031,264.9874267578125
1700075027,1.1892547607421875,0.7071990966796875,-0.1611328125,-0.417444109916687,0.1853988915681839,0.248285174369812,94.24563598632812,-57.65721130371094,265.4901123046875
1700075027,0.4016876220703125,0.409454345703125,-0.4529571533203125,0.154043897986412,0.044292364269495,0.174072727560997,94.19509887695312,-57.673095703125,264.8025207519531
1700075027,0.6553802490234375,0.211181640625,-0.4862060546875,0.2362847030162811,0.0267442632466554,0.2165405601263046,94.5408172607422,-58.054443359375,265.50311279296875
1700075027,0.86785888671875,0.2881011962890625,-0.3890838623046875,0.1484347432851791,0.0296479072421789,0.1257278323173523,94.17669677734376,-57.77882385253906,265.2734375
1700075027,1.0608062744140625,0.387237548828125,-0.3343963623046875,-0.1069373711943626,0.0071889371611177,0.0436292365193367,94.18734741210938,-57.81898498535156,265.28350830078125
1700075027,1.1295928955078125,0.4437103271484375,-0.3706817626953125,-0.1676369309425354,-0.022884277626872,-0.0370815880596637,94.15435791015624,-58.15972900390625,265.3445129394531
1700075027,0.9698486328125,0.398345947265625,-0.4331512451171875,-0.1963482052087783,-0.0288185980170965,-0.0991734564304351,94.18537902832033,-57.96304321289063,265.4432983398437
1700075027,0.8412322998046875,0.3371734619140625,-0.414337158203125,-0.20640829205513,-0.0062357918359339,-0.1635449826717376,93.95626831054688,-57.91900634765625,265.6751708984375
1700075027,0.8486328125,0.271575927734375,-0.416778564453125,-0.1634365916252136,-0.0144449854269623,-0.1932956874370575,94.61631774902344,-57.776641845703125,265.2140808105469
1700075027,0.9380340576171876,0.2295989990234375,-0.397613525390625,-0.0904872864484787,-0.0396078638732433,-0.2107681632041931,94.24485778808594,-57.45237731933594,265.2999267578125
1700075027,1.00970458984375,0.2266845703125,-0.402496337890625,-0.0219929162412881,-0.0823151096701622,-0.2327150106430053,94.25616455078124,-57.75514221191406,265.8127136230469
1700075027,1.0134124755859375,0.2520751953125,-0.4144744873046875,0.0288612097501754,-0.1408825516700744,-0.2855073809623718,94.11474609375,-57.23532104492188,265.7951354980469
1700075027,0.9714202880859376,0.2836456298828125,-0.437652587890625,0.0657012462615966,-0.2110272794961929,-0.3552427887916565,94.28175354003906,-57.63337707519531,265.6332702636719
1700075027,0.9266357421875,0.31195068359375,-0.441619873046875,0.0565852485597133,-0.2735905349254608,-0.436793565750122,94.54084777832033,-57.5289306640625,265.4805908203125
1700075027,0.913360595703125,0.3167877197265625,-0.42877197265625,0.0292574875056743,-0.3186248540878296,-0.5015568733215332,93.788818359375,-57.29949951171875,265.464111328125
1700075027,0.902984619140625,0.3075714111328125,-0.414703369140625,-0.0083745764568448,-0.3486458659172058,-0.5554816126823425,94.72735595703124,-57.42082214355469,265.5076599121094
1700075027,0.9047088623046876,0.283935546875,-0.3944854736328125,-0.0343009829521179,-0.362601101398468,-0.5848488211631775,94.33544921875,-56.995025634765625,266.19000244140625
1700075027,0.929962158203125,0.2568359375,-0.3616485595703125,-0.0528871826827526,-0.3651579916477203,-0.601474940776825,94.42176818847656,-57.36328125,265.8637390136719
1700075027,0.9659576416015624,0.23309326171875,-0.3389892578125,-0.0488761961460113,-0.3671460449695587,-0.5998690128326416,94.26193237304688,-56.98941040039063,266.27105712890625
1700075027,0.9718475341796876,0.22174072265625,-0.355377197265625,-0.0378200821578502,-0.3882726430892944,-0.5914787650108337,94.75642395019533,-56.87466430664063,266.5926513671875
1700075027,0.9514312744140624,0.222015380859375,-0.3801422119140625,-0.0440886318683624,-0.4203576147556305,-0.5971880555152893,94.58000183105467,-57.0205078125,266.091552734375
1700075027,0.938995361328125,0.2213592529296875,-0.381011962890625,-0.0739748924970626,-0.4439550638198852,-0.6270244717597961,94.34561157226562,-56.59971618652344,266.2108764648437
1700075027,0.9324951171875,0.210479736328125,-0.37017822265625,-0.0680490881204605,-0.449906975030899,-0.647803544998169,94.57293701171876,-56.6087646484375,266.4329833984375
1700075027,0.9355316162109376,0.19659423828125,-0.35009765625,-0.0407634079456329,-0.4520292580127716,-0.6427203416824341,94.1065673828125,-56.70257568359375,265.77374267578125
1700075027,0.940673828125,0.18548583984375,-0.3475341796875,0.0069892001338303,-0.4766837358474731,-0.6414157152175903,94.21743774414062,-56.46546936035156,266.1874084472656
1700075027,0.941802978515625,0.1749420166015625,-0.3558807373046875,0.0773488506674766,-0.5000910758972168,-0.6357902884483337,94.20271301269533,-56.21434020996094,265.9755249023437
1700075027,0.94378662109375,0.1830291748046875,-0.345977783203125,0.0396355614066123,-0.5212171077728271,-0.671779453754425,94.0286102294922,-56.071197509765625,266.5795593261719
1700075027,0.95751953125,0.177734375,-0.311004638671875,-0.0198000706732273,-0.4841919839382171,-0.698680579662323,94.21875,-55.69096374511719,266.4849853515625
1700075027,0.9640350341796876,0.1646575927734375,-0.3156585693359375,0.0308244917541742,-0.4703992009162903,-0.6885480284690857,93.75099182128906,-55.83934020996094,266.05859375
1700075027,0.9410552978515624,0.1641387939453125,-0.3288421630859375,0.0334785990417003,-0.4777183532714844,-0.6688885688781738,93.9949188232422,-55.4178466796875,266.5664978027344
1700075027,0.9518585205078124,0.156494140625,-0.28216552734375,-0.0095634115859866,-0.4685512185096741,-0.6157897114753723,93.70631408691406,-55.40643310546875,266.0748596191406
1700075027,0.967742919921875,0.134765625,-0.2503509521484375,0.0138886515051126,-0.4296965003013611,-0.56815105676651,93.66403198242188,-55.18325805664063,266.507080078125
1700075027,0.990447998046875,0.1129150390625,-0.289031982421875,0.0902294963598251,-0.4524976909160614,-0.5365918278694153,93.563232421875,-54.7978515625,267.21710205078125
1700075027,0.9974517822265624,0.087738037109375,-0.3123626708984375,0.1946842670440673,-0.4753050208091736,-0.4773955941200256,93.25184631347656,-55.04994201660156,266.47222900390625
1700075027,0.9560546875,0.0686492919921875,-0.3167266845703125,0.2203195840120315,-0.4585044682025909,-0.4203176498413086,93.11190795898438,-55.02201843261719,266.7895202636719
1700075027,0.903076171875,0.051239013671875,-0.29510498046875,0.2021166086196899,-0.4439809024333954,-0.4117425382137298,93.2693328857422,-54.77490234375,266.13720703125
1700075027,0.8701324462890625,0.0054931640625,-0.2642059326171875,0.1814827024936676,-0.4351666569709778,-0.3725290894508362,92.86007690429688,-54.846923828125,266.22125244140625
1700075027,0.8387298583984375,0.0066375732421875,-0.2910919189453125,0.1236521676182746,-0.436270534992218,-0.3181042075157165,92.693603515625,-54.94303894042969,266.2693786621094
1700075027,0.8282623291015625,0.042572021484375,-0.3334808349609375,0.1093645766377449,-0.436757892370224,-0.3225484788417816,92.7741241455078,-54.798370361328125,266.4566650390625
1700075027,0.8432464599609375,0.068115234375,-0.322509765625,0.0765235349535942,-0.4432679712772369,-0.3321374654769897,92.35572814941406,-54.63844299316406,266.9754943847656
1700075027,0.904144287109375,0.0820465087890625,-0.2595062255859375,0.0799464955925941,-0.402123749256134,-0.3264361619949341,91.8224639892578,-54.65621948242188,267.36834716796875
1700075027,0.982513427734375,0.0639801025390625,-0.2330169677734375,0.0511984713375568,-0.3742918372154236,-0.2411585599184036,91.77444458007812,-54.657562255859375,267.0386962890625
1700075027,1.010284423828125,0.04071044921875,-0.2384490966796875,-0.0268758218735456,-0.3749967813491821,-0.1868931800127029,92.06814575195312,-54.638214111328125,267.39373779296875
1700075027,1.0357208251953125,-0.02520751953125,-0.233978271484375,-0.0618897341191768,-0.3490437567234039,-0.1121667549014091,91.6700439453125,-54.58316040039063,267.27166748046875
1700075028,1.0196075439453125,-0.0732879638671875,-0.238616943359375,-0.0217931792140007,-0.3355963826179504,-0.0351659767329692,91.79183959960938,-54.55146789550781,267.4684143066406
1700075028,0.9641571044921876,-0.0718231201171875,-0.23724365234375,-0.0361926257610321,-0.3207873404026031,0.0207593403756618,91.2972412109375,-54.082611083984375,266.748046875
1700075028,0.9456024169921876,-0.0332794189453125,-0.2253265380859375,-0.0136950397863984,-0.2721247375011444,0.0536797381937503,91.3970947265625,-53.81309509277344,265.8567199707031
1700075028,0.945220947265625,0.0145416259765625,-0.199615478515625,0.0675433576107025,-0.2211094796657562,0.0860427394509315,90.97828674316406,-52.946136474609375,265.7095947265625
1700075028,0.939666748046875,0.062103271484375,-0.148345947265625,0.1060649156570434,-0.1794773489236831,0.1285417228937149,90.86268615722656,-52.18743896484375,265.1544494628906
1700075028,0.938629150390625,0.0822601318359375,-0.1307525634765625,0.098518319427967,-0.1445483863353729,0.1843117922544479,90.49012756347656,-51.65411376953125,264.88848876953125
1700075028,0.9215087890625,0.0554656982421875,-0.168121337890625,-0.0142468465492129,-0.1362505108118057,0.2510665655136108,90.55203247070312,-51.32614135742188,264.9979858398437
1700075028,0.9264068603515624,0.00421142578125,-0.232666015625,-0.0558408945798873,-0.1396332681179046,0.2865473330020904,89.80259704589844,-50.670318603515625,264.5596008300781
1700075028,0.92779541015625,-0.075103759765625,-0.28570556640625,-0.0879530236124992,-0.1613976806402206,0.3354730606079101,89.49073791503906,-49.63121032714844,264.2967529296875
1700075028,0.934417724609375,-0.0552520751953125,-0.3065185546875,-0.1423017531633377,-0.1701174080371856,0.3585402965545654,89.64791870117188,-49.47239685058594,264.4865417480469
1700075028,0.963226318359375,0.0484619140625,-0.263336181640625,-0.1121126860380172,-0.1444064527750015,0.3351574838161468,89.14450073242188,-49.04937744140625,264.76031494140625
1700075028,0.9774322509765624,0.17144775390625,-0.173065185546875,-0.0848895907402038,-0.1150070130825042,0.2914683222770691,88.86700439453125,-48.196136474609375,264.184326171875
1700075028,0.9747467041015624,0.2578125,-0.142547607421875,-0.0182173531502485,-0.0811915248632431,0.2534996569156647,88.7752685546875,-47.5584716796875,264.965576171875
1700075028,0.9708709716796876,0.2276763916015625,-0.1610260009765625,0.0793427601456642,-0.0410741977393627,0.2592978775501251,88.13377380371094,-47.35122680664063,264.5155639648437
1700075028,0.9774627685546876,0.10919189453125,-0.1686248779296875,0.0950378328561782,5.85895431868e-05,0.3325555920600891,87.71566772460938,-46.426055908203125,264.49871826171875
1700075028,0.959320068359375,0.0130615234375,-0.1791534423828125,-0.0384917333722114,-0.0031838091090321,0.4344289600849151,87.46929931640625,-46.23745727539063,264.62091064453125
1700075028,0.9367523193359376,-0.046722412109375,-0.2064056396484375,-0.2070365399122238,0.0265615694224834,0.5359020233154297,86.68745422363281,-45.4727783203125,263.8233642578125
1700075028,0.8954010009765625,-0.043609619140625,-0.281005859375,-0.2911143898963928,0.0481507517397403,0.5737940073013306,86.25323486328125,-45.16517639160156,263.9140625
1700075028,0.8561553955078125,-0.052825927734375,-0.2582244873046875,-0.376091331243515,0.0580337420105934,0.641829788684845,86.21968078613281,-44.52064514160156,263.5119323730469
1700075028,0.896026611328125,0.0425567626953125,-0.2080078125,-0.4261651635169983,0.0232219658792018,0.7141714096069336,85.93511962890625,-44.515380859375,263.314208984375
1700075028,0.946258544921875,0.17193603515625,-0.1601104736328125,-0.3840187788009643,0.0151813495904207,0.7510689496994019,85.23818969726562,-44.61210632324219,263.4761047363281
1700075028,0.993316650390625,0.215606689453125,-0.1839447021484375,-0.256389707326889,0.0078169107437133,0.7573769092559814,85.27156066894531,-44.47648620605469,263.2435913085937
1700075028,1.059661865234375,0.133514404296875,-0.19378662109375,-0.1056289598345756,-0.0122888907790184,0.800590455532074,84.91746520996094,-44.339874267578125,262.86163330078125
1700075028,1.0950164794921875,0.04901123046875,-0.2282562255859375,-0.0298705473542213,-0.0383588410913944,0.8552421927452087,85.14736938476562,-43.88687133789063,262.073974609375
1700075028,1.078460693359375,0.0152740478515625,-0.258209228515625,-0.0573258735239505,-0.0406126752495765,0.9104002714157104,85.28848266601562,-44.048919677734375,261.85675048828125
1700075028,1.0681304931640625,0.0250244140625,-0.2180633544921875,-0.0972647666931152,-0.0554363615810871,0.9986590147018432,85.30973815917969,-44.12818908691406,261.2402038574219
1700075028,1.0715484619140625,0.0944671630859375,-0.1892242431640625,-0.2045736461877823,-0.107129119336605,1.0909786224365234,85.42080688476562,-43.95802307128906,261.020263671875
1700075028,1.126861572265625,0.162109375,-0.13983154296875,-0.3197210133075714,-0.1670502424240112,1.1671215295791626,85.62002563476562,-44.26974487304688,261.5727844238281
1700075028,1.2138519287109375,0.198455810546875,-0.1280059814453125,-0.359207421541214,-0.2136108130216598,1.1871930360794067,86.02047729492188,-44.6859130859375,260.7982482910156
1700075028,1.2960052490234375,0.1837921142578125,-0.1251678466796875,-0.3539050817489624,-0.2443213313817978,1.1784110069274902,86.23249816894531,-44.88853454589844,260.5770568847656
1700075028,1.3312835693359375,0.1893463134765625,-0.148468017578125,-0.3673385977745056,-0.3121403157711029,1.1772199869155884,86.74496459960938,-45.0321044921875,260.55743408203125
1700075028,1.3636474609375,0.2026824951171875,-0.1888275146484375,-0.4280935525894165,-0.3912018537521362,1.1869101524353027,87.53742980957031,-45.53466796875,260.5839233398437
1700075028,1.3906097412109375,0.16595458984375,-0.1655426025390625,-0.4312171638011932,-0.4857752323150635,1.1846063137054443,87.68864440917969,-46.01171875,260.19921875
1700075028,1.408477783203125,0.0946502685546875,-0.2171630859375,-0.3481643795967102,-0.584148645401001,1.1315819025039673,88.67393493652344,-46.517608642578125,260.7094116210937
1700075028,1.4824676513671875,0.0299224853515625,-0.2888336181640625,-0.3062928318977356,-0.699429452419281,1.080288648605347,89.24880981445312,-46.93310546875,261.1664428710937
1700075028,1.6056060791015625,-0.01361083984375,-0.2122802734375,-0.2927325367927551,-0.7866900563240051,1.0803592205047607,90.22434997558594,-47.34637451171875,261.2113647460937
1700075028,1.7106475830078125,-0.03082275390625,-0.0865020751953125,-0.173661008477211,-0.8231971859931946,1.0540144443511963,91.12971496582033,-47.46592712402344,260.971923828125
1700075028,1.771728515625,-0.0403900146484375,0.044158935546875,0.0529870502650737,-0.8773009181022644,0.974900722503662,92.00181579589844,-48.27557373046875,261.1307678222656
1700075028,1.8220367431640625,-0.055145263671875,0.204559326171875,0.258298397064209,-0.8831212520599365,0.8479885458946228,92.5707550048828,-48.66822814941406,261.89947509765625
1700075028,1.87786865234375,-0.09954833984375,0.336578369140625,0.3529820144176483,-0.9552859663963318,0.6727845072746277,93.08975219726562,-49.46212768554688,262.3783569335937
1700075028,1.854278564453125,-0.1903228759765625,0.4586639404296875,0.2434544712305069,-0.9490038752555848,0.582206666469574,94.22630310058594,-50.26445007324219,263.0606689453125
1700075028,1.631988525390625,-0.304443359375,0.40704345703125,-0.1109614074230194,-0.7743215560913086,0.5912351012229919,95.18846130371094,-50.94451904296875,263.29888916015625
1700075028,1.3059234619140625,-0.3958282470703125,0.0435791015625,-0.6371748447418213,-0.4135889112949371,0.8700182437896729,95.70750427246094,-51.10247802734375,263.9310913085937
1700075028,0.9403839111328124,-0.325469970703125,-0.562042236328125,-1.1369601488113403,-0.3246907293796539,1.5789549350738523,96.18516540527344,-51.556549072265625,264.4740600585937
1700075028,0.7092742919921875,-0.0501251220703125,-0.89276123046875,-1.86786687374115,-0.328681468963623,2.169311046600342,96.9049072265625,-51.9136962890625,264.870361328125
1700075028,0.8043670654296875,0.082244873046875,-0.7822723388671875,-2.660911321640014,-0.115098625421524,2.254696846008301,97.5287628173828,-52.59922790527344,264.9129638671875
1700075028,1.0652618408203125,0.016754150390625,-0.6931610107421875,-3.067732095718384,0.1235238015651702,2.613468885421753,98.00479125976562,-52.50259399414063,265.46160888671875
1700075028,1.0663909912109375,0.2670745849609375,-0.7979278564453125,-2.8828442096710205,0.1737598031759262,3.2089321613311768,98.36300659179688,-52.46965026855469,266.41259765625
1700075028,1.057342529296875,0.6180419921875,-0.9204254150390624,-2.457738876342773,0.0088763162493705,3.65245509147644,98.43682861328124,-52.54878234863281,266.3549194335937
1700075028,1.133453369140625,0.78521728515625,-0.848968505859375,-2.402427673339844,-0.0752183198928833,3.937869310379028,98.78585815429688,-52.9195556640625,266.92303466796875
1700075028,1.179290771484375,0.967926025390625,-0.6974945068359375,-2.4166018962860107,0.3648120462894439,4.013981342315674,99.32177734375,-52.52828979492188,267.2698059082031
1700075028,1.18597412109375,1.066925048828125,-0.7412261962890625,-2.3042242527008057,0.6301529407501221,3.9925732612609854,99.3897705078125,-52.51502990722656,267.190185546875
1700075028,1.25006103515625,1.0370330810546875,-0.738616943359375,-1.9435592889785769,0.5728904008865356,3.7978687286376953,99.72547912597656,-52.0938720703125,267.2885131835937
1700075028,1.41644287109375,0.7038116455078125,-0.5802459716796875,-1.3861663341522217,0.5788497924804688,3.555194854736328,100.1491241455078,-52.101348876953125,266.6183776855469
1700075028,1.421630859375,0.3495330810546875,-0.51605224609375,-0.9530734419822692,0.5718153119087219,3.464607000350952,100.05789184570312,-51.783966064453125,266.52099609375
1700075028,1.2931060791015625,0.2414093017578125,-0.50042724609375,-0.7275095582008362,0.526753842830658,3.500479221343994,100.23886108398438,-52.42623901367188,266.9632873535156
1700075028,1.15692138671875,0.242462158203125,-0.4991607666015625,-0.5314814448356628,0.4822665154933929,3.511636018753052,100.20721435546876,-51.86061096191406,267.2381591796875
1700075028,1.0655975341796875,0.2468719482421875,-0.4955596923828125,-0.3698734045028686,0.4171141386032104,3.43172025680542,100.28488159179688,-51.98503112792969,266.7833251953125
1700075028,0.990234375,0.279571533203125,-0.46539306640625,-0.352739930152893,0.3236313164234161,3.258240222930908,100.2156219482422,-51.28707885742188,267.21759033203125
1700075028,0.9445037841796876,0.3035125732421875,-0.4482269287109375,-0.4406996369361877,0.1887440830469131,3.02731728553772,100.40347290039062,-50.95939636230469,267.3165283203125
1700075028,0.9340057373046876,0.26544189453125,-0.37640380859375,-0.4761191308498382,0.0091783180832862,2.759903907775879,99.70660400390624,-50.71847534179688,267.24200439453125
1700075028,0.9214935302734376,0.146453857421875,-0.244781494140625,-0.4177700877189636,-0.1862987726926803,2.4891586303710938,99.77133178710938,-50.149993896484375,266.643310546875
1700075028,0.8805999755859375,0.00201416015625,-0.15142822265625,-0.4039285778999328,-0.39749675989151,2.236790895462036,99.92103576660156,-50.18415832519531,267.352294921875
1700075028,0.8058929443359375,-0.118804931640625,-0.1370086669921875,-0.5241242051124573,-0.6019486784934998,1.99459707736969,99.88824462890624,-50.19577026367188,266.8345947265625
1700075028,0.69757080078125,-0.20355224609375,-0.17584228515625,-0.7923614978790283,-0.7574091553688049,1.757943034172058,99.75393676757812,-49.93864440917969,267.41766357421875
1700075028,0.58673095703125,-0.2689361572265625,-0.2292022705078125,-1.1157078742980957,-0.8946860432624817,1.4979021549224854,99.94059753417967,-49.93017578125,267.3817138671875
1700075028,0.4820556640625,-0.3199920654296875,-0.26513671875,-1.4136810302734375,-1.0068514347076416,1.2177979946136477,100.01725769042967,-50.236907958984375,267.0907592773437
1700075028,0.3928985595703125,-0.35845947265625,-0.286224365234375,-1.6554073095321655,-1.1334378719329834,0.9224875569343568,99.96812438964844,-50.28144836425781,266.44610595703125
1700075028,0.3366851806640625,-0.3802490234375,-0.3007659912109375,-1.8498029708862305,-1.2874191999435425,0.5948668122291565,100.03138732910156,-50.079010009765625,266.82330322265625
1700075028,0.3237762451171875,-0.3471221923828125,-0.304107666015625,-1.9900617599487305,-1.460662603378296,0.2972228825092315,99.65121459960938,-50.211700439453125,267.08465576171875
1700075028,0.328826904296875,-0.2660980224609375,-0.2843780517578125,-2.112114429473877,-1.6264175176620483,-0.0087540764361619,100.04620361328124,-50.2816162109375,266.8717041015625
1700075028,0.355987548828125,-0.20428466796875,-0.276092529296875,-2.2105512619018555,-1.790507674217224,-0.3352648019790649,99.930419921875,-50.36988830566406,266.8723449707031
1700075028,0.4028167724609375,-0.178314208984375,-0.2795562744140625,-2.282065153121948,-1.9810962677001955,-0.6406692266464233,99.70040893554688,-50.727783203125,266.76544189453125
1700075028,0.4339141845703125,-0.177276611328125,-0.26983642578125,-2.356388807296753,-2.171717643737793,-0.9350547790527344,100.06756591796876,-50.67826843261719,266.7791748046875
1700075028,0.4488983154296875,-0.2082672119140625,-0.2730865478515625,-2.440816164016724,-2.334277629852295,-1.2146456241607666,99.83705139160156,-50.85148620605469,267.20526123046875
1700075028,0.432525634765625,-0.24615478515625,-0.2911224365234375,-2.5297977924346924,-2.466709852218628,-1.4677047729492188,99.98176574707033,-51.27922058105469,267.6303405761719
1700075028,0.415130615234375,-0.2577667236328125,-0.3399200439453125,-2.61491322517395,-2.586657762527466,-1.7145920991897583,100.1490478515625,-51.36604309082031,267.71649169921875
1700075028,0.4127655029296875,-0.2368011474609375,-0.397979736328125,-2.6780076026916504,-2.6942646503448486,-1.976001024246216,100.10758972167967,-51.591064453125,267.3658752441406
1700075028,0.42730712890625,-0.1691741943359375,-0.4596405029296875,-2.68437933921814,-2.788644313812256,-2.2466835975646973,100.03923034667967,-51.715728759765625,267.78912353515625
1700075028,0.470062255859375,-0.084716796875,-0.5006866455078125,-2.576308250427246,-2.850213050842285,-2.515390157699585,100.05198669433594,-52.29444885253906,267.5377502441406
1700075028,0.5203399658203125,-0.022796630859375,-0.4822845458984375,-2.397290229797364,-2.8906495571136475,-2.7535393238067627,99.93505859375,-52.417388916015625,267.8827514648437
1700075028,0.5660400390625,0.017364501953125,-0.4572296142578125,-2.234739303588867,-2.9313395023345947,-2.974174976348877,100.65907287597656,-52.75355529785156,267.69512939453125
1700075028,0.617279052734375,0.04656982421875,-0.46844482421875,-2.1193110942840576,-2.964327812194824,-3.1685078144073486,100.62840270996094,-52.9833984375,268.33642578125
1700075028,0.6810150146484375,0.0751190185546875,-0.51861572265625,-1.9822783470153809,-2.9793972969055176,-3.3374063968658447,100.6139678955078,-53.400634765625,268.20916748046875
1700075028,0.769378662109375,0.09063720703125,-0.54888916015625,-1.813953876495361,-2.9954047203063965,-3.487324476242065,100.27215576171876,-53.76593017578125,268.0772705078125
1700075028,0.8895416259765625,0.0754852294921875,-0.5327301025390625,-1.663217306137085,-3.01243257522583,-3.619125843048096,100.53024291992188,-54.094818115234375,268.3616943359375
1700075028,1.0148162841796875,0.047821044921875,-0.5047760009765625,-1.5554556846618652,-3.010015726089477,-3.731445789337158,101.04249572753906,-54.551177978515625,268.53271484375
1700075028,1.118133544921875,0.04541015625,-0.5378265380859375,-1.4820855855941772,-2.939535140991211,-3.810374975204468,100.70924377441406,-54.88172912597656,268.4046325683594
1700075028,1.1744384765625,0.10333251953125,-0.6723175048828125,-1.5275691747665403,-2.8634629249572754,-3.903705358505249,100.5921630859375,-54.91383361816406,268.7438659667969
1700075028,1.217498779296875,0.180755615234375,-0.8194427490234375,-1.6976994276046753,-2.7805042266845703,-4.044514656066895,101.02517700195312,-55.388580322265625,268.62890625
1700075028,1.2928009033203125,0.21600341796875,-0.89501953125,-1.933332443237305,-2.697345733642578,-4.1700520515441895,101.1894989013672,-55.475616455078125,268.95684814453125
1700075028,1.36614990234375,0.248443603515625,-0.92364501953125,-2.1728262901306152,-2.6220412254333496,-4.230746269226074,101.06248474121094,-55.53770446777344,269.3772888183594
1700075028,1.4130096435546875,0.2924957275390625,-0.9269256591796876,-2.3613617420196533,-2.557509183883667,-4.229605197906494,101.08316040039062,-55.92243957519531,269.3905639648437
1700075028,1.4493560791015625,0.3190460205078125,-0.904998779296875,-2.4170374870300293,-2.497408151626587,-4.21565055847168,100.97044372558594,-56.514892578125,269.1894836425781
1700075028,1.475616455078125,0.33355712890625,-0.8620147705078125,-2.232813835144043,-2.429069757461548,-4.196342945098877,101.17630004882812,-56.51506042480469,269.42950439453125
1700075028,1.484130859375,0.35601806640625,-0.7522430419921875,-1.9367977380752563,-2.3569681644439697,-4.1992692947387695,100.9897003173828,-56.72303771972656,269.57080078125
1700075028,1.490814208984375,0.390350341796875,-0.645538330078125,-1.5847147703170776,-2.214552164077759,-4.20562744140625,101.00015258789062,-57.03132629394531,269.06988525390625
1700075028,1.4684600830078125,0.4425201416015625,-0.57928466796875,-1.2427939176559448,-1.9983189105987549,-4.175200939178467,101.23542785644533,-57.32597351074219,269.91241455078125
1700075028,1.4268035888671875,0.4833221435546875,-0.5422515869140625,-0.90796959400177,-1.8192031383514404,-4.110095500946045,101.42204284667967,-57.63768005371094,270.3504333496094
1700075028,1.435089111328125,0.4900360107421875,-0.547027587890625,-0.5925690531730652,-1.72798490524292,-4.005101203918457,101.11077880859376,-57.71211242675781,270.16131591796875
1700075029,1.4604034423828125,0.493682861328125,-0.5379486083984375,-0.236217588186264,-1.6646552085876465,-3.882183074951172,101.45388793945312,-57.89154052734375,270.2777099609375
1700075029,1.4812164306640625,0.5089111328125,-0.4755706787109375,-0.0033350766170769,-1.5299180746078491,-3.704025268554688,101.03201293945312,-58.07545471191406,270.4910888671875
1700075029,1.41851806640625,0.5423583984375,-0.4423370361328125,0.055202268064022,-1.3321142196655271,-3.4691319465637207,101.4501953125,-57.96841430664063,270.6789855957031
1700075029,1.292449951171875,0.5528564453125,-0.4419403076171875,0.030674822628498,-1.1190277338027954,-3.1576180458068848,100.93312072753906,-57.740753173828125,270.96978759765625
1700075029,1.1390228271484375,0.5279998779296875,-0.4657135009765625,-0.0669646561145782,-0.878607451915741,-2.7612929344177246,101.37567138671876,-58.28706359863281,270.7693786621094
1700075029,0.99755859375,0.50335693359375,-0.501220703125,-0.3129845559597015,-0.6409067511558533,-2.312225103378296,101.236572265625,-57.9947509765625,270.98248291015625
1700075029,0.8962249755859375,0.5092315673828125,-0.514404296875,-0.6534126996994019,-0.4186236262321472,-1.8219283819198608,101.29617309570312,-58.33688354492188,271.1659851074219
1700075029,0.82501220703125,0.52471923828125,-0.4779205322265625,-1.0176143646240234,-0.1964941471815109,-1.240687370300293,101.23258972167967,-58.11317443847656,271.3559875488281
1700075029,0.7471466064453125,0.5926971435546875,-0.4478607177734375,-1.3111655712127686,0.0092568816617131,-0.599754810333252,101.26846313476562,-58.1424560546875,271.5353088378906
1700075029,0.6753997802734375,0.702423095703125,-0.460205078125,-1.4577778577804563,0.2301972508430481,0.0114718321710824,101.43812561035156,-58.22322082519531,271.3728332519531
1700075029,0.6205596923828125,0.8047943115234375,-0.4956512451171875,-1.4914069175720217,0.4793948233127594,0.4728666245937347,100.98976135253906,-58.13571166992188,271.30224609375
1700075029,0.651031494140625,0.84130859375,-0.514373779296875,-1.4640840291976929,0.6937494874000549,0.7904134392738342,101.628173828125,-58.36189270019531,271.560546875
1700075029,0.744171142578125,0.80755615234375,-0.4809417724609375,-1.4191844463348389,0.8282521367073059,1.0680512189865112,100.82829284667967,-57.69215393066406,271.2660522460937
1700075029,0.8096160888671875,0.7423095703125,-0.44610595703125,-1.389812707901001,0.9295308589935304,1.29221773147583,101.2478485107422,-58.21046447753906,271.43817138671875
1700075029,0.83941650390625,0.665802001953125,-0.449371337890625,-1.3510538339614868,1.0266441106796265,1.4632054567337036,100.8958740234375,-57.71188354492188,271.7183837890625
1700075029,0.8328094482421875,0.6136932373046875,-0.44476318359375,-1.2083454132080078,1.0636694431304932,1.5732048749923706,100.99235534667967,-57.42344665527344,271.29510498046875
1700075029,0.8542022705078125,0.5589752197265625,-0.3914642333984375,-0.9541690945625304,0.8203105926513672,1.342521905899048,100.99647521972656,-57.35472106933594,271.65753173828125
1700075029,1.1146087646484375,0.2425994873046875,-0.0162353515625,-0.7613809704780579,0.4781367480754852,0.8276910185813904,101.16085815429688,-57.41888427734375,271.26373291015625
1700075029,1.3646240234375,-0.2804107666015625,0.5238189697265625,-0.4284434914588928,0.2464819550514221,-0.1023250371217727,100.99490356445312,-57.3897705078125,271.4285888671875
1700075029,1.4981536865234375,-0.994873046875,0.8784027099609375,0.1129569113254547,0.2451748698949813,-1.0176284313201904,100.9921417236328,-57.12716674804688,271.66607666015625
1700075029,1.51715087890625,-1.47900390625,0.923248291015625,0.1770203113555908,0.558672308921814,-0.4788379669189453,100.9402313232422,-56.76963806152344,271.89508056640625
1700075029,1.2939910888671875,-1.118896484375,0.47021484375,-0.6538954973220825,1.1061948537826538,1.332808256149292,100.73292541503906,-56.66180419921875,271.584716796875
1700075029,1.2169189453125,-0.305511474609375,-0.161163330078125,-0.8804418444633484,1.2037559747695925,2.4338364601135254,100.68708801269533,-56.2109375,271.50506591796875
1700075029,1.535064697265625,-0.090423583984375,-0.0635528564453125,-0.588029146194458,1.124653458595276,2.31408166885376,100.47044372558594,-56.13899230957031,271.54296875
1700075029,1.56036376953125,-0.2556610107421875,-0.0391998291015625,-0.4062108993530273,1.0500450134277344,1.9531329870224,100.19905090332033,-55.3203125,271.5816650390625
1700075029,1.169921875,0.0377349853515625,-0.2779541015625,-0.0390147753059864,1.2218981981277466,1.6579365730285645,100.36512756347656,-55.55235290527344,271.28497314453125
1700075029,0.9608612060546876,0.32147216796875,-0.3084716796875,0.1068380326032638,1.4271738529205322,1.5535459518432615,100.478271484375,-54.81988525390625,270.7951965332031
1700075029,0.96160888671875,0.4986114501953125,-0.300079345703125,-0.145268514752388,1.3539745807647705,1.399969458580017,100.2783203125,-54.883544921875,270.842529296875
1700075029,1.1431121826171875,0.4902191162109375,-0.2060394287109375,-0.2776824831962585,1.2591474056243896,1.0328353643417358,100.34005737304688,-54.512542724609375,271.33892822265625
1700075029,1.2881317138671875,0.2163238525390625,-0.152099609375,-0.3439339399337768,1.227813959121704,0.8410089612007141,100.37596130371094,-53.80570983886719,271.4174499511719
1700075029,1.037750244140625,0.042388916015625,-0.304229736328125,-0.3700052201747894,1.0235998630523682,0.9007418155670166,100.0805206298828,-53.20118713378906,270.9013671875
1700075029,0.809722900390625,0.00189208984375,-0.437591552734375,-0.2179637551307678,0.7896597385406494,0.9500680565834044,99.879150390625,-53.2601318359375,271.2001037597656
1700075029,0.8856353759765625,-0.145904541015625,-0.392852783203125,0.197903499007225,0.5807286500930786,0.9820148348808287,99.69595336914062,-52.40611267089844,270.80242919921875
1700075029,1.0287017822265625,-0.2602386474609375,-0.146392822265625,0.3955411911010742,0.5544485449790955,1.1054919958114624,99.46153259277344,-52.04121398925781,271.1094665527344
1700075029,1.06085205078125,-0.128387451171875,-0.061859130859375,0.3936559557914734,0.5441852807998657,1.105820655822754,99.28996276855467,-51.58772277832031,270.6395874023437
1700075029,1.0884857177734375,0.0498809814453125,-0.0655975341796875,0.343516081571579,0.5103405117988586,0.9289166927337646,98.99510192871094,-51.21391296386719,271.1066589355469
1700075029,1.14971923828125,0.1418914794921875,-0.0208740234375,0.1525807529687881,0.5335683226585388,0.7008105516433716,98.36100769042967,-50.64930725097656,270.7628173828125
1700075029,1.1322021484375,0.21661376953125,-0.01910400390625,-0.0407202653586864,0.6152330636978149,0.5175067782402039,98.46885681152344,-50.23089599609375,270.78106689453125
1700075029,1.0648956298828125,0.192626953125,-0.024566650390625,-0.1840028613805771,0.6725531220436096,0.4169695377349853,98.28280639648438,-49.69015502929688,271.3598022460937
1700075029,1.0244140625,0.045074462890625,-0.0609283447265625,-0.3103461563587188,0.6549251079559326,0.3979993164539337,97.9464874267578,-49.417236328125,271.6990966796875
1700075029,1.0144500732421875,-0.0538330078125,-0.1623077392578125,-0.3242425322532654,0.5673153400421143,0.4116021990776062,97.80792236328124,-48.97569274902344,271.8147888183594
1700075029,1.0237579345703125,-0.1021270751953125,-0.2237091064453125,-0.2455088347196579,0.462199330329895,0.4291329979896545,97.461669921875,-48.69354248046875,271.9652099609375
1700075029,1.021484375,-0.142242431640625,-0.2295074462890625,-0.1312762647867202,0.3886939585208893,0.4613167643547058,97.54161071777344,-48.03146362304688,272.19171142578125
1700075029,0.9861297607421876,-0.122467041015625,-0.2169189453125,0.0172354467213153,0.3305369019508362,0.4804885983467102,96.96058654785156,-48.07368469238281,272.2479553222656
1700075029,0.970428466796875,-0.0431365966796875,-0.207763671875,0.1697368323802948,0.2634010016918182,0.439154714345932,96.81759643554688,-47.93461608886719,272.95611572265625
1700075029,0.9978179931640624,-0.003936767578125,-0.16876220703125,0.2383502572774887,0.2477962225675583,0.400518387556076,96.92938232421876,-47.923583984375,273.1866455078125
1700075029,1.0164337158203125,0.0150299072265625,-0.14068603515625,0.2126576751470565,0.2419825345277786,0.3768540620803833,96.55380249023438,-47.78569030761719,273.63623046875
1700075029,1.0282135009765625,0.0073394775390625,-0.147216796875,0.1067123338580131,0.2243065983057022,0.3684605956077575,96.55068969726562,-47.71260070800781,273.171875
1700075029,1.0271148681640625,-0.0240020751953125,-0.1581268310546875,-0.0418031066656112,0.218003436923027,0.373363733291626,96.10800170898438,-47.2294921875,272.98248291015625
1700075029,1.0176239013671875,-0.0550537109375,-0.1529998779296875,-0.1828579604625702,0.2177501618862152,0.3894417583942413,96.25662231445312,-46.47215270996094,273.43780517578125
1700075029,1.0108489990234375,-0.0668792724609375,-0.13031005859375,-0.2662007808685303,0.2300449162721634,0.4012036025524139,95.75079345703124,-45.62481689453125,272.131103515625
1700075029,1.003448486328125,-0.0740509033203125,-0.1205291748046875,-0.2354958802461624,0.2236496061086654,0.4033951461315155,94.86509704589844,-44.607025146484375,271.8215026855469
1700075029,0.981292724609375,-0.0651397705078125,-0.141204833984375,-0.1447443962097168,0.1964792311191558,0.3971574902534485,94.499267578125,-43.59205627441406,270.4172668457031
1700075029,0.969757080078125,-0.035736083984375,-0.1826171875,-0.0593450814485549,0.1667594164609909,0.3698933720588684,93.85519409179688,-42.366973876953125,269.7222595214844
1700075029,0.987457275390625,-0.0175628662109375,-0.1964263916015625,0.000662594451569,0.1479130238294601,0.3347969055175781,92.83213806152344,-41.13623046875,269.01873779296875
1700075029,1.0037841796875,-0.01263427734375,-0.1802520751953125,0.0377915874123573,0.1341072022914886,0.3341510891914367,91.80889892578124,-39.99806213378906,267.80145263671875
1700075029,0.9933624267578124,0.0171966552734375,-0.177978515625,0.0574683509767055,0.1225765123963356,0.3277304768562317,90.741943359375,-38.68571472167969,266.45654296875
1700075029,0.99468994140625,0.04083251953125,-0.1489105224609375,0.0836232602596283,0.1475827991962433,0.3090462684631347,89.6785888671875,-37.673187255859375,265.01043701171875
1700075029,0.9983978271484376,0.0151519775390625,-0.0924224853515625,0.1134618446230888,0.1874157041311264,0.3332831561565399,88.57707214355469,-36.52291870117188,265.099365234375
1700075029,0.9721832275390624,-0.0358428955078125,-0.10076904296875,0.1314339190721511,0.1937273889780044,0.4050585329532623,87.5416259765625,-35.54231262207031,264.15692138671875
1700075029,0.9449615478515624,-0.1053314208984375,-0.1612396240234375,0.1472238004207611,0.1895507574081421,0.4725563526153564,86.35986328125,-34.76802062988281,263.560791015625
1700075029,0.936737060546875,-0.17791748046875,-0.179351806640625,0.1374518722295761,0.19760362803936,0.5571396946907043,85.4964599609375,-33.666046142578125,263.7230834960937
1700075029,0.9248809814453124,-0.196319580078125,-0.180084228515625,0.0796602070331573,0.2075846195220947,0.6221998929977417,83.91218566894531,-32.74964904785156,262.0189208984375
1700075029,0.925567626953125,-0.16424560546875,-0.1928253173828125,0.0384363383054733,0.2129588723182678,0.6586514115333557,83.09471130371094,-31.69258117675781,262.21490478515625
1700075029,0.93902587890625,-0.1089324951171875,-0.207611083984375,0.0086291749030351,0.2038703113794326,0.6923611760139465,81.86700439453125,-31.263168334960938,261.4296264648437
1700075029,0.9598388671875,-0.0424957275390625,-0.203216552734375,-0.0428886115550994,0.2004076689481735,0.7162840962409973,80.73165893554688,-30.65093994140625,261.0099792480469
1700075029,0.981414794921875,0.0159759521484375,-0.1815032958984375,-0.0501691624522209,0.2024018317461013,0.7225571274757385,80.18185424804688,-30.178726196289062,260.99615478515625
1700075029,0.9864349365234376,0.04473876953125,-0.1641845703125,-0.0045904908329248,0.2076027244329452,0.7190417647361755,79.09913635253906,-29.531051635742188,260.2239074707031
1700075029,0.9860992431640624,0.0489501953125,-0.1638031005859375,0.0683209970593452,0.2081228345632553,0.7103034257888794,78.47883605957031,-28.75962829589844,260.1796264648437
1700075029,0.9977264404296876,0.0397796630859375,-0.16888427734375,0.1227213889360427,0.2162926197052002,0.7231425046920776,77.94235229492188,-28.258468627929688,260.351806640625
1700075029,1.015533447265625,0.01708984375,-0.1561126708984375,0.1004770696163177,0.2212674021720886,0.7636966109275818,77.35481262207031,-28.043670654296875,259.1908569335937
1700075029,1.011871337890625,-0.0021209716796875,-0.1638641357421875,0.0560078769922256,0.2199478149414062,0.8272830247879028,76.74758911132812,-27.44464111328125,258.7237854003906
1700075029,0.9897918701171876,-0.0172882080078125,-0.178253173828125,0.0963467732071876,0.2184090316295623,0.8897495865821838,76.55793762207031,-27.434738159179688,258.523681640625
1700075029,0.9723968505859376,-0.0204620361328125,-0.1997833251953125,0.2021781355142593,0.2107492536306381,0.916492521762848,76.46807861328125,-27.47821044921875,258.1185913085937
1700075029,0.986419677734375,-0.004974365234375,-0.2198333740234375,0.2774196267127991,0.1959442049264907,0.9280168414115906,76.44992065429688,-26.67588806152344,257.40362548828125
1700075029,0.992431640625,0.0514373779296875,-0.1964569091796875,0.2667456865310669,0.2129961550235748,0.9594743251800536,76.39752197265625,-26.92686462402344,256.43524169921875
1700075029,0.9705047607421876,0.114959716796875,-0.154754638671875,0.202701449394226,0.2464121729135513,0.9784150123596193,77.05426025390625,-26.79927062988281,255.70606994628903
1700075029,0.948638916015625,0.1222381591796875,-0.1582794189453125,0.1300807744264602,0.2817690968513489,1.0037277936935425,77.45138549804688,-27.135711669921875,255.1688842773437
1700075029,0.931915283203125,0.0778350830078125,-0.1815338134765625,0.0219774711877107,0.3068576753139496,1.0579324960708618,78.33502197265625,-27.40589904785156,254.2960662841797
1700075029,0.9241943359375,0.03033447265625,-0.191680908203125,-0.1151580139994621,0.3134327530860901,1.1246646642684937,78.92189025878906,-27.21713256835937,252.8738250732422
1700075029,0.9297637939453124,-0.00067138671875,-0.2172698974609375,-0.2060807347297668,0.3144508898258209,1.1858015060424805,80.44500732421875,-27.923797607421875,252.6893005371093
1700075029,0.9433746337890624,-0.0030517578125,-0.250274658203125,-0.2147250771522522,0.29688760638237,1.2157013416290283,81.66914367675781,-28.671859741210938,251.97915649414065
1700075029,0.9695281982421876,0.0326080322265625,-0.263092041015625,-0.0949917584657669,0.2466867417097091,1.2377922534942627,82.96000671386719,-28.777847290039062,250.94137573242188
1700075029,0.994537353515625,0.144378662109375,-0.2114715576171875,0.0188554469496011,0.2164694517850875,1.261375069618225,84.40939331054688,-29.78131103515625,249.9760284423828
1700075029,1.010772705078125,0.3078460693359375,-0.157928466796875,0.1641511172056198,0.2318036705255508,1.2049304246902466,86.13653564453125,-30.463653564453125,249.8676605224609
1700075029,1.039947509765625,0.3746490478515625,-0.1315155029296875,0.3659952878952026,0.253773421049118,1.151762843132019,87.72447204589844,-31.071762084960938,249.83531188964844
1700075029,1.0515289306640625,0.364837646484375,-0.1616363525390625,0.4768467247486114,0.2299533039331436,1.1381850242614746,89.93937683105469,-32.23663330078125,249.75454711914065
1700075029,1.0620574951171875,0.2968597412109375,-0.1776580810546875,0.4897598624229431,0.204571783542633,1.1779190301895142,91.86228942871094,-33.51914978027344,248.9804534912109
1700075029,1.0623321533203125,0.198883056640625,-0.190826416015625,0.4521757066249847,0.1478248834609985,1.2439640760421753,94.15744018554688,-34.73280334472656,249.4193725585937
1700075029,1.0912933349609375,0.1417083740234375,-0.249725341796875,0.4005793631076813,0.0983625203371048,1.3273780345916748,96.44808959960938,-36.264190673828125,249.19058227539065
1700075029,1.1228485107421875,0.1336669921875,-0.269317626953125,0.4113366901874542,0.074552796781063,1.3968956470489502,98.33798217773438,-37.54814147949219,249.96121215820312
1700075029,1.1476593017578125,0.153472900390625,-0.199127197265625,0.4257033765316009,0.0512778349220752,1.4664249420166016,100.232421875,-39.58412170410156,250.5669403076172
1700075029,1.1656494140625,0.200897216796875,-0.1701507568359375,0.4056862592697143,0.0177188087254762,1.5375696420669556,102.653076171875,-41.486175537109375,250.9778747558593
1700075029,1.192718505859375,0.24200439453125,-0.16259765625,0.3855687379837036,-0.008593488484621,1.619126796722412,104.1820831298828,-43.46812438964844,251.7431030273437
1700075029,1.226593017578125,0.249847412109375,-0.1140289306640625,0.3670634925365448,-0.020480241626501,1.7338787317276,106.33921813964844,-45.53488159179688,252.00474548339844
1700075029,1.2515869140625,0.22735595703125,-0.087646484375,0.3287019729614258,-0.0403391681611537,1.8629070520401,107.68142700195312,-48.55726623535156,252.40997314453125
1700075029,1.2913818359375,0.163848876953125,-0.0800628662109375,0.3155819177627563,-0.0562550164759159,2.042573928833008,109.1961669921875,-51.12379455566406,253.5792236328125
1700075029,1.3286285400390625,0.0962982177734375,-0.0593109130859375,0.320348173379898,-0.069566823542118,2.220021724700928,110.7808837890625,-53.46321105957031,254.4547119140625
1700075029,1.3806304931640625,0.02642822265625,-0.0433807373046875,0.333315372467041,-0.1395376622676849,2.362497091293335,111.74986267089844,-56.395263671875,255.1669311523437
1700075030,1.512939453125,-0.03875732421875,-0.0355224609375,0.3006000518798828,-0.2577910721302032,2.474648952484131,112.5421142578125,-59.15472412109375,256.13238525390625
1700075030,1.7413177490234375,-0.0966644287109375,-0.0583648681640625,0.2357049286365509,-0.3386155962944031,2.56327223777771,112.80584716796876,-61.95137023925781,256.6353454589844
1700075030,1.9915924072265625,-0.2087860107421875,-0.0428924560546875,0.1738596707582473,-0.4068516492843628,2.625102996826172,113.3581085205078,-64.87855529785156,257.9091186523437
1700075030,2.2014312744140625,-0.3946990966796875,0.063568115234375,0.2135884463787078,-0.3900449872016907,2.6593172550201416,113.9704132080078,-67.62287902832031,258.62750244140625
1700075030,2.352157592773437,-0.5867462158203125,0.1085052490234375,0.4872937500476837,-0.3366459310054779,2.739340305328369,113.62278747558594,-70.60031127929688,260.1085510253906
1700075030,2.2790069580078125,-0.7171630859375,0.0857086181640625,0.6887166500091553,-0.2134883105754852,2.816147327423096,113.51174926757812,-72.76402282714844,261.5341796875
1700075030,1.8941802978515625,-0.7724151611328125,-0.2176361083984375,0.2104717493057251,-0.0255144145339727,2.950836420059204,113.08283996582033,-74.83090209960938,262.7210693359375
1700075030,1.4278411865234375,-0.6556396484375,-0.820587158203125,-0.5339182615280151,0.0629257038235664,3.124118566513061,112.99484252929688,-77.49638366699219,262.75750732421875
1700075030,1.14337158203125,-0.461151123046875,-1.186431884765625,-1.2918291091918943,-0.0929818749427795,3.337127447128296,112.37844848632812,-79.35475158691406,263.6806640625
1700075030,1.0155487060546875,-0.242523193359375,-1.2704620361328125,-2.01685643196106,-0.2361861616373062,3.312984704971313,111.92027282714844,-81.45928955078125,264.5461120605469
1700075030,1.031585693359375,-0.1409454345703125,-1.342437744140625,-2.5883584022521973,-0.2507565915584564,3.0984957218170166,111.28030395507812,-82.77708435058594,265.2603454589844
1700075030,1.102386474609375,-0.0639495849609375,-1.3702392578125,-2.7880399227142334,-0.1861104816198349,2.94313907623291,110.6949462890625,-84.24925231933594,265.90679931640625
1700075030,1.06085205078125,0.0812530517578125,-1.2770843505859375,-2.6251749992370605,-0.2132187932729721,2.830129384994507,110.07948303222656,-85.34397888183594,265.4869384765625
1700075030,0.937408447265625,0.2566986083984375,-0.9803314208984376,-2.54414963722229,-0.5025134682655334,2.618802309036255,109.49737548828124,-85.8780517578125,265.62921142578125
1700075030,0.9477386474609376,0.4638214111328125,-0.53924560546875,-2.5890161991119385,-0.6828640699386597,2.3136024475097656,109.33016967773438,-86.8472900390625,266.03253173828125
1700075030,0.9455108642578124,0.7447662353515625,-0.280120849609375,-2.6456031799316406,-0.645557701587677,1.894095778465271,108.812744140625,-86.32691955566406,266.335693359375
1700075030,0.837677001953125,0.8936767578125,-0.30255126953125,-2.140974998474121,-0.7879212498664856,1.3247798681259155,108.58285522460938,-86.24873352050781,266.2176513671875
1700075030,0.838287353515625,0.5343170166015625,-0.132476806640625,-1.485241174697876,-1.0168406963348389,0.8165494203567505,108.33625793457033,-85.81520080566406,265.73651123046875
1700075030,0.7983245849609375,0.08135986328125,-0.05950927734375,-1.1858638525009155,-1.1197636127471924,0.5576896071434021,108.49411010742188,-85.77436828613281,265.72186279296875
1700075030,0.6139068603515625,-0.0652008056640625,-0.2645111083984375,-1.226567268371582,-1.139675498008728,0.5146667957305908,108.41026306152344,-84.96028137207031,265.4129638671875
1700075030,0.42303466796875,-0.063018798828125,-0.503143310546875,-1.4786871671676636,-1.152307152748108,0.4888083040714264,108.47293090820312,-84.62049865722656,265.5541381835937
1700075030,0.3831024169921875,-0.0537567138671875,-0.7017974853515625,-1.808253288269043,-1.2124896049499512,0.4162603318691253,108.52793884277344,-83.71087646484375,264.9364013671875
1700075030,0.4552154541015625,-0.0309600830078125,-0.82550048828125,-2.202484607696533,-1.293796420097351,0.3026205897331238,108.40293884277344,-83.19544982910156,264.6029663085937
1700075030,0.5634307861328125,0.0294189453125,-0.8742523193359375,-2.5920350551605225,-1.398279905319214,0.1580905616283416,108.37385559082033,-82.86042785644531,264.0780029296875
1700075030,0.6694488525390625,0.120391845703125,-0.847442626953125,-2.895223379135132,-1.4796240329742432,-0.0358477458357811,108.48851013183594,-82.85806274414062,264.43170166015625
1700075030,0.7462310791015625,0.2218017578125,-0.787078857421875,-3.1225600242614746,-1.558688044548035,-0.2454054951667785,108.04745483398438,-83.18496704101562,263.9437866210937
1700075030,0.733428955078125,0.3319549560546875,-0.7681121826171875,-3.2667062282562256,-1.6300511360168457,-0.4229643046855926,107.84098815917967,-83.96812438964844,263.9125366210937
1700075030,0.6514892578125,0.424560546875,-0.8350982666015625,-3.29561185836792,-1.6826720237731934,-0.5133123397827148,107.69229125976562,-83.55972290039062,263.42510986328125
1700075030,0.5593719482421875,0.487518310546875,-0.9202117919921876,-3.2623534202575684,-1.7388383150100708,-0.5687545537948608,107.42291259765624,-82.43388366699219,262.8951110839844
1700075030,0.5206146240234375,0.5400543212890625,-0.9534454345703124,-3.166422843933105,-1.824159383773804,-0.6386646628379822,107.60726928710938,-81.40455627441406,262.3082275390625
1700075030,0.55322265625,0.5963287353515625,-0.92144775390625,-3.020688056945801,-1.916679739952088,-0.70480877161026,108.1805419921875,-80.19195556640625,261.90673828125
1700075030,0.5925750732421875,0.676971435546875,-0.884307861328125,-2.883675098419189,-1.962153911590576,-0.7830548286437988,107.7581024169922,-79.60992431640625,261.0389404296875
1700075030,0.598297119140625,0.740997314453125,-0.8895416259765625,-2.7558183670043945,-1.978678584098816,-0.8830581307411194,107.78053283691406,-78.39888000488281,260.4203796386719
1700075030,0.58251953125,0.74432373046875,-0.8968658447265625,-2.5884530544281006,-1.9675668478012085,-0.9596943259239196,107.95892333984376,-77.84780883789062,259.4599609375
1700075030,0.5601043701171875,0.6947784423828125,-0.909149169921875,-2.402116775512696,-1.9375314712524407,-0.9740748405456544,107.59373474121094,-76.86763000488281,259.32427978515625
1700075030,0.5108795166015625,0.6622161865234375,-0.938018798828125,-2.2411205768585205,-1.9140727519989007,-0.9818323850631714,107.26429748535156,-76.72727966308594,258.52520751953125
1700075030,0.4859771728515625,0.6333770751953125,-0.9674072265625,-2.0930562019348145,-1.900514841079712,-1.0390969514846802,107.22767639160156,-76.10490417480469,258.0902709960937
1700075030,0.5027618408203125,0.59283447265625,-0.9870758056640624,-1.929693460464477,-1.8506826162338257,-1.1113927364349363,107.00852966308594,-75.87153625488281,257.7508544921875
1700075030,0.50494384765625,0.5563201904296875,-0.986907958984375,-1.8271559476852417,-1.7806392908096311,-1.1897456645965576,107.1513671875,-75.30381774902344,257.9563293457031
1700075030,0.4751739501953125,0.5204925537109375,-0.973388671875,-1.789132595062256,-1.7034358978271484,-1.2583595514297483,107.0416259765625,-74.96588134765625,257.2779541015625
1700075030,0.43878173828125,0.477081298828125,-0.949371337890625,-1.7899187803268433,-1.6339939832687378,-1.3292694091796875,106.99549865722656,-74.21267700195312,256.87945556640625
1700075030,0.415313720703125,0.413116455078125,-0.93133544921875,-1.7891358137130735,-1.570406436920166,-1.3964447975158691,106.61862182617188,-73.39283752441406,256.61260986328125
1700075030,0.40460205078125,0.3474884033203125,-0.8936309814453125,-1.773256778717041,-1.4940261840820312,-1.4548518657684326,106.8814697265625,-72.98780822753906,256.15576171875
1700075030,0.3903961181640625,0.30859375,-0.8412628173828125,-1.7470717430114746,-1.425620198249817,-1.548464059829712,106.97181701660156,-72.95356750488281,255.9667510986328
1700075030,0.3756561279296875,0.3012847900390625,-0.781494140625,-1.7215887308120728,-1.348340630531311,-1.6742606163024902,106.63298034667967,-72.28218078613281,255.7171630859375
1700075030,0.3629302978515625,0.308319091796875,-0.731475830078125,-1.7153217792510986,-1.2461609840393066,-1.800842523574829,106.73135375976562,-72.38319396972656,255.327392578125
1700075030,0.347503662109375,0.3112945556640625,-0.7136077880859375,-1.7318272590637207,-1.1683138608932495,-1.891475796699524,106.67082214355467,-72.36610412597656,255.122314453125
1700075030,0.3566131591796875,0.3076629638671875,-0.703948974609375,-1.7425848245620728,-1.123603343963623,-1.9365642070770264,106.25523376464844,-71.83766174316406,254.996810913086
1700075030,0.3821563720703125,0.3166046142578125,-0.683929443359375,-1.7858068943023682,-1.0692272186279297,-1.985323667526245,106.44314575195312,-72.04603576660156,254.44406127929688
1700075030,0.3955230712890625,0.338958740234375,-0.6736297607421875,-1.7914988994598389,-1.0238224267959597,-2.050378799438477,106.32278442382812,-71.77421569824219,254.2574920654297
1700075030,0.3931121826171875,0.365478515625,-0.66619873046875,-1.7394931316375732,-0.9911044239997864,-2.125459909439087,106.42366027832033,-71.37455749511719,254.2759246826172
1700075030,0.3921661376953125,0.388702392578125,-0.6140594482421875,-1.6861841678619385,-0.941512644290924,-2.167572259902954,106.3900909423828,-71.38262939453125,254.0827789306641
1700075030,0.3950653076171875,0.401031494140625,-0.5811767578125,-1.6282031536102295,-0.8886885643005371,-2.165440082550049,106.5806884765625,-71.18379211425781,254.0808563232422
1700075030,0.391815185546875,0.417236328125,-0.556884765625,-1.5671576261520386,-0.8538307547569275,-2.108471870422364,106.17771911621094,-70.8538818359375,253.4746856689453
