timestamp,acc-x,acc-y,acc-z,gyr-x,gyr-y,gyr-z,mag-x,mag-y,mag-z
1700075666,0.4000701904296875,-0.75067138671875,-0.00958251953125,-0.1794206202030182,-0.9046169519424438,-3.2976324558258057,89.46385192871094,-26.967437744140625,265.3835144042969
1700075666,0.34283447265625,-0.42901611328125,-0.1948089599609375,-0.3502176702022552,-0.8911746740341187,-3.394392728805542,89.00416564941406,-26.8944091796875,264.5306701660156
1700075666,0.4072265625,-0.26007080078125,-0.2710723876953125,-0.6342179775238037,-0.8972477316856384,-3.656797409057617,88.50752258300781,-26.899688720703125,264.70611572265625
1700075666,0.479949951171875,-0.161346435546875,-0.2747955322265625,-0.8207204341888428,-0.90997976064682,-3.984999418258667,88.41368103027344,-27.24131774902344,264.7108764648437
1700075666,0.5354156494140625,-0.0330963134765625,-0.2374725341796875,-0.7580464482307434,-0.9247355461120604,-4.327771186828613,89.51376342773438,-27.77105712890625,264.32525634765625
1700075666,0.6356964111328125,0.08172607421875,-0.189727783203125,-0.516817569732666,-0.9914570450782776,-4.552209377288818,90.436279296875,-28.31951904296875,264.4547119140625
1700075666,0.7787322998046875,0.21234130859375,-0.1216583251953125,-0.3567008674144745,-1.1929603815078735,-4.610166549682617,91.08049011230467,-29.343338012695312,265.16192626953125
1700075666,0.940673828125,0.37078857421875,-0.0411529541015625,-0.3838011920452118,-1.4361671209335327,-4.560697555541992,92.46101379394533,-30.33702087402344,265.6937255859375
1700075666,1.0929412841796875,0.5353240966796875,0.010101318359375,-0.3250460028648376,-1.5278171300888062,-4.498725891113281,93.6445770263672,-31.24433898925781,266.6268920898437
1700075666,1.210723876953125,0.619781494140625,-0.06488037109375,0.0872805789113044,-1.548656940460205,-4.508596420288086,94.7182159423828,-32.572174072265625,267.1210327148437
1700075666,1.331878662109375,0.6345367431640625,-0.160675048828125,0.5382128953933716,-1.59865403175354,-4.487813949584961,96.1938934326172,-33.645599365234375,266.7577514648437
1700075666,1.4147186279296875,0.7225799560546875,-0.254730224609375,0.5232229828834534,-1.6450998783111572,-4.482416152954102,97.6484375,-35.16851806640625,267.8466796875
1700075666,1.4417266845703125,0.82958984375,-0.3687896728515625,0.1374577283859253,-1.4257214069366455,-4.423925876617432,98.7500457763672,-36.52267456054688,268.920654296875
1700075666,1.3895263671875,0.9470977783203124,-0.5583038330078125,-0.251082569360733,-1.2379003763198853,-4.298044681549072,100.17893981933594,-38.486572265625,269.4252319335937
1700075667,1.3468170166015625,1.025970458984375,-0.5918121337890625,-0.602816104888916,-1.2415409088134766,-4.186111927032471,101.88400268554688,-40.17439270019531,269.4947204589844
1700075667,1.3373565673828125,1.0146331787109375,-0.504119873046875,-0.8502644896507263,-1.200995922088623,-4.036471366882324,102.88557434082033,-41.96315002441406,269.46160888671875
1700075667,1.3258209228515625,0.992279052734375,-0.47576904296875,-0.7248415946960449,-1.1622570753097534,-3.751338005065918,103.88168334960938,-44.07353210449219,270.4227600097656
1700075667,1.3465118408203125,1.0375213623046875,-0.4135894775390625,-0.3534339666366577,-1.2582250833511353,-3.3570261001586914,105.01275634765624,-45.59669494628906,271.2991638183594
1700075667,1.3923492431640625,1.117828369140625,-0.342071533203125,-0.1567962765693664,-1.379886031150818,-3.042929410934448,105.75030517578124,-47.54826354980469,271.64263916015625
1700075667,1.3798065185546875,1.1302947998046875,-0.33843994140625,-0.0223180893808603,-1.3573650121688845,-2.816212177276612,106.62179565429688,-48.945587158203125,273.0130615234375
1700075667,1.2546234130859375,1.0587310791015625,-0.276336669921875,0.0854291468858718,-1.2013261318206787,-2.5957863330841064,107.22842407226562,-50.88655090332031,273.510498046875
1700075667,1.10498046875,0.8886260986328125,-0.2605438232421875,0.1392489671707153,-1.006981372833252,-2.325400352478028,107.5022430419922,-52.48826599121094,274.19415283203125
1700075667,1.00372314453125,0.677398681640625,-0.3178863525390625,0.1267243921756744,-0.8869306445121765,-2.0048694610595703,108.25868225097656,-54.29852294921875,274.7151184082031
1700075667,0.975067138671875,0.54901123046875,-0.394378662109375,0.0672602653503418,-0.8629304766654968,-1.5807384252548218,108.53106689453124,-56.03788757324219,275.23095703125
1700075667,0.9384002685546876,0.553802490234375,-0.4437408447265625,-0.0199555978178977,-0.7995784282684326,-1.1347113847732544,109.27682495117188,-57.79676818847656,275.846923828125
1700075667,0.7982940673828125,0.5981597900390625,-0.5071563720703125,-0.0097490334883332,-0.5911237597465515,-0.7530247569084167,109.4773406982422,-59.45846557617188,276.51336669921875
1700075667,0.5686492919921875,0.6194610595703125,-0.488189697265625,0.1670824587345123,-0.2994884550571441,-0.4178651571273803,109.30181884765624,-61.23190307617188,276.61920166015625
1700075667,0.3780670166015625,0.6277313232421875,-0.3364715576171875,0.3011667728424072,0.0253231991082429,-0.0606942400336265,109.85850524902344,-61.856964111328125,277.4786682128906
1700075667,0.3459930419921875,0.6416168212890625,-0.2061309814453125,0.3602319359779358,0.2798377871513366,0.2446944415569305,110.33261108398438,-63.12026977539063,278.4471130371094
1700075667,0.5224456787109375,0.5506134033203125,-0.17852783203125,0.3590465784072876,0.3915073275566101,0.4960949718952179,110.13449096679688,-64.55990600585938,278.5382080078125
1700075667,0.7368011474609375,0.3960723876953125,-0.1845245361328125,0.2148262858390808,0.4481125473976135,0.7188252806663513,110.27140808105467,-65.77090454101562,279.3310852050781
1700075667,0.8267669677734375,0.2457275390625,-0.230682373046875,-0.1798699051141739,0.5729886889457703,1.0116733312606812,110.62727355957033,-67.11163330078125,279.8078918457031
1700075667,0.81829833984375,0.197052001953125,-0.3863677978515625,-0.7505083680152893,1.1177852153778076,1.204148530960083,110.49014282226562,-68.5927734375,279.84429931640625
1700075667,0.6162109375,0.189483642578125,-0.885101318359375,-1.2747262716293335,1.218253493309021,1.2123366594314575,110.73773193359376,-69.80360412597656,281.17413330078125
1700075667,0.6236114501953125,0.1146240234375,-0.8610687255859375,-1.2103183269500732,1.0683119297027588,1.2287678718566897,110.6862335205078,-70.6239013671875,281.8519897460937
1700075667,1.11175537109375,0.047515869140625,-0.628265380859375,-0.8577999472618103,4.003748893737793,2.072378396987915,110.71060180664062,-71.6370849609375,282.03155517578125
1700075667,0.1233978271484375,0.82342529296875,-3.14373779296875,0.152289405465126,2.254298448562622,2.5886383056640625,110.8009033203125,-72.31141662597656,281.8594970703125
1700075667,0.8094940185546875,1.1460113525390625,-1.5299835205078125,-0.0475648567080497,-1.4125137329101562,1.350427508354187,110.97801208496094,-72.48873901367188,282.6224975585937
1700075667,4.326385498046875,-0.52685546875,1.5637969970703125,0.7705938816070557,0.7259153723716736,-0.1451209783554077,110.88754272460938,-72.36306762695312,282.948974609375
1700075667,2.871932983398437,-1.2310943603515625,-0.1392822265625,1.6336631774902344,1.666731595993042,0.3015241622924804,111.01229858398438,-72.4525146484375,282.8887023925781
1700075667,0.979400634765625,-0.745758056640625,1.0733795166015625,1.2344765663146973,1.5818973779678345,1.346695065498352,111.36517333984376,-72.11566162109375,283.4368591308594
1700075667,0.3725433349609375,-0.5347900390625,0.6904754638671875,-0.2034417986869812,1.2579715251922607,1.7603633403778076,111.07687377929688,-72.09934997558594,282.99041748046875
1700075667,0.29437255859375,-0.5334930419921875,-0.2816162109375,-1.1797609329223633,1.2211456298828125,1.3761831521987915,111.51649475097656,-71.60406494140625,282.817138671875
1700075667,0.6700286865234375,-0.7034149169921875,-0.5269012451171875,-1.2735222578048706,1.255560278892517,0.9304760098457336,111.74761962890624,-71.04798889160156,283.3688659667969
1700075667,1.352386474609375,-0.6147918701171875,-0.3466796875,-1.214228868484497,0.9615212678909302,1.1893466711044312,112.00660705566406,-70.5999755859375,283.32086181640625
1700075667,1.90911865234375,-0.057037353515625,-0.3028411865234375,-1.2581886053085327,0.4683155417442322,1.654839038848877,112.24703979492188,-69.55131530761719,283.43267822265625
1700075667,2.0861053466796875,0.37261962890625,-0.208221435546875,-1.1921414136886597,-0.2157940715551376,1.927396774291992,112.73728942871094,-68.53330993652344,282.76171875
1700075667,2.00140380859375,0.5954437255859375,0.3048248291015625,-1.740800857543945,0.081571027636528,1.6809406280517578,113.06149291992188,-67.35664367675781,280.8538818359375
1700075667,2.1402130126953125,0.48052978515625,0.3287506103515625,-0.8646761775016785,1.0510882139205933,1.1877381801605225,113.71627807617188,-65.657470703125,279.966552734375
1700075667,2.347137451171875,-0.1617431640625,0.4636077880859375,0.2082272320985794,1.474598407745361,1.231828689575195,113.85433959960938,-65.04643249511719,280.51336669921875
1700075667,1.80780029296875,-0.1721649169921875,0.0370635986328125,0.4388090372085571,1.2095904350280762,1.8768057823181152,114.1824951171875,-65.67941284179688,281.38336181640625
1700075667,1.0211944580078125,0.219207763671875,-0.578948974609375,0.7441351413726807,0.5774606466293335,1.950135588645935,114.56527709960938,-66.026611328125,280.368896484375
1700075667,0.62701416015625,0.2117156982421875,-0.730499267578125,0.4825024604797363,0.006590524688363,1.4087320566177368,115.54388427734376,-65.72918701171875,278.64825439453125
1700075667,0.4291839599609375,0.3557281494140625,-0.8311920166015625,0.2575777471065521,0.0027273432351648,0.8727916479110718,115.47337341308594,-65.23980712890625,278.6625671386719
1700075667,0.5142974853515625,0.7398223876953125,-0.443023681640625,0.3904106318950653,0.3315856456756592,0.4646552801132202,115.54025268554688,-64.83718872070312,278.003173828125
1700075667,0.7208709716796875,0.8559417724609375,0.0460052490234375,0.6700212359428406,0.4542282223701477,0.1969940215349197,116.08932495117188,-64.32969665527344,277.51287841796875
1700075667,0.8981475830078125,0.5095977783203125,-0.0961151123046875,0.7721773982048035,0.4004454016685486,0.1560151726007461,115.72380065917967,-63.469970703125,277.4005126953125
1700075667,1.0556182861328125,0.2722930908203125,-0.331329345703125,0.6598993539810181,0.3680885434150696,0.1985413283109665,115.98211669921876,-62.46673583984375,276.5155639648437
1700075667,1.1247711181640625,0.0124664306640625,-0.3880462646484375,0.4510425329208374,0.4252122938632965,0.3434756100177765,115.98957824707033,-61.63742065429688,275.70068359375
1700075667,1.0912322998046875,-0.215179443359375,-0.398101806640625,0.2179424464702606,0.4332790076732635,0.7119255661964417,115.88009643554688,-60.33200073242188,275.4828491210937
1700075667,0.9863433837890624,-0.284515380859375,-0.4188232421875,0.0562499575316906,0.3840126395225525,1.1340309381484983,116.18724060058594,-59.6456298828125,274.8651123046875
1700075667,0.8396148681640625,-0.243927001953125,-0.4676361083984375,0.0080557959154248,0.3331513404846191,1.3443142175674438,116.04771423339844,-58.90673828125,274.920654296875
1700075667,0.73638916015625,0.002899169921875,-0.425079345703125,-0.0678610727190971,0.293902188539505,1.247261643409729,115.66799926757812,-57.74580383300781,274.55206298828125
1700075667,0.734893798828125,0.3753814697265625,-0.3100433349609375,-0.0668235048651695,0.3773797750473022,0.9165013432502748,114.80987548828124,-56.552581787109375,274.1427001953125
1700075667,0.816558837890625,0.5861968994140625,-0.2218170166015625,0.2647379040718078,0.538258969783783,0.6197983026504517,115.01963806152344,-55.90553283691406,274.2380676269531
1700075667,0.96917724609375,0.5783538818359375,-0.192840576171875,0.7397227883338928,0.5882731080055237,0.5668908357620239,114.9781494140625,-55.287017822265625,274.9228515625
1700075667,1.0619659423828125,0.3735198974609375,-0.242401123046875,1.0749458074569702,0.6174573302268982,0.7016878128051758,114.85066223144533,-55.4146728515625,274.0692443847656
1700075667,1.0314788818359375,0.1100006103515625,-0.31231689453125,1.1643375158309937,0.6636070013046265,0.9691104888916016,114.65242004394533,-55.35786437988281,274.26300048828125
1700075667,0.9278411865234376,-0.1044464111328125,-0.371795654296875,0.9750801920890808,0.7019594311714172,1.285899639129639,114.53208923339844,-55.13786315917969,274.4806823730469
1700075667,0.8428802490234375,-0.2024078369140625,-0.4352264404296875,0.694937527179718,0.7405060529708862,1.618205428123474,114.81199645996094,-55.56547546386719,273.66455078125
1700075667,0.787750244140625,-0.1539306640625,-0.4647674560546875,0.4677509665489197,0.7878612875938416,1.818387985229492,114.97537231445312,-55.02742004394531,274.2741394042969
1700075667,0.7836456298828125,0.0270538330078125,-0.4735260009765625,0.4271582663059234,0.7899835705757141,1.832058310508728,114.7003173828125,-54.76019287109375,274.7657775878906
1700075667,0.7939300537109375,0.297088623046875,-0.4123077392578125,0.4805644750595093,0.8104398846626282,1.7039567232131958,114.57899475097656,-54.47544860839844,274.4728698730469
1700075667,0.8505096435546875,0.520294189453125,-0.3403778076171875,0.6480022072792053,0.8514978289604187,1.5894155502319336,114.80842590332033,-53.99482727050781,274.73687744140625
1700075667,0.95379638671875,0.611968994140625,-0.3066864013671875,0.86574387550354,0.8628413081169128,1.5540721416473389,114.4656219482422,-53.68719482421875,274.2628479003906
1700075667,1.0237579345703125,0.4862060546875,-0.3275146484375,1.0279213190078735,0.8312979936599731,1.6591781377792358,113.97706604003906,-53.242431640625,274.09136962890625
1700075667,0.94036865234375,0.32049560546875,-0.3947296142578125,0.9531418681144714,0.8339001536369324,1.786357879638672,114.40640258789062,-53.28215026855469,273.94189453125
1700075667,0.8768157958984375,0.2573089599609375,-0.43505859375,0.8140857219696045,0.8618356585502625,1.8726876974105835,114.3346710205078,-52.84585571289063,274.30078125
1700075667,0.818023681640625,0.297149658203125,-0.442474365234375,0.8120114207267761,0.9091472625732422,1.8710637092590328,114.01351928710938,-52.88340759277344,274.38067626953125
1700075667,0.7529754638671875,0.364227294921875,-0.4497222900390625,0.8879490494728088,0.9607697129249572,1.8104325532913208,114.21076965332033,-52.248443603515625,274.0810852050781
1700075667,0.7523040771484375,0.4888153076171875,-0.436492919921875,0.929850161075592,0.9607297778129578,1.7361178398132324,113.6472625732422,-52.04631042480469,274.1465759277344
1700075667,0.7767333984375,0.6260528564453125,-0.4261474609375,0.9243144989013672,0.9595776796340942,1.7589914798736572,113.73811340332033,-51.65367126464844,273.8108215332031
1700075667,0.9038848876953124,0.633209228515625,-0.3923797607421875,0.8610577583312988,0.9368396401405334,1.860168695449829,113.25970458984376,-50.59770202636719,273.81890869140625
1700075667,1.2169342041015625,0.5664520263671875,-0.428863525390625,0.8198949098587036,0.88883376121521,2.113471746444702,112.98995971679688,-49.92544555664063,273.37603759765625
1700075667,1.5326995849609375,0.5244598388671875,-0.4977264404296875,0.8274279236793518,0.8388917446136475,2.3844916820526123,112.74710083007812,-49.13737487792969,272.68341064453125
1700075667,1.8464508056640625,0.393829345703125,-0.4595947265625,0.839829683303833,0.7984697222709656,2.657179117202759,112.57302856445312,-47.865142822265625,272.59527587890625
1700075667,1.7844696044921875,0.2512664794921875,-0.4676361083984375,0.8284468054771423,0.7827328443527222,2.8476011753082275,112.1055145263672,-47.49943542480469,272.9750671386719
1700075667,1.458221435546875,0.219818115234375,-0.4969329833984375,0.8180761933326721,0.7083142995834351,2.897773265838623,111.7509307861328,-46.59602355957031,272.4281005859375
1700075667,1.135162353515625,0.3789215087890625,-0.58282470703125,0.8465169072151184,0.6155782341957092,2.758440971374512,111.5238800048828,-45.48173522949219,272.281494140625
1700075667,1.0143890380859375,0.5462646484375,-0.611083984375,0.915733277797699,0.5808479189872742,2.492339849472046,111.28517150878906,-44.38134765625,272.03228759765625
1700075667,1.0872802734375,0.61553955078125,-0.5504150390625,1.024751901626587,0.4944643080234527,2.216714143753052,110.86119079589844,-43.54667663574219,271.6918640136719
1700075667,1.2946014404296875,0.5906219482421875,-0.485107421875,1.1275619268417358,0.3421283066272735,1.9828016757965088,110.2073211669922,-42.35862731933594,271.1076354980469
1700075667,1.506439208984375,0.5113983154296875,-0.4536590576171875,1.0542285442352295,0.1880490034818649,1.895293116569519,109.21931457519533,-41.35910034179688,271.1725158691406
1700075667,1.518310546875,0.4557647705078125,-0.4675140380859375,0.7513911724090576,0.1199293360114097,1.807472467422485,108.57940673828124,-40.28236389160156,270.7603759765625
1700075667,1.3335113525390625,0.36492919921875,-0.5460052490234375,0.437059074640274,0.0673124641180038,1.5147453546524048,107.75184631347656,-39.17680358886719,270.2128295898437
1700075667,1.063690185546875,0.1917877197265625,-0.4914703369140625,0.3932058811187744,0.1366294771432876,1.1089770793914795,107.30966186523438,-38.228118896484375,270.82684326171875
1700075667,0.763275146484375,0.0212860107421875,-0.37335205078125,0.4392828345298767,0.2175482958555221,0.8617813587188721,106.72923278808594,-37.71315002441406,270.332763671875
1700075667,0.3959197998046875,0.0284423828125,-0.3522491455078125,0.4086911082267761,0.3148285150527954,0.6533724665641785,105.934326171875,-36.61170959472656,270.42205810546875
1700075667,0.13690185546875,0.076263427734375,-0.36016845703125,0.4518971443176269,0.3090260326862335,0.3582668006420135,105.46534729003906,-35.888824462890625,270.5346069335937
1700075667,0.033966064453125,0.0518035888671875,-0.2133636474609375,0.6952387094497681,0.1610634475946426,-0.0818293541669845,104.03125,-34.677398681640625,270.5538330078125
1700075667,-0.0076446533203125,-0.0463714599609375,-0.1139068603515625,1.020777702331543,-0.0578510500490665,-0.6221338510513306,103.62489318847656,-33.96549987792969,270.9300537109375
1700075667,-0.1444854736328125,-0.1109619140625,-0.0642852783203125,1.1237514019012451,-0.3094087243080139,-1.3680239915847778,102.29916381835938,-32.74058532714844,270.39031982421875
1700075667,-0.296630859375,-0.05120849609375,0.1140899658203125,1.1723629236221311,-0.5901799201965332,-2.138988733291626,101.57537841796876,-31.6011962890625,270.448974609375
1700075667,-0.134033203125,-0.0261077880859375,0.4172210693359375,1.2443172931671145,-0.7874240279197693,-2.7236971855163574,100.1325225830078,-30.61923217773437,270.76593017578125
1700075667,0.1231231689453125,-0.3616485595703125,0.5520477294921875,0.7496731877326965,-0.9011719226837158,-3.3249266147613525,99.05934143066406,-29.61268615722656,270.28143310546875
1700075667,0.3005218505859375,-0.8162994384765625,0.426513671875,-0.0335768684744834,-0.9955521821975708,-3.880990028381348,97.635498046875,-28.742477416992188,270.6502380371094
1700075667,0.4361419677734375,-1.1436767578125,0.3643341064453125,-0.9051738381385804,-1.0897985696792605,-4.020158290863037,96.1399383544922,-27.704605102539062,270.28472900390625
1700075667,0.486724853515625,-0.9885711669921876,0.0376739501953125,-1.2339376211166382,-1.1828863620758057,-3.959632158279419,94.58441162109376,-26.76336669921875,270.3659362792969
1700075667,0.531036376953125,-0.6298065185546875,-0.2845611572265625,-1.1124697923660278,-1.278639554977417,-4.239518165588379,93.1335906982422,-25.824874877929688,271.08380126953125
1700075667,0.6389312744140625,-0.406158447265625,-0.27252197265625,-1.1835769414901731,-1.2289204597473145,-4.5922136306762695,91.82281494140624,-25.038360595703125,271.03839111328125
1700075667,0.758819580078125,-0.1539306640625,-0.1530303955078125,-1.3455616235733032,-1.2462095022201538,-4.696854591369629,90.72607421875,-24.2808837890625,270.58251953125
1700075667,0.8670654296875,0.1615447998046875,0.124969482421875,-1.5628470182418823,-1.492990493774414,-4.50875186920166,89.36610412597656,-24.16009521484375,270.7657775878906
1700075667,1.00177001953125,0.4519500732421875,0.3173065185546875,-1.4993772506713867,-1.525204062461853,-4.342024326324463,88.14466857910156,-23.68296813964844,269.7210693359375
1700075668,1.1067657470703125,0.576873779296875,0.0769805908203125,-0.84922856092453,-1.6266508102416992,-4.263515472412109,87.11697387695312,-23.55917358398437,269.31640625
1700075668,1.205535888671875,0.6790924072265625,-0.0804443359375,-0.1240670904517173,-1.8988285064697263,-4.335243701934815,86.29063415527344,-23.273223876953125,268.1624755859375
1700075668,1.3563232421875,0.7646331787109375,-0.13385009765625,0.1646717637777328,-2.0424208641052246,-4.595872402191162,86.178955078125,-23.302169799804688,268.09869384765625
1700075668,1.4523773193359375,0.807281494140625,-0.27618408203125,0.0896270871162414,-2.097278118133545,-4.891963958740234,85.98916625976562,-23.342437744140625,267.55242919921875
1700075668,1.4227294921875,0.8771209716796875,-0.312957763671875,-0.1225626692175865,-2.030407428741455,-5.057344436645508,86.31509399414062,-23.72406005859375,267.09503173828125
1700075668,1.3465728759765625,0.968048095703125,-0.319061279296875,-0.3290759027004242,-1.913140654563904,-5.037156581878662,87.25985717773438,-24.19151306152344,266.3471069335937
1700075668,1.29461669921875,1.0155029296875,-0.30157470703125,-0.5269325375556946,-1.8066890239715576,-4.812612056732178,88.46917724609375,-24.86376953125,266.5593566894531
1700075668,1.3259735107421875,1.0308380126953125,-0.2938232421875,-0.6841551661491394,-1.7699421644210815,-4.43358325958252,89.97500610351562,-25.92613220214844,266.0389404296875
1700075668,1.4425048828125,1.05230712890625,-0.334625244140625,-0.8261998891830444,-1.7922927141189575,-3.968466281890869,91.29156494140624,-26.428237915039062,266.2251892089844
1700075668,1.59124755859375,1.063720703125,-0.4018096923828125,-1.01295804977417,-1.8558762073516848,-3.547922849655152,92.52850341796876,-27.2744140625,265.8382568359375
1700075668,1.6559906005859375,1.0812225341796875,-0.5116119384765625,-1.083196043968201,-1.928304433822632,-3.0882768630981445,94.3142547607422,-28.94696044921875,266.214599609375
1700075668,1.5509490966796875,1.146087646484375,-0.5601348876953125,-1.2042158842086792,-1.9222770929336548,-2.5978832244873047,96.26412963867188,-29.859161376953125,267.05206298828125
1700075668,1.3272705078125,1.138336181640625,-0.580291748046875,-1.4102953672409058,-1.7658411264419556,-2.200812578201294,98.37977600097656,-31.434234619140625,267.2352294921875
1700075668,1.12115478515625,1.0314483642578125,-0.629150390625,-1.5319839715957642,-1.5228618383407593,-1.847180247306824,99.99598693847656,-32.77641296386719,267.8191833496094
1700075668,0.9283599853515624,0.8907928466796875,-0.625213623046875,-1.57667076587677,-1.2343831062316897,-1.4706827402114868,101.5947265625,-34.59210205078125,267.8074035644531
1700075668,0.7675628662109375,0.7727203369140625,-0.6150360107421875,-1.4837487936019895,-1.008154034614563,-1.111794352531433,103.94471740722656,-36.576690673828125,268.4329833984375
1700075668,0.665496826171875,0.7305145263671875,-0.55413818359375,-1.1450841426849363,-0.7572211027145386,-0.7849661707878113,105.1354522705078,-38.71144104003906,268.619384765625
1700075668,0.6262969970703125,0.7869415283203125,-0.49273681640625,-0.5866402983665466,-0.4934171736240387,-0.4985003471374511,106.76129150390624,-40.48130798339844,268.7730712890625
1700075668,0.67047119140625,0.8592681884765625,-0.3836212158203125,-0.0310319513082504,-0.1885382235050201,-0.3316905796527862,108.09771728515624,-42.428955078125,269.03985595703125
1700075668,0.7823333740234375,0.7983856201171875,-0.34942626953125,0.4243890941143036,0.1088074371218681,-0.2035190314054489,109.32699584960938,-44.54127502441406,270.5287475585937
1700075668,0.815216064453125,0.645172119140625,-0.4503631591796875,0.6456732749938965,0.306974321603775,0.0223039742559194,110.78547668457033,-46.672943115234375,271.815673828125
1700075668,0.7650299072265625,0.53167724609375,-0.540283203125,0.5547958612442017,0.4421835541725158,0.3229314386844635,111.37210083007812,-48.99806213378906,271.5301513671875
1700075668,0.7339324951171875,0.4154205322265625,-0.5944671630859375,0.2363209277391433,0.5743564963340759,0.6374046802520752,112.2582550048828,-51.0345458984375,272.5110168457031
1700075668,0.719512939453125,0.276336669921875,-0.6421356201171875,-0.363016813993454,1.1519333124160769,0.9629910588264464,112.94650268554688,-53.22288513183594,273.9038391113281
1700075668,0.6292877197265625,0.241302490234375,-1.0161590576171875,-0.9917835593223572,1.4591052532196045,1.390896558761597,113.67082214355467,-55.12333679199219,274.48394775390625
1700075668,0.505584716796875,0.3820343017578125,-1.13714599609375,-1.2232378721237185,1.0868967771530151,1.3046101331710815,114.15232849121094,-57.38807678222656,275.0387268066406
1700075668,0.890777587890625,0.060546875,-0.677734375,-1.4465090036392212,1.907538890838623,1.6370006799697876,114.58531188964844,-58.9190673828125,275.7960205078125
1700075668,0.7942047119140625,0.2870025634765625,-1.338043212890625,-0.4502377510070801,4.116007328033447,2.261925220489502,115.08828735351562,-60.54838562011719,276.691162109375
1700075668,0.0219268798828125,0.9654998779296876,-2.8145904541015625,0.4273926019668579,0.4816979169845581,2.712401390075684,115.14695739746094,-62.34977722167969,276.51434326171875
1700075668,2.0918121337890625,0.7881011962890625,0.4244384765625,0.9228180646896362,-0.2292800545692443,0.709362268447876,115.21617126464844,-63.1318359375,277.2019348144531
1700075668,3.889068603515625,-0.930816650390625,0.7462158203125,2.0565314292907715,1.3989204168319702,-0.4177897870540619,115.06898498535156,-64.32708740234375,277.870849609375
1700075668,2.148406982421875,-1.0642242431640625,0.4286956787109375,2.05082368850708,1.7367157936096191,0.1730290353298187,115.36679077148438,-64.646484375,278.5194091796875
1700075668,1.024017333984375,-0.5563507080078125,1.10321044921875,1.196211576461792,1.7604349851608276,0.8532155752182007,115.41580200195312,-65.7325439453125,278.9213256835937
1700075668,0.72100830078125,-0.5159912109375,0.1567535400390625,0.1714148968458175,1.4349689483642578,0.9410993456840516,115.36459350585938,-66.20539855957031,279.0537414550781
1700075668,0.913665771484375,-0.6474456787109375,-0.27764892578125,-0.5997699499130249,1.2558447122573853,0.6618255972862244,115.63533020019533,-66.86135864257812,279.1050109863281
1700075668,1.5030059814453125,-0.733367919921875,-0.22296142578125,-0.973274827003479,1.1194767951965332,0.9102082848548888,115.810546875,-67.62466430664062,279.27490234375
1700075668,1.980987548828125,-0.4298858642578125,-0.13427734375,-1.275946021080017,0.9351418614387512,1.6151286363601685,115.84759521484376,-68.072021484375,279.67205810546875
1700075668,2.0220947265625,0.0402984619140625,-0.188751220703125,-1.2040207386016846,0.6907869577407837,1.947370529174805,115.73695373535156,-68.39079284667969,279.5579528808594
1700075668,1.6656341552734375,0.260223388671875,-0.1473388671875,-0.7777354717254639,0.2771684825420379,1.7508350610733032,116.38784790039062,-68.92251586914062,280.23345947265625
1700075668,1.1098480224609375,0.459625244140625,-0.0791168212890625,-0.7521765828132629,0.0609850585460662,1.1903589963912964,116.59782409667967,-69.20599365234375,279.8319702148437
1700075668,0.8040924072265625,0.6699676513671875,0.0087890625,-1.2511184215545654,0.4181810021400451,0.6779313683509827,117.10333251953124,-69.37457275390625,280.06365966796875
1700075668,0.9776611328125,0.560821533203125,0.072540283203125,-0.743880569934845,0.8438500165939331,0.267080157995224,117.22093200683594,-69.81509399414062,280.06787109375
1700075668,1.4924774169921875,0.06951904296875,-0.024871826171875,0.0960040241479873,0.9280852675437928,0.0981334894895553,117.36175537109376,-69.77726745605469,279.725830078125
1700075668,1.7678375244140625,0.0836029052734375,-0.282440185546875,0.4593462944030761,0.5293674468994141,0.4575108289718628,117.80410766601562,-69.49215698242188,280.0448608398437
1700075668,1.7336273193359375,0.3839874267578125,-0.3768310546875,0.3655998110771179,0.0579434596002101,0.6397469639778137,117.60211181640624,-69.189453125,279.6098327636719
1700075668,1.4521484375,0.372467041015625,-0.394683837890625,0.2135290652513504,-0.0466074496507644,0.3988243639469147,117.68658447265624,-68.95181274414062,280.0886535644531
1700075668,1.090667724609375,0.2494964599609375,-0.317901611328125,0.1913004517555236,0.1885888278484344,0.112223207950592,117.97877502441406,-68.5966796875,279.0869140625
1700075668,0.7910919189453125,0.21673583984375,-0.166595458984375,0.2648670673370361,0.3818352520465851,0.1043951138854026,118.72442626953124,-68.04396057128906,278.8741455078125
1700075668,0.59442138671875,0.1083221435546875,-0.2675933837890625,0.3716593086719513,0.2704541385173797,0.1906913816928863,118.69363403320312,-67.30712890625,278.57440185546875
1700075668,0.6191253662109375,0.0605621337890625,-0.463836669921875,0.4029157757759094,0.0327904373407363,0.2640241980552673,119.3507843017578,-65.30812072753906,275.38800048828125
1700075668,0.7787322998046875,0.049224853515625,-0.4323272705078125,0.190042108297348,-0.0075604477897286,0.3139358162879944,119.77444458007812,-64.51799011230469,275.5650634765625
1700075668,0.89385986328125,0.00799560546875,-0.30108642578125,0.0166964214295148,0.1406338065862655,0.3226107954978943,120.135498046875,-64.53778076171875,276.6793212890625
1700075668,0.9275054931640624,-0.02691650390625,-0.2722930908203125,-0.0131003558635711,0.2041326314210891,0.3815979659557342,120.26310729980467,-65.00430297851562,276.0707092285156
1700075668,0.971099853515625,-0.0242919921875,-0.3027191162109375,0.035289280116558,0.1655516773462295,0.4982265830039978,120.54998779296876,-64.58714294433594,275.0889587402344
1700075668,1.0147705078125,0.00579833984375,-0.320831298828125,0.0822519958019256,0.1300389617681503,0.6149997711181641,121.05465698242188,-64.14866638183594,274.2070007324219
1700075668,1.0176239013671875,0.037353515625,-0.294525146484375,0.0621411353349685,0.1408029198646545,0.7141348719596863,121.12771606445312,-63.36373901367188,273.9071655273437
1700075668,0.950836181640625,0.11273193359375,-0.2677154541015625,0.0346985906362533,0.1590628921985626,0.7848189473152161,121.25514221191406,-63.21539306640625,273.9106750488281
1700075668,0.870849609375,0.2059783935546875,-0.219757080078125,0.0380160920321941,0.1958041191101074,0.8173230886459351,121.58424377441406,-62.99180603027344,273.0774841308594
1700075668,0.827117919921875,0.2822723388671875,-0.171783447265625,0.1306299120187759,0.2740659117698669,0.8445658683776855,121.7153778076172,-61.87925720214844,272.525634765625
1700075668,0.7802276611328125,0.328399658203125,-0.1554718017578125,0.2907604575157165,0.378330796957016,0.8456330299377441,121.566650390625,-61.188323974609375,271.9765625
1700075668,0.735260009765625,0.287353515625,-0.0941009521484375,0.3091248273849487,0.5309948921203613,0.8899951577186584,121.3363037109375,-60.52671813964844,272.4066772460937
1700075668,0.7350311279296875,0.113525390625,-0.022125244140625,0.1904745995998382,0.7330294847488403,0.9884681701660156,121.50920104980467,-59.95686340332031,271.9750671386719
1700075668,0.794647216796875,-0.12445068359375,-0.1327056884765625,0.0527540259063243,0.8627848029136658,1.0872511863708496,121.6114501953125,-59.47221374511719,271.09765625
1700075668,0.93194580078125,-0.270843505859375,-0.33685302734375,0.1230566799640655,0.9257182478904724,1.2971900701522827,120.9604949951172,-57.8582763671875,270.1126708984375
1700075668,1.0218963623046875,-0.2269744873046875,-0.51025390625,0.3995117247104645,0.8283621072769165,1.6204438209533691,120.1865692138672,-56.41554260253906,269.9151306152344
1700075668,0.9993438720703124,-0.0385589599609375,-0.4821624755859375,0.6169582605361938,0.7117814421653748,1.7826648950576782,120.01771545410156,-55.721954345703125,269.290283203125
1700075668,0.930877685546875,0.21453857421875,-0.353912353515625,0.6599478125572205,0.780491828918457,1.6979252099990845,119.77879333496094,-55.61441040039063,270.1956481933594
1700075668,0.8596038818359375,0.50213623046875,-0.278411865234375,0.8346540927886963,0.9313992857933044,1.5064951181411743,120.0561981201172,-55.50396728515625,269.8286437988281
1700075668,0.81695556640625,0.5983428955078125,-0.157257080078125,1.2007842063903809,1.0517137050628662,1.4036626815795898,120.24847412109376,-55.04426574707031,270.161865234375
1700075668,0.826629638671875,0.4387359619140625,-0.1447906494140625,1.330724835395813,1.109836459159851,1.4670720100402832,119.9224090576172,-55.02194213867188,269.9443359375
1700075668,0.87384033203125,0.14276123046875,-0.240631103515625,1.1042927503585815,1.1310330629348757,1.6514432430267334,119.9596710205078,-55.275726318359375,270.3612976074219
1700075668,0.8789825439453125,-0.0386962890625,-0.4570770263671875,0.682389497756958,1.0728366374969482,1.9085506200790403,119.7585906982422,-55.03340148925781,270.93463134765625
1700075668,0.7873077392578125,0.0795135498046875,-0.6894378662109375,0.5004777312278748,0.9520720839500428,2.076067447662353,119.71957397460938,-54.86515808105469,270.61920166015625
1700075668,0.8423919677734375,0.3161773681640625,-0.603179931640625,0.5120116472244263,0.9417265057563782,2.039442300796509,119.4723663330078,-54.31031799316406,270.23419189453125
1700075668,1.030792236328125,0.5130767822265625,-0.41522216796875,0.6379882097244263,0.9510145783424376,1.9804171323776243,119.32876586914062,-53.88554382324219,269.7174072265625
1700075668,1.1197662353515625,0.5696563720703125,-0.362884521484375,0.8296207189559937,0.880704939365387,1.9924647808074951,119.33241271972656,-53.454833984375,269.71502685546875
1700075668,1.1835784912109375,0.5379638671875,-0.399444580078125,0.8366591930389404,0.8158268928527832,2.1037540435791016,119.19503784179688,-53.32957458496094,270.06451416015625
1700075668,1.131439208984375,0.419769287109375,-0.3724365234375,0.7885076403617859,0.8058379292488098,2.2701575756073,119.0421905517578,-53.04646301269531,269.9783630371094
1700075668,0.8914031982421875,0.297210693359375,-0.38824462890625,0.6663234233856201,0.7394453287124634,2.424041748046875,118.84124755859376,-52.68673706054688,269.989501953125
1700075668,0.8497772216796875,0.36285400390625,-0.4743804931640625,0.5829070806503296,0.703388512134552,2.516758680343628,119.00987243652344,-52.0035400390625,269.7750549316406
1700075668,0.9800872802734376,0.4795074462890625,-0.490509033203125,0.5958988070487976,0.6545818448066711,2.567365884780884,118.75782775878906,-51.48646545410156,270.1368408203125
1700075668,1.317413330078125,0.619293212890625,-0.559967041015625,0.6866074204444885,0.5148084759712219,2.6502349376678467,118.66714477539062,-51.513214111328125,269.609375
1700075668,1.8790740966796875,0.63287353515625,-0.52850341796875,0.7523970603942871,0.4103347957134247,2.9086382389068604,118.31521606445312,-50.465728759765625,268.7406616210937
1700075668,1.913970947265625,0.438995361328125,-0.428192138671875,0.6143976449966431,0.3225090801715851,3.238125324249268,118.23989868164062,-49.89515686035156,268.8756103515625
1700075668,1.8896942138671875,0.2209014892578125,-0.3539581298828125,0.4518758356571197,0.2017637491226196,3.554398775100708,117.79461669921876,-49.32720947265625,268.6312561035156
1700075668,1.770843505859375,0.25628662109375,-0.4629364013671875,0.4084391593933105,0.0102680837735533,3.696656227111816,117.31854248046876,-48.63790893554688,268.697265625
1700075668,1.7136688232421875,0.3298492431640625,-0.4850616455078125,0.375754177570343,-0.1671130955219268,3.603525638580322,116.9613800048828,-47.83634948730469,268.20233154296875
1700075668,1.784637451171875,0.3471832275390625,-0.3917083740234375,0.3859884440898895,-0.3158953785896301,3.2755115032196045,116.46095275878906,-47.17851257324219,268.16571044921875
1700075668,1.945892333984375,0.2592315673828125,-0.255462646484375,0.3755054473876953,-0.4933484494686126,2.7075016498565674,116.24349975585938,-46.71907043457031,267.995361328125
1700075668,2.0249786376953125,0.0522308349609375,-0.2063751220703125,0.2176335155963897,-0.6994675397872925,2.4322545528411865,115.83065795898438,-45.37809753417969,267.8380126953125
1700075668,1.621978759765625,0.06982421875,-0.2845916748046875,-0.0432739704847335,-0.7458739280700684,2.3547439575195312,115.2601318359375,-44.88716125488281,267.45953369140625
1700075668,0.9167022705078124,0.116058349609375,-0.5010833740234375,-0.2555846273899078,-0.5019491314888,2.073878288269043,114.9923095703125,-44.26414489746094,266.7978820800781
1700075668,0.3781585693359375,0.05340576171875,-0.8310394287109375,-0.8180397152900696,-0.3563682436943054,2.0053136348724365,113.9831085205078,-43.05776977539063,266.3826599121094
1700075668,-0.11737060546875,0.262786865234375,-1.07122802734375,-1.3348500728607178,-0.3223689794540405,1.7064303159713743,113.86979675292967,-41.91746520996094,266.3641357421875
1700075668,-0.4083251953125,0.3206329345703125,-0.9013824462890624,-1.1038565635681152,-0.2836748659610748,1.1535059213638306,112.91494750976562,-40.951080322265625,265.8370361328125
1700075668,-0.6049652099609375,0.1757659912109375,-0.4157257080078125,-0.4487812519073486,-0.5702672004699707,0.4406650066375732,112.345458984375,-39.730224609375,265.8400573730469
1700075668,-0.6134796142578125,-0.066375732421875,0.0560302734375,0.0184969846159219,-1.028207302093506,-0.2458992451429367,111.43008422851562,-38.91552734375,265.6001892089844
1700075668,-0.23651123046875,-0.316192626953125,0.39544677734375,-0.107133112847805,-1.4633142948150637,-0.950709879398346,110.66438293457033,-37.85395812988281,265.68927001953125
1700075668,0.188201904296875,-0.558258056640625,0.37213134765625,-0.636894941329956,-1.7964669466018677,-1.477900505065918,109.962646484375,-36.61456298828125,265.1900634765625
1700075668,0.30035400390625,-0.5778656005859375,0.0188446044921875,-0.7921753525733948,-2.0348455905914307,-1.8515946865081787,108.64602661132812,-35.25074768066406,265.1903686523437
1700075669,0.3054351806640625,-0.5568695068359375,-0.0861968994140625,-0.6997300982475281,-2.160219669342041,-2.1853089332580566,107.86512756347656,-34.10090637207031,265.24078369140625
1700075669,0.321380615234375,-0.5843505859375,-0.0509033203125,-0.723634660243988,-2.228957414627075,-2.461446762084961,106.53988647460938,-32.77220153808594,265.0906982421875
1700075669,0.301422119140625,-0.4571990966796875,-0.0841064453125,-0.903550922870636,-2.283729553222656,-2.750436544418335,105.3621063232422,-31.88438415527344,264.9365539550781
1700075669,0.347900390625,-0.27777099609375,-0.1572265625,-1.0800710916519165,-2.361370325088501,-3.038716077804565,104.3275146484375,-30.486373901367188,265.2105712890625
1700075669,0.4443359375,-0.1530609130859375,-0.2758636474609375,-1.219444990158081,-2.413326501846313,-3.301687002182007,102.28878784179688,-29.25068664550781,264.88671875
1700075669,0.4996795654296875,-0.0556793212890625,-0.375640869140625,-1.3435996770858765,-2.375149965286255,-3.5059947967529297,100.80674743652344,-28.536376953125,265.1938171386719
1700075669,0.572052001953125,0.0286712646484375,-0.432220458984375,-1.3948974609375,-2.328270196914673,-3.67068076133728,99.12570190429688,-27.40435791015625,265.7987060546875
1700075669,0.697723388671875,0.078460693359375,-0.42047119140625,-1.4402705430984497,-2.270147562026977,-3.860090494155884,97.89840698242188,-26.395233154296875,265.54656982421875
1700075669,0.8492431640625,0.0752410888671875,-0.37469482421875,-1.5579169988632202,-2.2200734615325928,-4.088483810424805,95.80224609375,-25.07745361328125,264.901123046875
1700075669,0.9865875244140624,0.052276611328125,-0.337799072265625,-1.7831159830093384,-2.1653239727020264,-4.210413932800293,94.42869567871094,-24.86656188964844,265.38232421875
1700075669,1.095916748046875,0.0759735107421875,-0.374481201171875,-2.0758869647979736,-2.1663589477539062,-4.1951985359191895,92.95770263671876,-24.4857177734375,265.25457763671875
1700075669,1.2081146240234375,0.12115478515625,-0.4023284912109375,-2.329893112182617,-2.3098669052124023,-4.129457473754883,91.21501159667967,-23.52113342285156,265.3680725097656
1700075669,1.328704833984375,0.168304443359375,-0.3657684326171875,-2.5046534538269043,-2.55664587020874,-4.03973913192749,89.88568115234375,-23.616973876953125,264.8645324707031
1700075669,1.3876495361328125,0.2373199462890625,-0.3026885986328125,-2.4783334732055664,-2.6942074298858643,-3.980932474136353,89.31776428222656,-23.73812866210937,264.00177001953125
1700075669,1.3914947509765625,0.3000640869140625,-0.2826690673828125,-2.2802281379699707,-2.7046382427215576,-3.980291604995728,88.60166931152344,-23.515533447265625,264.259521484375
1700075669,1.390625,0.3469696044921875,-0.3090972900390625,-1.9753320217132568,-2.656708002090454,-3.966917991638184,87.92898559570312,-23.61485290527344,264.7103271484375
1700075669,1.4181976318359375,0.4264678955078125,-0.3482208251953125,-1.7120416164398191,-2.583186626434326,-3.914476156234741,88.00413513183594,-24.04647827148437,264.6708374023437
1700075669,1.5487213134765625,0.5262298583984375,-0.441436767578125,-1.672927737236023,-2.508145570755005,-3.831100463867188,87.996826171875,-24.548568725585938,264.056396484375
1700075669,1.8089447021484373,0.6339874267578125,-0.613494873046875,-1.8195960521698,-2.502214193344116,-3.825611352920532,88.9979248046875,-24.82562255859375,264.41229248046875
1700075669,2.0636138916015625,0.6869659423828125,-0.75860595703125,-2.064610481262207,-2.4300522804260254,-3.9184410572052,89.14761352539062,-26.02362060546875,264.44537353515625
1700075669,2.0977020263671875,0.6940155029296875,-0.865875244140625,-2.1875813007354736,-2.349081754684448,-3.861067533493042,90.37559509277344,-26.494430541992188,264.4372863769531
1700075669,1.862884521484375,0.7447052001953125,-0.8861236572265625,-2.222708940505981,-2.2760705947875977,-3.6044766902923584,91.6750946044922,-27.701217651367188,264.363525390625
1700075669,1.5821990966796875,0.7763671875,-0.844482421875,-2.1651806831359863,-2.2166011333465576,-3.2515556812286377,92.85125732421876,-29.20845031738281,265.391845703125
1700075669,1.3665313720703125,0.7759552001953125,-0.78216552734375,-2.193220615386963,-2.129152297973633,-2.910719156265259,94.17457580566406,-30.172775268554688,265.53033447265625
1700075669,1.2098388671875,0.7648468017578125,-0.722747802734375,-2.0904273986816406,-2.0480504035949707,-2.4964795112609863,95.83575439453124,-31.61830139160156,265.36279296875
1700075669,1.1089630126953125,0.78656005859375,-0.5845489501953125,-1.9003968238830569,-1.8817219734191888,-2.137638092041016,96.81991577148438,-33.020782470703125,265.5766906738281
1700075669,1.0370330810546875,0.74664306640625,-0.5280303955078125,-1.6356687545776367,-1.5259143114089966,-1.9538207054138184,98.29693603515624,-34.912078857421875,265.6282043457031
1700075669,0.892608642578125,0.633575439453125,-0.58917236328125,-1.2506723403930664,-1.1060433387756348,-1.822338581085205,100.10671997070312,-36.53163146972656,265.9593505859375
1700075669,0.65869140625,0.5709228515625,-0.603607177734375,-0.6908940076828003,-0.7773503661155701,-1.527671217918396,101.54183959960938,-38.40422058105469,266.531494140625
1700075669,0.4795989990234375,0.650634765625,-0.4596405029296875,-0.0933642983436584,-0.5488436818122864,-1.1293214559555054,102.5272979736328,-40.89303588867188,267.1201171875
1700075669,0.5030670166015625,0.776885986328125,-0.246185302734375,0.3462359607219696,-0.286013126373291,-0.8397359848022461,103.27033996582033,-42.48469543457031,267.5479431152344
1700075669,0.6607513427734375,0.7902374267578125,-0.1227569580078125,0.585929274559021,0.0159123875200748,-0.565315306186676,104.28805541992188,-44.633148193359375,268.77154541015625
1700075669,0.735260009765625,0.7110443115234375,-0.103271484375,0.540502667427063,0.2976945340633392,-0.288592129945755,105.16950988769533,-46.95513916015625,269.5211181640625
1700075669,0.7412567138671875,0.508056640625,-0.189300537109375,0.2189568430185318,0.4792965650558471,-0.0162663217633962,105.88722229003906,-48.80050659179688,270.0028686523437
1700075669,0.7555389404296875,0.303375244140625,-0.267578125,-0.3905171453952789,0.6021002531051636,0.2915522158145904,106.22564697265624,-51.35469055175781,270.4491577148437
1700075669,0.69354248046875,0.1539764404296875,-0.3539581298828125,-1.17132830619812,0.6570143699645996,0.6064614057540894,106.94039916992188,-52.96839904785156,271.5919189453125
1700075669,0.619842529296875,0.0343017578125,-0.4008331298828125,-1.910529375076294,0.6334360837936401,0.9149574637413024,107.51156616210938,-54.97941589355469,271.6636047363281
1700075669,0.5833587646484375,-0.061004638671875,-0.3541412353515625,-2.3602654933929443,0.5608665347099304,1.2200673818588257,107.69244384765624,-57.0860595703125,273.09423828125
1700075669,0.58978271484375,-0.127288818359375,-0.2505035400390625,-2.5639736652374268,0.6103363037109375,1.4464386701583862,107.63653564453124,-59.00602722167969,273.4242553710937
1700075669,0.6457977294921875,-0.1596832275390625,-0.256317138671875,-2.724361658096313,0.6982629895210266,1.6657209396362305,107.9091796875,-60.56382751464844,273.71563720703125
1700075669,0.685272216796875,-0.0299835205078125,-0.3320465087890625,-2.843124866485596,0.6480727791786194,1.8297096490859983,107.78448486328124,-62.11724853515625,274.8309936523437
1700075669,0.6942291259765625,0.1778411865234375,-0.3553619384765625,-2.795340061187744,0.6671791076660156,1.8404136896133425,107.75320434570312,-63.87103271484375,275.3009033203125
1700075669,0.699005126953125,0.3226318359375,-0.41473388671875,-2.672127246856689,1.388851284980774,1.899748921394348,107.67254638671876,-64.96945190429688,276.2122802734375
1700075669,0.6303558349609375,0.6018829345703125,-0.88348388671875,-1.94327449798584,2.067082405090332,1.819157958030701,107.38519287109376,-66.21986389160156,276.7745361328125
1700075669,0.293853759765625,0.769134521484375,-1.3005218505859375,0.5140017867088318,6.42198371887207,2.3992364406585693,107.38786315917967,-67.14610290527344,277.5802001953125
1700075669,-0.5708465576171875,1.8032073974609373,-4.8935394287109375,-1.653705596923828,0.9056785106658936,3.3183376789093018,107.1067352294922,-68.2716064453125,277.7215881347656
1700075669,1.3720855712890625,2.7474822998046875,-1.953125,-2.172414541244507,-1.2121628522872925,1.279986023902893,107.01438903808594,-68.875732421875,278.4747314453125
1700075669,5.398162841796875,-0.7708892822265625,1.176666259765625,0.447369784116745,1.3601632118225098,-0.9866364598274232,106.83894348144533,-69.18753051757812,278.5755615234375
1700075669,3.19964599609375,-1.8890838623046875,0.3149261474609375,2.3142282962799072,2.188407182693481,-0.4490512907505035,106.83668518066406,-69.94142150878906,278.9126892089844
1700075669,1.1906280517578125,-0.95709228515625,1.70672607421875,2.5862624645233154,1.9909933805465696,0.7661157846450806,106.33193969726562,-69.96144104003906,279.371337890625
1700075669,0.3781585693359375,-0.33111572265625,0.815826416015625,1.5224993228912354,0.8415477275848389,1.288419485092163,106.13702392578124,-70.24969482421875,279.1095275878906
1700075669,0.38580322265625,-0.0016021728515625,0.49078369140625,-0.9606384038925172,0.5400533676147461,1.420375943183899,106.38783264160156,-70.28211975097656,280.168212890625
1700075669,1.2998046875,0.25091552734375,1.0522003173828125,-2.1108694076538086,0.9032877683639526,1.603956937789917,106.04087829589844,-69.7271728515625,279.58428955078125
1700075669,2.143051147460937,0.5388641357421875,1.7872314453125,-2.827338933944702,1.5378260612487793,1.859251856803894,106.087646484375,-69.472900390625,280.0601806640625
1700075669,2.588119506835937,0.477020263671875,0.70489501953125,-2.0420031547546387,2.47450852394104,1.3121669292449951,105.65469360351562,-69.03581237792969,279.0438842773437
1700075669,2.973129272460937,-0.1545562744140625,-0.234771728515625,-0.0776625722646713,2.5472095012664795,0.8484498262405396,106.0692138671875,-68.34062194824219,278.8896789550781
1700075669,2.3989410400390625,-0.1505889892578125,-0.3962554931640625,0.8520491123199463,1.3255923986434937,1.1815814971923828,105.90568542480467,-68.17704772949219,278.9459228515625
1700075669,1.269805908203125,0.30255126953125,-0.7309417724609375,1.3767967224121094,0.3729179203510284,1.2130917310714722,105.90711975097656,-67.47346496582031,278.0439147949219
1700075669,0.7394256591796875,0.0741424560546875,-0.69293212890625,1.0458145141601562,0.1773542761802673,0.9276900291442872,106.20907592773438,-66.27593994140625,276.3438720703125
1700075669,0.5161895751953125,-0.0178375244140625,-0.652801513671875,0.4776706993579864,0.2581207752227783,0.7525728344917297,105.87603759765624,-65.51397705078125,276.6583251953125
1700075669,0.44622802734375,0.204345703125,-0.546356201171875,0.2784270942211151,0.1917856782674789,0.6595936417579651,106.18565368652344,-66.31428527832031,277.38824462890625
1700075669,0.7140960693359375,0.4035186767578125,-0.2783966064453125,-0.033373937010765,0.0373913124203681,0.4649549126625061,106.21923828125,-66.88716125488281,276.63055419921875
1700075669,1.016082763671875,0.4709014892578125,-0.250762939453125,-0.3281315267086029,0.0432326905429363,0.1295340210199356,106.51780700683594,-66.50497436523438,276.0971984863281
1700075669,1.1102142333984375,0.4402618408203125,-0.382568359375,-0.1417616605758667,0.0007190534961409,-0.0807385221123695,106.23753356933594,-65.89022827148438,275.86651611328125
1700075669,1.11346435546875,0.3256072998046875,-0.2899932861328125,-0.0781366154551506,-0.1040781959891319,-0.1268186718225479,106.0480499267578,-65.10009765625,274.7616271972656
1700075669,1.1112518310546875,0.2066192626953125,-0.251220703125,-0.1951734870672226,-0.1167455241084098,-0.1052609086036682,106.37565612792967,-64.67449951171875,274.3142395019531
1700075669,1.121673583984375,0.0618438720703125,-0.251708984375,-0.2787775695323944,-0.0341116301715374,-0.0199361573904752,105.84075927734376,-63.93618774414063,274.1690673828125
1700075669,1.095733642578125,-0.0326385498046875,-0.2216033935546875,-0.2856069803237915,0.0162095967680215,0.118348479270935,105.622802734375,-63.08879089355469,273.3915710449219
1700075669,1.05731201171875,-0.0265960693359375,-0.203643798828125,-0.2263857424259185,0.0061172810383141,0.1761934012174606,105.58193969726562,-62.25274658203125,273.8817749023437
1700075669,1.0488739013671875,0.0751800537109375,-0.2303314208984375,-0.0272284243255853,-0.0572302676737308,0.1120165511965751,105.18545532226562,-61.83271789550781,273.79522705078125
1700075669,0.9905242919921876,0.2163238525390625,-0.2577972412109375,0.162583589553833,-0.1568383425474167,-0.013359747827053,105.10652160644533,-60.877349853515625,273.50048828125
1700075669,0.9115447998046876,0.3676910400390625,-0.2161712646484375,0.2026439160108566,-0.2216753959655761,-0.1487255543470382,105.0675811767578,-60.00779724121094,272.970458984375
1700075669,0.8483428955078125,0.4961395263671875,-0.157745361328125,0.2425564527511596,-0.1733709871768951,-0.3280540406703949,104.57138061523438,-59.11470031738281,272.229248046875
1700075669,0.8327484130859375,0.4413299560546875,-0.16656494140625,0.3867919147014618,-0.0882270634174346,-0.4861246347427368,104.36000061035156,-58.16062927246094,271.79058837890625
1700075669,0.8553314208984375,0.2278594970703125,-0.235565185546875,0.4053645431995392,-0.0930244848132133,-0.4974393248558044,103.89730834960938,-57.48478698730469,271.74853515625
1700075669,0.8786468505859375,0.07757568359375,-0.2779541015625,0.254863440990448,-0.1618107408285141,-0.3949574530124664,103.57794189453124,-57.14378356933594,271.408203125
1700075669,0.9137420654296876,0.00390625,-0.2689971923828125,0.0406318493187427,-0.1872897297143936,-0.2422235608100891,103.48414611816406,-56.28443908691406,270.97576904296875
1700075669,0.9157867431640624,-0.0421600341796875,-0.258758544921875,-0.1431070864200592,-0.1876774877309799,-0.1136043295264244,103.4022216796875,-56.483184814453125,271.2006530761719
1700075669,0.9079742431640624,-0.0395050048828125,-0.24212646484375,-0.2532738149166107,-0.1706612259149551,-0.0362112671136856,103.55622863769533,-56.325286865234375,271.4206848144531
1700075669,0.9233856201171876,0.0315093994140625,-0.2386474609375,-0.2587958872318268,-0.1629332602024078,-0.0219114236533641,103.27001953125,-56.5546875,271.2801513671875
1700075669,0.973785400390625,0.1212158203125,-0.182708740234375,-0.2576829493045807,-0.1342986822128296,-0.0332226678729057,103.393798828125,-56.34197998046875,271.095458984375
1700075669,1.029632568359375,0.203369140625,-0.08343505859375,-0.2455991059541702,-0.0406611450016498,-0.0267429314553737,103.35292053222656,-56.117919921875,270.9325561523437
1700075669,1.0275421142578125,0.2284698486328125,-0.0545196533203125,-0.203922763466835,0.0517715848982334,0.0001270327775273,103.03424072265624,-55.78143310546875,270.8348999023437
1700075669,0.9780731201171876,0.142486572265625,-0.1242828369140625,-0.1835490614175796,0.0591211095452308,0.0676879659295082,102.42263793945312,-55.31611633300781,270.8212280273437
1700075669,0.9372711181640624,0.01275634765625,-0.2041015625,-0.2273015975952148,0.0286636017262935,0.2091345787048339,102.79190063476562,-54.51445007324219,270.32916259765625
1700075669,0.9305877685546876,-0.087188720703125,-0.2375335693359375,-0.3163108229637146,0.0232709683477878,0.4199741184711456,101.97010803222656,-54.103363037109375,270.5074462890625
1700075669,0.93408203125,-0.1454925537109375,-0.2402496337890625,-0.3592710793018341,0.0503185652196407,0.6274242401123047,101.8955535888672,-53.81965637207031,270.9768371582031
1700075669,0.9255218505859376,-0.166229248046875,-0.237030029296875,-0.3308644592761993,0.0830994173884391,0.8233343362808228,102.12330627441406,-53.36050415039063,270.5522766113281
1700075669,0.935028076171875,-0.12200927734375,-0.2359771728515625,-0.2686397135257721,0.0889429226517677,0.9485915899276732,101.64387512207033,-53.25216674804688,270.4306640625
1700075669,0.9858245849609376,-0.028076171875,-0.2327117919921875,-0.1341178566217422,0.0995723977684974,0.9872833490371704,101.19247436523438,-52.69137573242188,270.147705078125
1700075669,1.0403289794921875,0.045867919921875,-0.2046661376953125,0.0204834379255771,0.1293928772211074,1.0218397378921509,101.18580627441406,-52.28488159179688,269.95263671875
1700075669,1.06793212890625,0.093109130859375,-0.17388916015625,0.0730715468525886,0.1339716464281082,1.0923839807510376,100.74270629882812,-51.96343994140625,270.0492858886719
1700075669,1.095489501953125,0.1217498779296875,-0.159820556640625,0.0368123427033424,0.1289558559656143,1.1668659448623655,100.3439483642578,-51.27668762207031,269.3514099121094
1700075669,1.125335693359375,0.094146728515625,-0.17901611328125,0.0181598290801048,0.1275358498096466,1.233803391456604,99.5102081298828,-50.44068908691406,269.6798095703125
1700075669,1.110382080078125,0.0874481201171875,-0.226470947265625,-0.0386698991060256,0.0706856176257133,1.288487672805786,98.85983276367188,-49.53401184082031,269.66278076171875
1700075669,1.1107330322265625,0.11541748046875,-0.2277984619140625,-0.0818285569548606,0.0439509451389312,1.3468081951141355,98.79385375976562,-48.6597900390625,269.1423645019531
1700075669,1.0948638916015625,0.1536865234375,-0.2241363525390625,-0.0827619880437851,0.0281392261385917,1.3876163959503174,98.207763671875,-48.32362365722656,269.18096923828125
1700075669,1.066162109375,0.179595947265625,-0.2263641357421875,-0.0487781912088394,0.006410761270672,1.424260139465332,97.7323760986328,-47.926544189453125,268.75689697265625
1700075669,1.052520751953125,0.1865997314453125,-0.2267608642578125,0.0019262643763795,-0.0173145420849323,1.4731320142745972,96.97738647460938,-47.35919189453125,268.7606201171875
1700075670,1.0360107421875,0.1747894287109375,-0.207794189453125,0.0806455761194229,-0.018443988636136,1.5512065887451172,96.62376403808594,-46.77851867675781,269.08740234375
1700075670,1.0508270263671875,0.13079833984375,-0.1839141845703125,0.1933098137378692,-0.0164804402738809,1.655573844909668,96.4028778076172,-45.7137451171875,269.1965637207031
1700075670,1.1039276123046875,0.092254638671875,-0.226287841796875,0.274326354265213,-0.0626383498311042,1.7138102054595947,95.48526000976562,-44.81539916992188,269.3016967773437
1700075670,1.1973114013671875,0.0397796630859375,-0.255706787109375,0.3710281252861023,-0.0748763680458068,1.7653652429580688,94.78387451171876,-44.34832763671875,268.8412780761719
1700075670,1.2840118408203125,-0.006591796875,-0.2280426025390625,0.4970638453960418,-0.0748537331819534,1.875661969184876,94.13540649414062,-44.078704833984375,268.6527404785156
1700075670,1.3472442626953125,0.0054931640625,-0.187774658203125,0.608792245388031,-0.1020198389887809,1.9667085409164429,93.3589324951172,-43.24815368652344,268.368408203125
1700075670,1.434539794921875,0.0260467529296875,-0.1368255615234375,0.6659277081489563,-0.1493505984544754,2.0106656551361084,92.78410339355467,-42.61686706542969,268.8595886230469
1700075670,1.5340576171875,0.0188751220703125,-0.027252197265625,0.6683921813964844,-0.1892056167125702,2.0866076946258545,91.91627502441406,-41.81027221679688,268.7655639648437
1700075670,1.615509033203125,-0.001556396484375,0.1209716796875,0.5753165483474731,-0.228484034538269,2.237717390060425,91.01239013671876,-40.82319641113281,267.9678649902344
1700075670,1.6726226806640625,-0.0251922607421875,0.232421875,0.5182868242263794,-0.2267007827758789,2.3557369709014893,89.95948791503906,-40.02975463867188,268.3582763671875
1700075670,1.7220001220703125,-0.168060302734375,0.3028106689453125,0.6886399388313293,-0.2190465927124023,2.4278149604797363,88.70204162597656,-39.4168701171875,268.4125366210937
1700075670,1.7027130126953125,-0.344207763671875,0.328277587890625,0.8683210015296936,-0.2367496937513351,2.509143352508545,86.91307067871094,-38.24395751953125,268.24615478515625
1700075670,1.607818603515625,-0.372711181640625,0.1862335205078125,0.6627278923988342,-0.0992227271199226,2.556368827819824,85.56288146972656,-37.41023254394531,268.33184814453125
1700075670,1.468353271484375,-0.34930419921875,-0.2224578857421875,-0.1781385838985443,0.1414524614810943,2.6970388889312744,84.80862426757812,-36.62525939941406,268.58233642578125
1700075670,1.2324981689453125,-0.2806243896484375,-0.7092132568359375,-1.2985477447509766,0.2531718015670776,2.911397218704224,83.21771240234375,-36.30204772949219,268.0413818359375
1700075670,0.9970703125,-0.186279296875,-0.9632720947265624,-2.021004676818848,0.1082726791501045,3.0815818309783936,82.09451293945312,-35.66526794433594,268.4828796386719
1700075670,0.807647705078125,-0.0691070556640625,-1.0249176025390625,-2.2304799556732178,-0.2249372452497482,2.9345345497131348,80.74664306640625,-34.9180908203125,268.7822570800781
1700075670,0.7536773681640625,-0.026763916015625,-1.0662078857421875,-2.279459476470948,-0.4098285436630249,2.703020572662353,79.79783630371094,-34.63677978515625,269.32183837890625
1700075670,0.828765869140625,0.0572967529296875,-1.1149749755859375,-2.0958266258239746,-0.4552018642425537,2.5938408374786377,78.49528503417969,-34.23524475097656,269.2174072265625
1700075670,0.8319091796875,0.2187042236328125,-1.080780029296875,-1.768720269203186,-0.5368162989616394,2.597728967666626,77.58920288085938,-33.78053283691406,268.1956481933594
1700075670,0.7602691650390625,0.4313201904296875,-1.0106658935546875,-1.893588185310364,-0.8850536346435547,2.592829704284668,76.5606689453125,-33.79905700683594,268.990234375
1700075670,0.77783203125,0.6997222900390625,-0.73846435546875,-2.6654348373413086,-1.2661701440811155,2.1899263858795166,75.90817260742188,-33.727569580078125,268.4979248046875
1700075670,0.941253662109375,0.8778228759765625,-0.20013427734375,-2.782383680343628,-1.1468812227249146,1.3747053146362305,75.21772766113281,-33.67146301269531,268.095458984375
1700075670,0.890838623046875,0.623809814453125,0.120697021484375,-1.9609060287475584,-0.9901142716407776,0.890193521976471,74.27444458007812,-33.681915283203125,268.38134765625
1700075670,0.6273040771484375,0.2165985107421875,0.148834228515625,-1.5353418588638306,-1.0868650674819946,0.4882570207118988,74.45864868164062,-33.62403869628906,268.2298583984375
1700075670,0.582122802734375,-0.051605224609375,-0.0137939453125,-1.5624483823776243,-1.3747916221618652,0.2295048236846923,74.50004577636719,-34.03276062011719,268.810791015625
1700075670,0.5621185302734375,-0.1931610107421875,-0.148284912109375,-1.8030213117599487,-1.6425343751907349,0.1217306926846504,74.78675842285156,-34.05146789550781,269.1830444335937
1700075670,0.4894256591796875,-0.264404296875,-0.192047119140625,-2.0587620735168457,-1.78933846950531,0.0617160946130752,75.74453735351562,-34.87342834472656,269.69677734375
1700075670,0.4044647216796875,-0.304779052734375,-0.2226104736328125,-2.228863477706909,-1.881304383277893,-0.0425876751542091,76.73611450195312,-35.8046875,270.6229248046875
1700075670,0.3331146240234375,-0.3066253662109375,-0.297760009765625,-2.2894442081451416,-1.9342187643051147,-0.2561422884464264,77.53977966308594,-36.542022705078125,269.9472351074219
1700075670,0.31475830078125,-0.2869873046875,-0.4424591064453125,-2.2577459812164307,-2.083471775054932,-0.5532309412956238,78.474609375,-37.13377380371094,270.50225830078125
1700075670,0.360382080078125,-0.226531982421875,-0.5442657470703125,-2.2656729221343994,-2.3312551975250244,-0.8834341764450073,78.62197875976562,-37.72041320800781,269.7077331542969
1700075670,0.48162841796875,-0.110626220703125,-0.537689208984375,-2.401874303817749,-2.561727285385132,-1.2115193605422974,79.50056457519531,-38.89996337890625,269.70458984375
1700075670,0.61090087890625,-0.0145263671875,-0.4702911376953125,-2.660773754119873,-2.7229628562927246,-1.5059651136398315,80.64878845214844,-39.994476318359375,269.40240478515625
1700075670,0.6967620849609375,0.0225372314453125,-0.41778564453125,-2.9232935905456543,-2.85169005393982,-1.7295430898666382,81.35887145996094,-41.02333068847656,269.226806640625
1700075670,0.720367431640625,0.0137939453125,-0.42730712890625,-3.169949531555176,-2.938025951385498,-1.867517709732056,82.77030944824219,-42.03022766113281,269.074951171875
1700075670,0.7049713134765625,-0.006683349609375,-0.515472412109375,-3.427877426147461,-3.0085225105285645,-1.9210283756256104,82.8302001953125,-43.099517822265625,269.1458435058594
1700075670,0.6981964111328125,-0.007537841796875,-0.594451904296875,-3.705454111099243,-3.07846474647522,-1.8987137079238887,83.4998779296875,-44.02838134765625,268.667724609375
1700075670,0.7188720703125,0.031341552734375,-0.6355438232421875,-4.046754360198975,-3.126006841659546,-1.8721652030944824,83.71047973632812,-45.603271484375,268.635986328125
1700075670,0.7587432861328125,0.1002197265625,-0.6768341064453125,-4.460196495056152,-3.163447380065918,-1.89700186252594,84.41172790527344,-46.568450927734375,269.16424560546875
1700075670,0.8115081787109375,0.1748199462890625,-0.699066162109375,-4.923767566680908,-3.203737497329712,-1.9391953945159912,85.1881103515625,-47.54304504394531,269.6791076660156
1700075670,0.874298095703125,0.238433837890625,-0.70416259765625,-5.398274421691895,-3.231375217437744,-1.996730089187622,85.46495056152344,-49.07084655761719,269.7203369140625
1700075670,0.9613189697265624,0.2601318359375,-0.7082366943359375,-5.838644504547119,-3.273943424224853,-2.023111820220948,86.03369140625,-50.13841247558594,269.7144470214844
1700075670,1.0677032470703125,0.255401611328125,-0.711883544921875,-6.219997882843018,-3.3469927310943604,-1.9999388456344604,86.61390686035156,-51.64494323730469,270.3798828125
1700075670,1.1738128662109375,0.236297607421875,-0.7360076904296875,-6.542353630065918,-3.43284559249878,-1.9076616764068604,86.76527404785156,-52.537872314453125,270.50067138671875
1700075670,1.2376556396484375,0.23480224609375,-0.7911834716796875,-6.786269187927246,-3.499328136444092,-1.7555956840515137,87.07167053222656,-53.85081481933594,270.2518920898437
1700075670,1.267669677734375,0.245758056640625,-0.877197265625,-6.936429023742676,-3.53266716003418,-1.5676960945129397,87.29391479492188,-54.66523742675781,270.69708251953125
1700075670,1.2838287353515625,0.246002197265625,-0.9665679931640624,-7.0303730964660645,-3.502992868423462,-1.371741533279419,87.83140563964844,-55.26779174804688,270.9657287597656
1700075670,1.2945404052734375,0.2401580810546875,-1.0484771728515625,-7.058351993560791,-3.408508777618408,-1.188086986541748,87.70619201660156,-55.8028564453125,270.98394775390625
1700075670,1.32598876953125,0.22210693359375,-1.1096954345703125,-6.964737892150879,-3.2678699493408203,-0.9966667294502258,87.85078430175781,-56.31100463867188,271.0024108886719
1700075670,1.3115997314453125,0.222808837890625,-1.151947021484375,-6.697824478149414,-3.0764310359954834,-0.8696554899215698,87.92196655273438,-56.72157287597656,271.3080139160156
1700075670,1.24676513671875,0.20526123046875,-1.1936798095703125,-6.363996982574463,-2.80650281906128,-0.8783674836158752,87.74162292480469,-57.05201721191406,271.21270751953125
1700075670,1.1546478271484375,0.166534423828125,-1.2541961669921875,-5.915355682373047,-2.5063302516937256,-1.0164135694503784,87.58334350585938,-57.64155578613281,271.1723937988281
1700075670,1.0729827880859375,0.1442718505859375,-1.248138427734375,-5.166612148284912,-2.237483501434326,-1.174332857131958,87.62847900390625,-57.3829345703125,270.48309326171875
1700075670,0.9934844970703124,0.1981353759765625,-1.1576690673828125,-4.166460990905762,-2.0020484924316406,-1.2808986902236938,87.41259765625,-57.65931701660156,270.9012145996094
1700075670,0.926727294921875,0.34222412109375,-1.058319091796875,-3.199291229248047,-1.7408684492111206,-1.4571768045425415,87.45219421386719,-57.32809448242188,270.93048095703125
1700075670,0.9471893310546876,0.4549560546875,-0.94482421875,-2.4491591453552246,-1.4048837423324585,-1.6625784635543823,87.34188842773438,-57.36520385742188,270.7179260253906
1700075670,0.973236083984375,0.58038330078125,-0.844024658203125,-1.8561170101165767,-1.0811680555343628,-1.7703442573547363,87.58697509765625,-57.3636474609375,270.62127685546875
1700075670,0.9950103759765624,0.6809844970703125,-0.755615234375,-1.4879467487335205,-0.8420513272285461,-1.7003260850906372,87.27285766601562,-57.15806579589844,271.0252685546875
1700075670,0.9942626953125,0.67547607421875,-0.7672271728515625,-1.3600529432296753,-0.6465563774108887,-1.5306446552276611,86.8873291015625,-56.71012878417969,271.4122314453125
1700075670,0.96246337890625,0.537322998046875,-0.8736572265625,-1.4221279621124268,-0.4251675307750702,-1.2792975902557373,86.76026916503906,-56.1392822265625,271.17449951171875
1700075670,0.876861572265625,0.3941650390625,-0.9775543212890624,-1.6348437070846558,-0.1772171258926391,-0.9733363389968872,86.2984619140625,-55.87651062011719,270.5353088378906
1700075670,0.7831268310546875,0.2972869873046875,-1.04656982421875,-1.7787671089172363,0.1610376238822937,-0.7024660110473633,86.24093627929688,-55.12388610839844,269.971435546875
1700075670,0.7207489013671875,0.2627410888671875,-1.1672821044921875,-1.6051793098449707,0.502103865146637,-0.1654411554336547,85.88597106933594,-54.80442810058594,269.38690185546875
1700075670,0.5477752685546875,0.48876953125,-1.3410797119140625,-1.1265032291412354,0.943231999874115,0.553502082824707,85.30816650390625,-53.499359130859375,268.4763488769531
1700075670,0.3649749755859375,0.828948974609375,-1.648284912109375,-0.4888516962528229,1.4802371263504028,1.1807433366775513,85.03236389160156,-53.285003662109375,268.68359375
1700075670,0.368896484375,1.1385040283203125,-1.9367523193359373,-0.7122560143470764,1.0359337329864502,0.8735709190368652,85.06101989746094,-53.27586364746094,269.02252197265625
1700075670,1.1753082275390625,0.745330810546875,-0.9600372314453124,-1.5036039352416992,0.136616438627243,-0.2638460397720337,85.19918823242188,-53.460296630859375,269.26904296875
1700075670,2.138412475585937,-0.1894378662109375,0.644073486328125,-1.1872025728225708,0.4261494576931,-0.7387323975563049,84.84843444824219,-53.255706787109375,269.25067138671875
1700075670,1.6452178955078125,-0.637298583984375,0.7740631103515625,-0.3759256899356842,0.7600587010383606,-0.2355286329984665,84.85623168945312,-52.57501220703125,269.2698974609375
1700075670,1.023590087890625,-0.4043426513671875,0.5630340576171875,-0.2538908720016479,0.6119813919067383,0.9417163729667664,84.360595703125,-52.598663330078125,268.78094482421875
1700075670,0.8358154296875,0.36260986328125,0.2122344970703125,-1.4010411500930786,0.211953803896904,1.424053192138672,84.25822448730469,-52.23127746582031,268.8434143066406
1700075670,1.0262603759765625,0.82586669921875,0.051605224609375,-2.4673912525177,0.2550477385520935,0.6128767132759094,84.09060668945312,-51.82627868652344,268.4512939453125
1700075670,1.438934326171875,0.6267547607421875,0.35595703125,-1.7334411144256592,0.9411049485206604,0.0658626332879066,83.86430358886719,-51.66421508789063,267.2517395019531
1700075670,1.149871826171875,0.5709991455078125,0.578094482421875,-0.7560644745826721,1.2240660190582275,-0.1058350875973701,83.392822265625,-50.96900939941406,266.9869689941406
1700075670,0.8907318115234375,0.453338623046875,0.269500732421875,-0.7576496005058289,1.0843545198440552,-0.2911791205406189,83.0045166015625,-50.7242431640625,267.1585693359375
1700075670,1.0298614501953125,0.3103790283203125,-0.1524658203125,-0.7632204294204712,0.8919525742530823,-0.4299516379833221,83.25015258789062,-50.42381286621094,267.16766357421875
1700075670,1.0754241943359375,0.171661376953125,-0.204437255859375,-0.3582556247711181,0.8166950941085815,-0.4884405136108398,83.15306091308594,-50.23898315429688,266.4496459960937
1700075670,1.0332794189453125,0.00714111328125,-0.205657958984375,0.0308018550276756,0.7185267210006714,-0.4705145061016083,82.843505859375,-50.033294677734375,266.03253173828125
1700075670,1.0181121826171875,-0.0791168212890625,-0.27227783203125,0.0263626314699649,0.4798851013183594,-0.3970219194889068,82.87150573730469,-50.26275634765625,265.7308349609375
1700075670,1.070526123046875,-0.086151123046875,-0.3257598876953125,-0.1382726579904556,0.2776446640491485,-0.2818394005298614,82.72550964355469,-49.982421875,265.5831604003906
1700075670,1.0933837890625,-0.0962982177734375,-0.281341552734375,-0.2590837478637695,0.2286169379949569,-0.2339698821306228,82.6270751953125,-49.853424072265625,265.5583190917969
1700075670,1.0731048583984375,-0.0604095458984375,-0.158050537109375,-0.4557230472564697,0.2722424268722534,-0.2349850833415985,82.88789367675781,-49.88331604003906,265.515380859375
1700075670,1.0145416259765625,0.0147247314453125,-0.0743560791015625,-0.6132434606552124,0.3403857946395874,-0.2781716883182525,82.77717590332031,-49.7193603515625,266.05322265625
1700075670,0.95391845703125,0.0540924072265625,-0.05657958984375,-0.6255949139595032,0.3740409612655639,-0.3087133765220642,82.80546569824219,-49.79046630859375,265.6153564453125
1700075670,0.945281982421875,0.0600738525390625,-0.04443359375,-0.5340285301208496,0.3891304433345794,-0.3160327970981598,82.61294555664062,-49.561859130859375,265.7435913085937
1700075670,0.9740142822265624,0.048614501953125,-0.07952880859375,-0.4332523643970489,0.3697695136070251,-0.3186365664005279,82.29666137695312,-49.58612060546875,265.95025634765625
1700075670,1.0064697265625,0.0193634033203125,-0.1367645263671875,-0.4038670361042022,0.3155547678470611,-0.3096073865890503,82.40728759765625,-49.65687561035156,265.65234375
1700075670,1.0075225830078125,-0.0236968994140625,-0.1741485595703125,-0.3964008688926697,0.2890730798244476,-0.2812876105308532,82.23458862304688,-49.90193176269531,265.34747314453125
1700075670,0.9868621826171876,-0.0902252197265625,-0.16693115234375,-0.3979007601737976,0.290688544511795,-0.2034620493650436,82.68307495117188,-49.39399719238281,265.36529541015625
1700075670,0.9636383056640624,-0.117584228515625,-0.1504364013671875,-0.4227326214313507,0.288372129201889,-0.1190662011504173,82.14910888671875,-49.30342102050781,265.57867431640625
1700075670,0.9593505859375,-0.1036376953125,-0.142913818359375,-0.4426679611206054,0.2862887382507324,-0.0742175057530403,81.88285827636719,-49.42906188964844,265.6675109863281
1700075670,0.9608154296875,-0.0931549072265625,-0.1239776611328125,-0.3850720524787903,0.3207548558712005,-0.0442209914326667,81.71307373046875,-49.16239929199219,265.32568359375
1700075670,0.9606475830078124,-0.1082000732421875,-0.0831756591796875,-0.351098895072937,0.3522445857524872,0.016119047999382,81.83416748046875,-48.96861267089844,265.55133056640625
1700075670,0.9586029052734376,-0.1162872314453125,-0.07733154296875,-0.3811183273792267,0.3767560720443725,0.1289654374122619,81.72410583496094,-48.85520935058594,265.62091064453125
1700075670,0.938201904296875,-0.1141510009765625,-0.09271240234375,-0.4547592401504516,0.4177652895450592,0.2030559182167053,81.79414367675781,-48.90180969238281,265.24725341796875
1700075670,0.9471893310546876,-0.1441497802734375,-0.0875091552734375,-0.5657603144645691,0.4747244417667389,0.2697845995426178,81.432861328125,-48.5213623046875,265.6693725585937
1700075670,0.977813720703125,-0.1288299560546875,-0.123779296875,-0.6530217528343201,0.4651450514793396,0.324307233095169,81.30912780761719,-48.50042724609375,265.5927429199219
1700075670,1.0311431884765625,-0.0593414306640625,-0.193115234375,-0.6557914018630981,0.3645800948143005,0.3236449062824249,81.08938598632812,-48.2974853515625,265.31121826171875
1700075670,1.0617523193359375,0.0267181396484375,-0.23211669921875,-0.57688969373703,0.2940550744533539,0.2774944603443146,80.53277587890625,-47.85823059082031,265.19879150390625
1700075671,1.03045654296875,0.0891571044921875,-0.2110595703125,-0.4671056568622589,0.2819278240203857,0.2304332107305526,80.37748718261719,-47.64720153808594,264.4981689453125
1700075671,0.96246337890625,0.1037139892578125,-0.175079345703125,-0.3844256997108459,0.2798103392124176,0.1946967840194702,79.94316101074219,-47.4163818359375,264.1963806152344
1700075671,0.9276123046875,0.07086181640625,-0.1667327880859375,-0.347477525472641,0.273578017950058,0.1703725308179855,79.623779296875,-46.85969543457031,264.2501220703125
1700075671,0.937469482421875,0.01959228515625,-0.184295654296875,-0.3810847699642181,0.2497352659702301,0.1676020473241806,79.41493225097656,-46.78855895996094,264.5248413085937
1700075671,0.972991943359375,-0.0377960205078125,-0.1946258544921875,-0.4238948225975036,0.2386487871408462,0.1619960963726043,79.24092102050781,-46.667266845703125,264.4045715332031
1700075671,1.012664794921875,-0.1100921630859375,-0.21502685546875,-0.4545320868492126,0.1930099427700042,0.2260879874229431,78.77052307128906,-45.86067199707031,264.9428100585937
1700075671,1.0194549560546875,-0.089385986328125,-0.23773193359375,-0.4675512015819549,0.1235128864645958,0.2490790635347366,78.52894592285156,-46.00164794921875,264.8853759765625
1700075671,1.0472869873046875,-0.032012939453125,-0.2528533935546875,-0.4861379563808441,0.0504349432885646,0.2012558877468109,77.95463562011719,-45.455841064453125,264.3309020996094
1700075671,1.0480194091796875,0.0741729736328125,-0.237060546875,-0.4867224991321563,0.0031925975345075,0.1292690336704254,77.84979248046875,-45.29864501953125,264.52740478515625
1700075671,1.0238037109375,0.157135009765625,-0.1767425537109375,-0.4261904656887054,0.0137874512001872,0.0424521192908287,77.29840087890625,-44.775909423828125,264.4808959960937
1700075671,0.9974212646484376,0.125396728515625,-0.155303955078125,-0.3681178390979767,0.0155270276591181,0.0269700977951288,76.69656372070312,-44.46961975097656,264.5960693359375
1700075671,0.9611053466796876,0.0381927490234375,-0.163909912109375,-0.3981934487819671,0.023314643651247,0.082571305334568,76.46133422851562,-44.035247802734375,264.74908447265625
1700075671,0.9322967529296876,-0.0388641357421875,-0.1634063720703125,-0.4481807053089142,0.0589381530880928,0.1355216056108474,75.70445251464844,-43.65095520019531,264.5422668457031
1700075671,0.921539306640625,-0.0921783447265625,-0.1597137451171875,-0.4537152945995331,0.0955100134015083,0.1782626807689666,75.23527526855469,-43.16404724121094,264.92059326171875
1700075671,0.9348907470703124,-0.1103668212890625,-0.1549835205078125,-0.3983764052391052,0.1018267646431922,0.2262429893016815,74.78358459472656,-43.19148254394531,264.57916259765625
1700075671,0.9756927490234376,-0.1103973388671875,-0.1413116455078125,-0.2803315222263336,0.1136480048298835,0.2662082612514496,74.66009521484375,-42.40936279296875,264.5010986328125
1700075671,1.0187835693359375,-0.0957183837890625,-0.146331787109375,-0.203938215970993,0.0881586223840713,0.3048627078533172,73.83622741699219,-42.438995361328125,264.8919677734375
1700075671,1.0441131591796875,-0.0122833251953125,-0.1944427490234375,-0.1590229421854019,0.0133893089368939,0.2748185098171234,73.5726318359375,-42.30555725097656,264.32763671875
1700075671,1.069183349609375,0.08892822265625,-0.2246246337890625,-0.1058254987001419,-0.0494309328496456,0.1842084527015686,72.89556884765625,-41.64280700683594,264.72186279296875
1700075671,1.054595947265625,0.156158447265625,-0.227783203125,-0.0809260085225105,-0.0895495936274528,0.0992197915911674,72.197998046875,-41.80790710449219,264.5643920898437
1700075671,1.0038909912109375,0.1540374755859375,-0.2087860107421875,-0.1053125709295272,-0.0867644548416137,0.0695471167564392,71.54298400878906,-41.30915832519531,264.6280822753906
1700075671,0.95050048828125,0.071319580078125,-0.17645263671875,-0.2029421925544738,-0.0509409457445144,0.0994661375880241,70.89585876464844,-40.73794555664063,264.6134033203125
1700075671,0.9035797119140624,-0.0253753662109375,-0.1762847900390625,-0.2894685566425323,-0.0227127689868211,0.161983847618103,69.84808349609375,-40.34107971191406,264.910888671875
1700075671,0.8946533203125,-0.0807952880859375,-0.1920928955078125,-0.3323158919811249,-0.0240062661468982,0.2241617292165756,69.49960327148438,-40.23191833496094,264.9512634277344
1700075671,0.9260101318359376,-0.0608062744140625,-0.20611572265625,-0.300811767578125,-0.0507574528455734,0.2483794540166854,68.7982177734375,-40.00689697265625,265.4627685546875
1700075671,0.969818115234375,-0.050689697265625,-0.1678009033203125,-0.1930054128170013,-0.025914954021573,0.2396717071533203,68.61366271972656,-40.0145263671875,265.17242431640625
1700075671,1.0080108642578125,-0.0750885009765625,-0.1443939208984375,-0.0757395029067993,-0.0255357194691896,0.2820897400379181,68.67868041992188,-39.55284118652344,264.99676513671875
1700075671,1.0204010009765625,-0.03399658203125,-0.1599273681640625,-0.0316665843129158,-0.0653254762291908,0.3083447813987732,68.26927185058594,-39.53938293457031,264.9784851074219
1700075671,1.045379638671875,0.04400634765625,-0.1969451904296875,-0.0142753422260284,-0.1281079053878784,0.2401665300130844,68.03964233398438,-39.51557922363281,264.9306640625
1700075671,1.0631561279296875,0.1413421630859375,-0.2175140380859375,0.0090683298185467,-0.1787646859884262,0.1331234276294708,68.02479553222656,-39.28526306152344,265.0805053710937
1700075671,1.050811767578125,0.1966705322265625,-0.1877899169921875,0.0459477826952934,-0.183388739824295,0.0468942709267139,67.65684509277344,-39.12037658691406,264.357177734375
1700075671,1.0105133056640625,0.1545257568359375,-0.1619415283203125,0.043660394847393,-0.1820552945137024,0.0290321838110685,67.876220703125,-38.75703430175781,264.0525207519531
1700075671,0.96148681640625,0.059814453125,-0.1725616455078125,-0.0103570334613323,-0.1791079640388488,0.0690858587622642,68.12312316894531,-39.06683349609375,264.05108642578125
1700075671,0.933929443359375,-0.0171661376953125,-0.200592041015625,-0.0521473586559295,-0.1867267340421676,0.1280019134283065,68.72442626953125,-39.20710754394531,263.83770751953125
1700075671,0.9307098388671876,-0.0359649658203125,-0.2161102294921875,-0.0384912006556987,-0.1942144781351089,0.1719531267881393,69.14080810546875,-39.04960632324219,262.7645263671875
1700075671,0.9319305419921876,-0.0119171142578125,-0.198272705078125,0.0461373999714851,-0.1903742104768753,0.1966523379087448,70.13774108886719,-38.947265625,263.7080078125
1700075671,0.943084716796875,0.0077056884765625,-0.144805908203125,0.1740423738956451,-0.18167045712471,0.1818025559186935,70.79985046386719,-38.4471435546875,263.3477783203125
1700075671,0.99310302734375,-0.032196044921875,-0.080047607421875,0.2315338850021362,-0.1256876140832901,0.2024353891611099,71.80165100097656,-38.40061950683594,262.7812805175781
1700075671,1.033355712890625,-0.0690155029296875,-0.09393310546875,0.1833623647689819,-0.1283126920461654,0.2993758022785187,73.57907104492188,-38.33662414550781,262.85040283203125
1700075671,1.0255889892578125,0.0113525390625,-0.15679931640625,0.096838392317295,-0.1706782579421997,0.2619703710079193,74.68682861328125,-38.341552734375,262.281494140625
1700075671,1.04388427734375,0.06396484375,-0.2064971923828125,0.0767965093255043,-0.2053755223751068,0.2018292546272277,75.80079650878906,-38.293701171875,262.5912475585937
1700075671,0.9959869384765624,0.1160736083984375,-0.1909637451171875,0.0802178755402565,-0.2178212702274322,0.1686017960309982,77.51753234863281,-39.05964660644531,261.650634765625
1700075671,0.967926025390625,0.15374755859375,-0.14154052734375,0.1176858842372894,-0.2033898681402206,0.130604088306427,79.22552490234375,-38.87089538574219,261.0551147460937
1700075671,0.9715728759765624,0.1195526123046875,-0.131317138671875,0.1531756967306137,-0.2000510692596435,0.1226995512843132,80.5908203125,-39.322265625,261.0980834960937
1700075671,0.9805908203125,0.05499267578125,-0.145965576171875,0.1581960320472717,-0.1976981610059738,0.1597241461277008,82.58343505859375,-40.117767333984375,260.64990234375
1700075671,0.99365234375,-0.0123138427734375,-0.157501220703125,0.1440969854593277,-0.1916181743144989,0.2165083438158035,84.39881896972656,-41.19400024414063,260.0443725585937
1700075671,0.9967041015625,-0.0603485107421875,-0.169097900390625,0.1060132533311843,-0.1879299581050872,0.2809858620166778,86.35246276855469,-42.31040954589844,258.9365234375
1700075671,0.99102783203125,-0.0635833740234375,-0.1737213134765625,0.075752817094326,-0.1800451278686523,0.3522605895996094,87.90409851074219,-43.54962158203125,258.4327392578125
1700075671,0.9792022705078124,-0.02252197265625,-0.14898681640625,0.079580046236515,-0.1638389974832534,0.3820893168449402,89.56134033203125,-44.844268798828125,257.35009765625
1700075671,0.9838409423828124,0.0419769287109375,-0.102569580078125,0.1211919412016868,-0.1287020593881607,0.3951750099658966,91.41578674316406,-46.65618896484375,256.993896484375
1700075671,0.989898681640625,0.1022491455078125,-0.0536346435546875,0.2159314900636673,-0.0907615944743156,0.3804354965686798,92.9918975830078,-48.31108093261719,256.53912353515625
1700075671,1.0119781494140625,0.1214599609375,-0.0291900634765625,0.3462074697017669,-0.0591839626431465,0.3288564383983612,94.7662353515625,-49.896331787109375,256.3580322265625
1700075671,1.0424957275390625,0.0782318115234375,-0.04962158203125,0.412661075592041,-0.0385021194815635,0.3401799499988556,96.20695495605467,-51.85133361816406,255.7360992431641
1700075671,1.0274810791015625,0.0417022705078125,-0.0702362060546875,0.3861460983753204,-0.0284654628485441,0.402505099773407,97.70036315917967,-54.586029052734375,255.97183227539065
1700075671,1.004669189453125,0.00848388671875,-0.0836639404296875,0.4064031839370727,-0.0020727382507175,0.3990914523601532,98.64346313476562,-56.522735595703125,256.6639404296875
1700075671,1.0190277099609375,-0.062408447265625,-0.1198272705078125,0.4486281275749206,-0.0092965625226497,0.3791118860244751,99.5775909423828,-58.76922607421875,256.5272827148437
1700075671,1.025634765625,-0.069732666015625,-0.1487579345703125,0.2255436480045318,-0.0399692542850971,0.5394315123558044,100.8247528076172,-61.18342590332031,256.35400390625
1700075671,0.96820068359375,0.0699920654296875,-0.178497314453125,0.0580286830663681,-0.0150473928079009,0.613358736038208,101.27923583984376,-63.43495178222656,257.2977905273437
1700075671,0.9583282470703124,0.1155853271484375,-0.181976318359375,-0.0125815719366073,0.0183699522167444,0.6002655625343323,102.29884338378906,-66.10554504394531,257.3190002441406
1700075671,0.9684600830078124,0.1180419921875,-0.1716766357421875,-0.0814583748579025,0.0119123198091983,0.5701151490211487,102.8412628173828,-68.13609313964844,257.9940490722656
1700075671,0.988494873046875,0.1112213134765625,-0.14581298828125,-0.1823988407850265,-0.0187989883124828,0.5501489043235779,103.03219604492188,-70.23371887207031,259.3072509765625
1700075671,1.03350830078125,0.095977783203125,-0.0712738037109375,-0.3671143651008606,-0.0211042203009128,0.5500940084457397,103.12467956542967,-71.967041015625,259.82470703125
1700075671,1.052001953125,0.1030731201171875,-0.04766845703125,-0.5548967719078064,0.0027731496375054,0.5408640503883362,103.45719909667967,-73.49751281738281,261.02398681640625
1700075671,1.0429534912109375,0.12481689453125,-0.0893096923828125,-0.7130534052848816,0.0131975607946515,0.5320702791213989,103.7088623046875,-75.07574462890625,260.53857421875
1700075671,1.0301513671875,0.1729736328125,-0.1399993896484375,-0.9639481902122498,0.0227412655949592,0.5085569620132446,103.51113891601562,-76.13664245605469,261.0380859375
1700075671,1.0284423828125,0.21514892578125,-0.1767578125,-1.2062021493911743,0.0323334373533725,0.4458690881729126,103.43374633789062,-77.6571044921875,262.16455078125
1700075671,1.017242431640625,0.2089996337890625,-0.177978515625,-1.4098225831985474,-0.0031704932916909,0.3816906213760376,103.44496154785156,-78.23701477050781,262.7785949707031
1700075671,0.9990234375,0.1757354736328125,-0.128570556640625,-1.6352152824401855,-0.0107671599835157,0.295799970626831,102.9341278076172,-79.15995788574219,261.53564453125
1700075671,0.9333343505859376,0.1041107177734375,-0.1298065185546875,-1.8057409524917605,-0.0166812427341938,0.1962936073541641,102.87095642089844,-79.7510986328125,261.2526550292969
1700075671,0.842559814453125,0.025604248046875,-0.1325225830078125,-1.9501391649246216,-0.0339670218527317,0.0759706646203994,103.0605010986328,-80.07026672363281,262.0967102050781
1700075671,0.82611083984375,-0.029510498046875,-0.158721923828125,-2.014559268951416,-0.1222918257117271,-0.0049276468344032,102.47727966308594,-80.25151062011719,260.5274353027344
1700075671,0.8412017822265625,-0.0043487548828125,-0.150604248046875,-1.953202486038208,-0.2322774529457092,-0.0982757061719894,102.83438110351562,-80.82308959960938,260.3741455078125
1700075671,0.8770751953125,0.0409088134765625,-0.1275177001953125,-1.7559062242507937,-0.3098409473896026,-0.2113394141197204,102.8078155517578,-80.92027282714844,260.19293212890625
1700075671,0.9044342041015624,0.1032562255859375,-0.1264801025390625,-1.472980260848999,-0.3254681229591369,-0.3240931332111358,102.57878112792967,-80.6898193359375,260.02886962890625
1700075671,0.917236328125,0.173004150390625,-0.145721435546875,-1.1538153886795044,-0.3252880871295929,-0.4396032094955444,102.58291625976562,-80.76315307617188,260.28863525390625
1700075671,0.9424285888671876,0.213531494140625,-0.1777496337890625,-0.8130223155021667,-0.3598215579986572,-0.4928605556488037,102.5703582763672,-80.85806274414062,259.26092529296875
1700075671,0.96466064453125,0.2610626220703125,-0.1679534912109375,-0.5323363542556763,-0.3081860542297363,-0.4741582572460174,102.2704620361328,-80.78839111328125,259.5179443359375
1700075671,0.9940643310546876,0.3265838623046875,-0.1963043212890625,-0.3671825230121612,-0.1468576192855835,-0.3401338756084442,102.45573425292967,-80.80523681640625,259.30963134765625
1700075671,0.8756866455078125,0.4295501708984375,-0.3155364990234375,-0.0822035297751426,-0.0844946429133415,-0.1428804546594619,102.07192993164062,-80.64717102050781,258.8065490722656
1700075671,0.84149169921875,0.5513916015625,-0.27606201171875,0.2100317925214767,-0.252987265586853,-0.2585870921611786,102.0069580078125,-80.54148864746094,258.1470947265625
1700075671,1.0671539306640625,0.4658966064453125,-0.0550537109375,0.0399269089102745,-0.2885010242462158,-0.6164395213127136,101.34022521972656,-79.79881286621094,257.85211181640625
1700075671,1.231689453125,0.292205810546875,0.0495758056640625,-0.0728323981165885,-0.1777196675539016,-0.7421444058418274,100.90057373046876,-78.967529296875,254.55740356445312
1700075671,1.0419464111328125,0.15643310546875,0.0182647705078125,-0.0618284791707992,-0.0759008899331092,-0.584894597530365,99.90341186523438,-78.16853332519531,253.1976013183593
1700075671,0.8809967041015625,0.1029815673828125,-0.1484375,-0.066816046833992,-0.0639187917113304,-0.3877480030059814,100.52066040039062,-78.32597351074219,254.29676818847656
1700075671,0.935272216796875,0.1307220458984375,-0.27496337890625,-0.2695108354091644,-0.1367490589618683,-0.3635987043380737,99.68211364746094,-78.85025024414062,253.7579803466797
1700075671,1.095703125,0.134124755859375,-0.2265167236328125,-0.487347811460495,-0.1864324659109115,-0.4612400531768799,99.18482971191406,-78.49958801269531,253.08706665039065
1700075671,1.1675872802734375,0.0623016357421875,-0.065277099609375,-0.4806678295135498,-0.1244836077094078,-0.4858700335025787,98.74664306640624,-78.04450988769531,252.05010986328125
1700075671,1.0781402587890625,-0.01324462890625,-0.0141448974609375,-0.3313864469528198,-0.0574169531464576,-0.4195072650909424,98.28863525390624,-77.32588195800781,251.508041381836
1700075671,0.9691009521484376,-0.0308837890625,-0.0932159423828125,-0.2105404585599899,-0.059704340994358,-0.3791731595993042,98.37139892578124,-77.1722412109375,251.5775451660156
1700075671,0.967864990234375,-0.0174713134765625,-0.1406097412109375,-0.1605766266584396,-0.0727775320410728,-0.3877043128013611,98.05197143554688,-77.22425842285156,251.03860473632807
1700075671,1.010955810546875,0.0064544677734375,-0.131744384765625,-0.1478027701377868,-0.0708499401807785,-0.3833905458450317,97.57232666015624,-77.30528259277344,250.78927612304688
1700075671,1.0070953369140625,0.03875732421875,-0.125335693359375,-0.0913959592580795,-0.0614164881408214,-0.3500418961048126,97.10008239746094,-77.103271484375,249.7347869873047
1700075671,0.986785888671875,0.0468902587890625,-0.115142822265625,-0.029422603547573,-0.0571924485266208,-0.3182003498077392,96.90904235839844,-76.6929931640625,248.70790100097656
1700075671,0.970855712890625,0.0206146240234375,-0.110107421875,-0.0058885156176984,-0.0432603880763053,-0.2922073602676391,97.11732482910156,-76.26779174804688,248.2917022705078
1700075671,0.955474853515625,0.005340576171875,-0.1365966796875,-0.0396595299243927,-0.0404837764799594,-0.2493195533752441,96.55128479003906,-75.51448059082031,248.4117584228516
1700075671,0.9547271728515624,0.0018768310546875,-0.1170196533203125,-0.0826967433094978,-0.0111977932974696,-0.2063427865505218,96.62741088867188,-75.07647705078125,248.2461853027344
1700075671,0.95703125,-0.019775390625,-0.0885467529296875,-0.1275140196084976,0.0187180284410715,-0.1679823398590088,96.35031127929688,-74.69801330566406,248.16172790527344
1700075671,0.9586334228515624,-0.0407257080078125,-0.098358154296875,-0.1721619069576263,0.0308628417551517,-0.1301353722810745,96.51260375976562,-74.44461059570312,248.4039001464844
1700075671,0.9737701416015624,-0.0529022216796875,-0.1089019775390625,-0.1905217468738556,0.0486037544906139,-0.1008256822824478,96.44654846191406,-74.14251708984375,248.36502075195312
1700075672,0.9934844970703124,-0.0442352294921875,-0.1183929443359375,-0.1998204439878463,0.0490873865783214,-0.0565426386892795,96.33935546875,-74.54208374023438,248.72813415527344
1700075672,1.00323486328125,0.0103607177734375,-0.118743896484375,-0.1953417956829071,0.0380720198154449,-0.041708830744028,96.35845947265624,-74.446044921875,248.3482208251953
1700075672,1.01226806640625,0.075439453125,-0.09527587890625,-0.1615841090679168,0.0471139810979366,-0.0647278651595115,96.49479675292967,-74.45376586914062,248.5414581298828
1700075672,1.0034637451171875,0.1128387451171875,-0.0965728759765625,-0.0667532011866569,0.0593807697296142,-0.0878856480121612,96.77891540527344,-74.65353393554688,248.8479461669922
1700075672,0.979736328125,0.117584228515625,-0.1061859130859375,0.0133658731356263,0.0549505986273288,-0.1019540578126907,96.86366271972656,-74.34071350097656,248.73126220703125
1700075672,0.9669952392578124,0.0695343017578125,-0.096923828125,0.0387601777911186,0.0772356688976287,-0.0807339921593666,96.56022644042967,-74.68313598632812,248.8258819580078
1700075672,0.9534912109375,-0.0172882080078125,-0.0946807861328125,0.0155246313661336,0.0943339616060257,-0.041375670582056,96.7122802734375,-74.87368774414062,248.73439025878903
1700075672,0.9550018310546876,-0.08349609375,-0.11212158203125,-0.0262486487627029,0.1008674949407577,-0.002421346027404,96.6916961669922,-74.46600341796875,248.58370971679688
1700075672,0.997528076171875,-0.0997314453125,-0.1348114013671875,-0.038876824080944,0.0802828520536422,0.0188139006495475,96.6239776611328,-74.25001525878906,248.9307861328125
1700075672,1.0450592041015625,-0.0317840576171875,-0.1622467041015625,-0.0055958339944481,0.0380829386413097,0.0006511429091915,96.73005676269533,-74.33749389648438,248.7046813964844
1700075672,1.0472412109375,0.0792388916015625,-0.1705322265625,0.0350128449499607,0.0066400594078004,-0.0347214937210083,96.7783203125,-74.3233642578125,248.63612365722656
1700075672,1.0181121826171875,0.14862060546875,-0.128021240234375,0.0621888041496276,0.0241838991641998,-0.0985643938183784,96.76774597167967,-74.20481872558594,249.1873779296875
1700075672,0.9815673828125,0.153533935546875,-0.1028594970703125,0.0993377715349197,0.0474751070141792,-0.1297553330659866,96.80857849121094,-74.34800720214844,248.640625
1700075672,0.9421234130859376,0.11212158203125,-0.10369873046875,0.0984970107674598,0.0472604557871818,-0.1229424327611923,97.02682495117188,-74.33354187011719,248.5777587890625
1700075672,0.9259490966796876,0.0586395263671875,-0.115142822265625,0.0578782148659229,0.0655310750007629,-0.0879010930657386,97.28976440429688,-74.31394958496094,248.99078369140625
1700075672,0.9311065673828124,0.0194244384765625,-0.1172637939453125,0.0347063168883323,0.0812035128474235,-0.0494618266820907,96.77349853515624,-74.98277282714844,248.9043731689453
1700075672,0.9438018798828124,-0.0063323974609375,-0.1123809814453125,0.0321949534118175,0.0907461494207382,-0.0477017425000667,97.03793334960938,-74.64251708984375,248.7734222412109
1700075672,0.9842376708984376,-0.066375732421875,-0.100677490234375,-0.0170716606080532,0.109719842672348,-0.0329249277710914,96.97248840332033,-74.6922607421875,248.6881561279297
1700075672,1.0262908935546875,-0.1075286865234375,-0.1200408935546875,-0.0482394360005855,0.1083483099937439,0.0184093676507473,97.26646423339844,-74.68942260742188,248.64208984375
1700075672,1.0583648681640625,-0.0797882080078125,-0.141326904296875,-0.0001659149274928,0.0739613100886344,0.0288396384567022,97.21711730957033,-74.77227783203125,248.99923706054688
1700075672,1.0670928955078125,-0.0010986328125,-0.16015625,0.0152689674869179,0.037962295114994,0.0045548044145107,97.232177734375,-75.02259826660156,248.8487548828125
1700075672,1.0296783447265625,0.109954833984375,-0.1490325927734375,0.0409090816974639,0.0477651245892047,-0.0595560036599636,97.19590759277344,-74.60693359375,249.06643676757807
1700075672,0.99530029296875,0.1266937255859375,-0.1063385009765625,0.094702273607254,0.072903499007225,-0.0928548425436019,97.1575164794922,-74.93522644042969,248.55661010742188
1700075672,0.9643096923828124,0.0718536376953125,-0.1035003662109375,0.0889240130782127,0.0709530040621757,-0.0741378739476203,97.26943969726562,-74.37139892578125,248.88999938964844
1700075672,0.9588470458984376,0.025146484375,-0.133270263671875,0.0372277945280075,0.0610614903271198,-0.0526445694267749,96.95962524414062,-74.71865844726562,249.240234375
1700075672,0.970306396484375,0.00628662109375,-0.1519775390625,0.0051881042309105,0.0523918345570564,-0.0257908515632152,96.92697143554688,-74.18240356445312,248.80731201171875
1700075672,0.9733734130859376,0.0272674560546875,-0.149139404296875,0.0249429009854793,0.0449102148413658,-0.0231439340859651,97.3222198486328,-73.76838684082031,249.58328247070312
1700075672,0.9809722900390624,0.0447540283203125,-0.138427734375,0.0763435065746307,0.0410302579402923,-0.0384611040353775,96.97061157226562,-73.55659484863281,249.48336791992188
1700075672,0.9978485107421876,0.0256500244140625,-0.12542724609375,0.126161128282547,0.04990204423666,-0.064311608672142,97.24057006835938,-73.1392822265625,249.0979156494141
1700075672,1.017547607421875,-0.0292205810546875,-0.110870361328125,0.1090987920761108,0.0674647912383079,-0.0683135464787483,97.03018188476562,-72.69479370117188,249.17872619628903
1700075672,1.020843505859375,-0.09515380859375,-0.0971527099609375,0.0202866289764642,0.0981984734535217,-0.0164183881133794,97.20353698730467,-72.37982177734375,249.01495361328125
1700075672,0.995849609375,-0.075927734375,-0.1424713134765625,-0.0567500963807106,0.0598769150674343,0.0169108062982559,96.9517822265625,-71.77633666992188,249.61143493652344
1700075672,0.9977264404296876,0.034271240234375,-0.1918792724609375,-0.0760628059506416,0.016246348619461,-0.0424217581748962,96.75723266601562,-71.29624938964844,249.24493408203125
1700075672,1.0284576416015625,0.099609375,-0.1646728515625,-0.0421032458543777,0.0276851579546928,-0.1072010248899459,96.74703979492188,-71.03977966308594,249.72251892089844
1700075672,0.99945068359375,0.12506103515625,-0.127899169921875,-0.0097655449062585,0.0348993949592113,-0.1421659290790558,96.46578979492188,-70.53790283203125,250.2079467773437
1700075672,0.980133056640625,0.0854339599609375,-0.112457275390625,-0.0125488145276904,0.0402574092149734,-0.1453526616096496,96.54710388183594,-70.13363647460938,249.80194091796875
1700075672,0.9730987548828124,0.0301361083984375,-0.1315155029296875,-0.0470181070268154,0.0400494150817394,-0.1260966807603836,96.62052917480467,-69.53950500488281,250.29611206054688
1700075672,0.9697418212890624,-0.003143310546875,-0.14263916015625,-0.0834853053092956,0.0399080030620098,-0.1028361022472381,96.671142578125,-68.60597229003906,250.70489501953125
1700075672,0.9771575927734376,-0.0093536376953125,-0.145355224609375,-0.0890995189547538,0.0358248427510261,-0.0879037529230117,96.17295837402344,-67.82113647460938,250.7105407714844
1700075672,0.987518310546875,-0.0047454833984375,-0.1410980224609375,-0.0633885562419891,0.0386198312044143,-0.0748417526483535,96.18171691894533,-67.53590393066406,250.6646881103516
1700075672,0.9904327392578124,0.0034332275390625,-0.1359100341796875,-0.0221883933991193,0.0375146195292472,-0.0673417523503303,96.00917053222656,-66.56715393066406,250.3741149902344
1700075672,0.9907989501953124,-0.000885009765625,-0.1283111572265625,0.0205960888415575,0.0439932905137538,-0.0788588598370552,95.61109924316406,-65.46017456054688,251.4075164794922
1700075672,0.9984130859375,-0.040069580078125,-0.1106719970703125,0.0113163040950894,0.0679391026496887,-0.0662021860480308,95.578857421875,-64.72552490234375,251.8397521972656
1700075672,0.991851806640625,-0.0686492919921875,-0.117156982421875,-0.0378959812223911,0.0719615444540977,-0.0246893670409917,95.21572875976562,-63.55363464355469,252.5721435546875
1700075672,0.9885406494140624,-0.0296630859375,-0.14984130859375,-0.0555812381207942,0.0472117215394973,-0.01900564879179,95.11961364746094,-63.12164306640625,252.95249938964844
1700075672,1.0029296875,0.03826904296875,-0.171142578125,-0.0495939180254936,0.0261889938265085,-0.0646897777915,94.86180114746094,-61.99256896972656,253.5362701416016
1700075672,1.0066375732421875,0.072998046875,-0.1563262939453125,-0.0239569973200559,0.0323725864291191,-0.0989436209201812,94.2576904296875,-60.67852783203125,253.8521881103516
1700075672,0.9860382080078124,0.0563201904296875,-0.12945556640625,-0.0100012347102165,0.0387370102107524,-0.0934857428073883,94.15982055664062,-59.499908447265625,254.8802947998047
1700075672,0.9734954833984376,0.0166168212890625,-0.1275634765625,-0.0126803750172257,0.0385103747248649,-0.0841356515884399,93.7128448486328,-58.685394287109375,255.5935211181641
1700075672,0.9794158935546876,-0.0156097412109375,-0.13922119140625,-0.0168058779090642,0.0411005653440952,-0.0620812140405178,92.9757080078125,-57.52790832519531,256.2219543457031
1700075672,0.9821624755859376,-0.0203399658203125,-0.1439971923828125,-0.0133440345525741,0.0372983701527118,-0.0544645749032497,92.07823181152344,-56.38801574707031,256.0914306640625
1700075672,0.9890289306640624,-0.0133819580078125,-0.1428680419921875,0.0075711007229983,0.0370235331356525,-0.0451664142310619,90.98641967773438,-55.27685546875,256.8246459960937
1700075672,0.989044189453125,-0.0013885498046875,-0.1428680419921875,0.0359393581748008,0.0325635373592376,-0.0440159253776073,90.44915771484376,-54.6376953125,257.1054992675781
1700075672,0.99176025390625,0.0026092529296875,-0.134735107421875,0.0502818115055561,0.0374206081032753,-0.0388504602015018,89.41294860839844,-53.542388916015625,256.8929443359375
1700075672,0.9882965087890624,-0.00018310546875,-0.135833740234375,0.0474351607263088,0.0339587666094303,-0.0349454656243324,88.53541564941406,-52.861846923828125,257.1477355957031
1700075672,0.989013671875,-0.0047607421875,-0.149200439453125,0.0363044776022434,0.0237316954880952,-0.0332026928663253,87.16423034667969,-51.80131530761719,257.5250549316406
1700075672,0.9934844970703124,-0.007537841796875,-0.156524658203125,0.0163624621927738,0.0222725495696067,-0.0343859381973743,86.34996032714844,-50.83476257324219,258.35113525390625
1700075672,0.9938507080078124,-0.0052032470703125,-0.1527862548828125,-0.0131674669682979,0.0226456578820943,-0.0351212359964847,85.14006042480469,-50.41255187988281,258.60205078125
1700075672,0.991058349609375,-0.0104522705078125,-0.143096923828125,-0.0339782051742076,0.0267099067568779,-0.0325393006205558,84.09918212890625,-50.209014892578125,258.5975341796875
1700075672,0.9912567138671876,-0.0243988037109375,-0.140533447265625,-0.0447373762726783,0.0241138581186532,-0.0260824672877788,83.38764953613281,-49.40992736816406,258.6419982910156
1700075672,0.990020751953125,-0.000762939453125,-0.1527557373046875,-0.0491419807076454,0.0161589961498975,-0.0364959575235843,82.59098815917969,-49.017578125,258.9173278808594
1700075672,1.0029449462890625,0.02508544921875,-0.14642333984375,-0.0181909874081611,0.0093666035681962,-0.0484602116048336,81.96261596679688,-48.57310485839844,259.56787109375
1700075672,1.000396728515625,0.023468017578125,-0.1360626220703125,0.015450594946742,0.0132510904222726,-0.0576494485139846,81.09925842285156,-48.410888671875,260.02117919921875
1700075672,0.9899749755859376,0.006805419921875,-0.135009765625,0.0322311744093894,0.017429057508707,-0.0475787036120891,80.32536315917969,-48.13117980957031,260.2406311035156
1700075672,0.981109619140625,-0.006134033203125,-0.1385955810546875,0.0351041927933692,0.0164740476757287,-0.0392432771623134,80.22718811035156,-48.253204345703125,260.09100341796875
1700075672,0.97857666015625,-0.0173187255859375,-0.145172119140625,0.0286878366023302,0.0183023083955049,-0.0245056096464395,79.39472961425781,-47.97434997558594,259.9525451660156
1700075672,0.980926513671875,-0.0234832763671875,-0.1490325927734375,0.018067417666316,0.0158713739365339,-0.0187609046697616,79.21046447753906,-48.07496643066406,260.9309997558594
1700075672,0.988311767578125,-0.0259552001953125,-0.14862060546875,0.006425941362977,0.0105471834540367,-0.0105037735775113,78.42071533203125,-48.01737976074219,260.6377258300781
1700075672,0.9925994873046876,-0.0163726806640625,-0.149444580078125,0.0052371062338352,0.0063676182180643,-0.0116172414273023,77.74598693847656,-47.97453308105469,260.1141357421875
1700075672,0.9928741455078124,0.000762939453125,-0.1481781005859375,0.0113035207614302,0.0065694856457412,-0.0187044460326433,77.46891784667969,-48.32241821289063,260.6171264648437
1700075672,0.993499755859375,0.01202392578125,-0.1482696533203125,0.0163451507687568,0.0002740392810665,-0.0252563543617725,76.77629089355469,-48.45751953125,260.24810791015625
1700075672,0.9922943115234376,0.01177978515625,-0.1456298828125,0.0162319671362638,0.0056184707209467,-0.0231274235993623,76.87486267089844,-48.88807678222656,260.3481750488281
1700075672,0.9894256591796876,-0.0094451904296875,-0.1360321044921875,-0.0107977865263819,0.0172759257256984,-0.0171803180128335,76.31599426269531,-48.80668640136719,260.57373046875
1700075672,0.986541748046875,-0.0453643798828125,-0.1222076416015625,-0.0417927205562591,0.0490287952125072,-0.0043148533441126,76.48011779785156,-49.06452941894531,260.5682373046875
1700075672,0.9823760986328124,-0.076416015625,-0.123443603515625,-0.0872036144137382,0.0375577621161937,0.0303027778863906,75.44357299804688,-49.142608642578125,259.75054931640625
1700075672,0.9742279052734376,-0.0198974609375,-0.172393798828125,-0.1043580994009971,0.0066342004574835,0.0147722885012626,75.5281982421875,-49.54840087890625,259.21697998046875
1700075672,1.0087127685546875,0.0537872314453125,-0.1720733642578125,-0.0556257106363773,-0.0008106662426143,-0.0292990319430828,75.37109375,-49.908477783203125,258.742919921875
1700075672,1.0138702392578125,0.07550048828125,-0.143280029296875,0.013267601840198,0.0012687299167737,-0.067284494638443,74.96942138671875,-50.17010498046875,258.25152587890625
1700075672,0.9901275634765624,0.05242919921875,-0.1373443603515625,0.0422462560236454,0.0039497343823313,-0.0719141364097595,74.36126708984375,-50.516937255859375,257.316162109375
1700075672,0.9832611083984376,0.0021514892578125,-0.1335296630859375,0.0234645791351795,0.0102545013651251,-0.0510749034583568,74.58924865722656,-50.68161010742188,256.3294677734375
1700075672,0.9801025390625,-0.0408477783203125,-0.1373291015625,-0.0117887491360306,0.0131525536999106,-0.0205191224813461,74.28852844238281,-51.19047546386719,255.5262145996093
1700075672,0.978790283203125,-0.0596466064453125,-0.1504364013671875,-0.0340056382119655,0.0144668240100145,0.006753243971616,74.63824462890625,-51.464263916015625,253.56021118164065
1700075672,0.981414794921875,-0.0489501953125,-0.1504058837890625,-0.0369143411517143,0.0136572225019335,0.0125871645286679,74.51956176757812,-52.46063232421875,252.799057006836
1700075672,0.989288330078125,-0.0251007080078125,-0.14227294921875,-0.0206027459353208,0.0153565853834152,-0.000957406417001,74.45677185058594,-53.42970275878906,250.71337890625
1700075672,0.9922637939453124,0.00250244140625,-0.14251708984375,-0.0007480819476768,0.0104220146313309,-0.008853412233293,74.82601928710938,-53.93397521972656,250.02549743652344
1700075672,0.9906005859375,0.0323333740234375,-0.1477813720703125,0.0134343160316348,0.0030037793330848,-0.0261072348803281,75.04718017578125,-54.644622802734375,248.39028930664065
1700075672,0.998199462890625,0.0327911376953125,-0.1467132568359375,0.0207082070410251,0.0023350596893578,-0.037128459662199,75.31251525878906,-55.38533020019531,247.222885131836
1700075672,0.9928131103515624,0.0104827880859375,-0.1439056396484375,0.0072368737310171,0.0093394396826624,-0.0306647010147571,75.42379760742188,-56.28523254394531,246.0548858642578
1700075672,0.9821319580078124,-0.016815185546875,-0.143157958984375,-0.0134305879473686,0.0138313937932252,-0.0160615239292383,75.93814086914062,-57.27066040039063,245.201889038086
1700075672,0.9785919189453124,-0.02593994140625,-0.1441802978515625,-0.0264981854707002,0.0127416281029582,-0.0021174794528633,76.25576782226562,-58.393402099609375,244.36143493652344
1700075672,0.9842376708984376,-0.0206146240234375,-0.1439208984375,-0.0135214012116193,0.018391789868474,0.0019776634871959,76.70547485351562,-59.68312072753906,243.4071655273437
1700075672,0.9872894287109376,-0.0137939453125,-0.138519287109375,0.0069196913391351,0.0139954444020986,0.0075191687792539,76.91401672363281,-60.35133361816406,243.07989501953125
1700075672,0.984161376953125,-0.010162353515625,-0.1438751220703125,0.0230062492191791,0.0122132562100887,0.0052176653407514,77.55184936523438,-61.13059997558594,241.96763610839844
1700075672,0.987701416015625,-0.0072174072265625,-0.148193359375,0.0320213176310062,0.0073226275853812,0.0045087318867444,77.89518737792969,-61.82643127441406,241.4821929931641
1700075672,0.9919281005859376,-0.0063934326171875,-0.1502532958984375,0.0298207458108663,0.0051090084016323,0.0063748084940016,78.36991882324219,-62.7572021484375,241.3542022705078
1700075672,0.991363525390625,-0.0089874267578125,-0.148895263671875,0.0241479463875293,0.0093184001743793,0.0107053751125931,78.93565368652344,-63.01921081542969,240.7621917724609
1700075672,0.99224853515625,-0.02337646484375,-0.1397705078125,0.0010458233300596,0.0226523149758577,0.0140835950151085,78.83453369140625,-63.50926208496094,240.53941345214844
1700075672,0.991546630859375,-0.038360595703125,-0.131683349609375,-0.0157858878374099,0.0228563137352466,0.025406289845705,78.93728637695312,-64.18928527832031,240.2472076416016
1700075672,0.988677978515625,-0.0157470703125,-0.14923095703125,-0.0242004115134477,0.0087721860036253,0.0179494395852088,79.40324401855469,-64.60624694824219,240.3247985839844
1700075672,0.9989776611328124,0.0245361328125,-0.1568603515625,-0.0142726795747876,0.0030722226947546,-0.0082560656592249,79.24560546875,-64.93002319335938,239.73252868652344
1700075673,1.0016632080078125,0.0348968505859375,-0.152862548828125,0.0140638872981071,-0.0057186055928468,-0.0257623549550771,79.21479797363281,-65.3990478515625,239.65597534179688
1700075673,0.9903106689453124,0.0204620361328125,-0.1496124267578125,0.0294372513890266,-0.0015166702214628,-0.0240539368242025,79.09016418457031,-65.27508544921875,238.8773193359375
1700075673,0.983428955078125,-0.0033111572265625,-0.1438140869140625,0.0260851308703422,-0.0005400890368036,-0.0161099936813116,78.2103271484375,-65.03877258300781,238.1407470703125
1700075673,0.981353759765625,-0.023162841796875,-0.1421661376953125,0.0190152358263731,0.0043457462452352,-0.0016346483025699,77.71343994140625,-64.97312927246094,238.1801300048828
1700075673,0.9796295166015624,-0.034332275390625,-0.146148681640625,0.0090275835245847,0.002305498579517,0.0159792322665452,77.67337036132812,-65.85145568847656,238.1162567138672
1700075673,0.9801788330078124,-0.0262298583984375,-0.1506805419921875,0.0066959857940673,0.0010801780736073,0.0247761867940425,77.70225524902344,-66.48402404785156,238.12794494628903
1700075673,0.9873809814453124,-0.00933837890625,-0.1460113525390625,0.0131496237590909,0.0016602146206423,0.0232230313122272,77.17861938476562,-66.6925048828125,238.1291961669922
1700075673,0.9919891357421876,-0.00408935546875,-0.134613037109375,0.0221092961728572,0.0130433635786175,0.0168428961187601,77.256591796875,-66.5328369140625,237.97886657714844
1700075673,0.9904327392578124,-0.0139617919921875,-0.1336212158203125,0.0154790906235575,0.0171550177037715,0.022782277315855,76.70278930664062,-66.53608703613281,237.6388702392578
1700075673,0.989990234375,-0.0223388671875,-0.1439971923828125,-0.005111405160278,0.0089410310611128,0.0320468805730342,76.63246154785156,-67.25018310546875,237.538314819336
1700075673,0.990325927734375,-0.0050811767578125,-0.1622772216796875,-0.0175110828131437,-0.0056996974162757,0.0234565902501344,76.64161682128906,-67.45101928710938,237.6544189453125
1700075673,0.9982757568359376,0.0163421630859375,-0.1583099365234375,-0.002566754585132,-0.0095285242423415,0.0068587050773203,76.16717529296875,-67.87071228027344,236.95147705078125
1700075673,0.99664306640625,0.0214691162109375,-0.14996337890625,0.0120438793674111,-0.0125091336667537,-0.0057761301286518,75.81938171386719,-68.31791687011719,236.2466735839844
1700075673,0.99005126953125,0.0083465576171875,-0.1468963623046875,0.0171243920922279,-0.0165001470595598,-0.0025582325179129,75.69462585449219,-68.38441467285156,236.73309326171875
1700075673,0.9896087646484376,-0.0044403076171875,-0.1420135498046875,0.018531072884798,-0.0126281771808862,-0.0007406250806525,75.17338562011719,-68.68368530273438,236.04830932617188
1700075673,0.987518310546875,-0.0152130126953125,-0.1439361572265625,0.0173917729407548,-0.0119197759777307,0.0141597613692283,74.56697082519531,-68.38629150390625,236.1929931640625
1700075673,0.9833221435546876,-0.010650634765625,-0.147979736328125,0.0260286703705787,-0.015459650196135,0.0151611100882291,74.82705688476562,-68.43548583984375,236.4389495849609
1700075673,0.98779296875,-0.0024261474609375,-0.1416168212890625,0.0377971790730953,-0.0133861126378178,0.0189728923141956,74.55885314941406,-68.49876403808594,236.25631713867188
1700075673,0.98681640625,-0.0036773681640625,-0.1346435546875,0.0484325140714645,-0.003776895115152,0.0249466281384229,74.61209106445312,-68.69239807128906,236.08419799804688
1700075673,0.9839019775390624,-0.0179595947265625,-0.138092041015625,0.0471438094973564,-0.0013267868198454,0.0388424694538116,74.71641540527344,-69.07192993164062,235.7623748779297
1700075673,0.982025146484375,-0.0312042236328125,-0.1400909423828125,0.0326109416782856,0.0019249328179284,0.0524991601705551,74.65150451660156,-68.89212036132812,235.36007690429688
1700075673,0.98614501953125,-0.0448455810546875,-0.13922119140625,0.0099258674308657,0.0039350870065391,0.0736020505428314,74.26795959472656,-69.40766906738281,235.78062438964844
1700075673,0.9794769287109376,-0.0242919921875,-0.1534576416015625,0.0021576930303126,-0.0088022798299789,0.0698571130633354,74.26570129394531,-69.82670593261719,235.0911102294922
1700075673,0.9902191162109376,0.0118255615234375,-0.157867431640625,0.0192261580377817,-0.0092765893787145,0.0524839796125888,74.264404296875,-69.8536376953125,235.27700805664065
1700075673,0.9987030029296876,0.0303192138671875,-0.1451416015625,0.0450353845953941,-0.0087434239685535,0.0323502160608768,74.02651977539062,-69.92117309570312,235.27780151367188
1700075673,0.995269775390625,0.034576416015625,-0.134674072265625,0.0564126744866371,-0.0068467208184301,0.0189808811992406,73.92282104492188,-70.08305358886719,234.96221923828125
1700075673,0.9963226318359376,0.0196380615234375,-0.132171630859375,0.0505404062569141,0.000116912771773,0.0156676433980464,73.88052368164062,-70.353271484375,234.9354248046875
1700075673,0.995452880859375,-0.004180908203125,-0.1373443603515625,0.0346722267568111,0.0022583606187254,0.0296628214418888,73.81800842285156,-70.32820129394531,235.1007843017578
1700075673,0.9852142333984376,-0.0143280029296875,-0.1466522216796875,0.0124840997159481,-7.1905346885e-06,0.0359444171190261,73.49440002441406,-70.69270324707031,235.06993103027344
1700075673,0.985809326171875,-0.01177978515625,-0.147857666015625,0.0066248793154954,9.21453756745e-05,0.0413540974259376,73.71574401855469,-70.56883239746094,234.6268005371093
1700075673,0.9883575439453124,-0.001373291015625,-0.14776611328125,0.0162804368883371,-0.0038171086926013,0.0357342958450317,73.49900817871094,-71.09442138671875,234.94337463378903
1700075673,0.9910125732421876,0.00726318359375,-0.1416168212890625,0.0299168862402439,-0.0022378542926162,0.0341265462338924,73.43832397460938,-71.01731872558594,234.7588348388672
1700075673,0.988372802734375,0.0047454833984375,-0.1399383544921875,0.0367066152393817,-0.0027422569692134,0.0343893989920616,73.42657470703125,-71.01715087890625,234.84088134765625
1700075673,0.983245849609375,-0.0019989013671875,-0.1448974609375,0.0385609753429889,-0.001873267465271,0.0385559126734733,73.36351013183594,-71.03976440429688,235.14634704589844
1700075673,0.9852447509765624,-0.0009002685546875,-0.146026611328125,0.034399252384901,-0.0038820898625999,0.0405527539551258,72.9310302734375,-71.28382873535156,234.5573883056641
1700075673,0.9906158447265624,0.007476806640625,-0.1406402587890625,0.0405652709305286,-0.0025377261918038,0.0359984822571277,73.01826477050781,-71.06246948242188,234.49317932128903
1700075673,0.99432373046875,0.011199951171875,-0.13250732421875,0.0419834032654762,0.0055335159413516,0.0282934233546257,72.84721374511719,-71.67747497558594,234.3566131591797
1700075673,0.9934234619140624,0.000885009765625,-0.1317291259765625,0.0246912315487861,0.0083990776911377,0.0327843129634857,72.55783081054688,-71.60287475585938,234.4382476806641
1700075673,0.9894256591796876,-0.015045166015625,-0.138641357421875,0.0100217415019869,0.0077924095094203,0.0447458997368812,72.48489379882812,-71.68240356445312,234.1692810058593
1700075673,0.9852447509765624,-0.0028839111328125,-0.153839111328125,0.0018112158868461,-0.0012420982820913,0.0410262644290924,72.12294006347656,-71.84405517578125,234.31448364257807
1700075673,0.9959716796875,0.022552490234375,-0.1548614501953125,0.0169648695737123,-0.0075532575137913,0.0300433859229087,72.27326965332031,-71.85653686523438,233.7530212402344
1700075673,0.9960174560546876,0.0214996337890625,-0.142242431640625,0.0327187962830066,-0.0041667819023132,0.0208493545651435,72.45654296875,-72.13284301757812,234.18310546875
1700075673,0.9850311279296876,0.0059356689453125,-0.1415863037109375,0.031305193901062,-0.0044011399149894,0.0334493033587932,72.36331176757812,-71.79051208496094,234.27003479003903
1700075673,0.984710693359375,-0.0041656494140625,-0.1425933837890625,0.0255772657692432,-0.0047377636656165,0.0406089462339878,72.23356628417969,-72.06326293945312,234.00889587402344
1700075673,0.9868316650390624,-0.0021514892578125,-0.140350341796875,0.0179885886609554,-0.0018596854060888,0.0406462289392948,72.38636779785156,-71.90299987792969,234.16612243652344
1700075673,0.9871673583984376,0.002105712890625,-0.1423492431640625,0.0140513703227043,-0.0024509071372449,0.0392571240663528,72.30952453613281,-72.17587280273438,234.042221069336
1700075673,0.9897613525390624,0.01348876953125,-0.1429595947265625,0.024097878485918,-0.0042927493341267,0.0347467958927154,72.00511169433594,-72.7314453125,234.0100860595703
1700075673,0.995880126953125,0.0230712890625,-0.139068603515625,0.0366845093667507,-0.0035555863287299,0.0230408702045679,72.06282043457031,-72.65606689453125,233.8759155273437
1700075673,0.99627685546875,0.0238037109375,-0.138824462890625,0.0442609377205371,0.0001920139184221,0.0197534654289484,72.20854187011719,-72.67552185058594,233.85226440429688
1700075673,0.9908599853515624,0.015869140625,-0.1383056640625,0.0448867790400981,0.0005041363765485,0.0228627044707536,72.42994689941406,-72.69599914550781,233.98312377929688
1700075673,0.9878692626953124,0.00140380859375,-0.1385498046875,0.0333254672586917,0.0019670107867568,0.0305613707751035,72.17327880859375,-72.84727478027344,233.75244140625
1700075673,0.9857330322265624,-0.0096435546875,-0.142059326171875,0.0196722373366355,0.0036852823104709,0.0412574261426925,71.88844299316406,-73.11737060546875,234.0154266357422
1700075673,0.985595703125,-0.0068817138671875,-0.1428375244140625,0.0088214548304677,0.0040128510445356,0.0417035035789012,72.07351684570312,-73.35765075683594,234.10986328125
1700075673,0.9902801513671876,0.0047149658203125,-0.137237548828125,0.0110547812655568,0.0093178683891892,0.0350136421620845,72.08041381835938,-73.48573303222656,233.84478759765625
1700075673,0.9912109375,0.0158843994140625,-0.1405029296875,0.0157581903040409,0.0028897961601614,0.0276856906712055,71.91641235351562,-73.08688354492188,234.2926788330078
1700075673,0.9906463623046876,0.033660888671875,-0.146514892578125,0.0190535858273506,-0.0005025385180488,0.0092012211680412,71.98887634277344,-73.31269836425781,234.32766723632807
1700075673,0.9951171875,0.0341644287109375,-0.1425933837890625,0.0279943495988845,-0.0002777676854748,0.0031979237683117,72.21875,-73.15272521972656,234.339599609375
1700075673,0.989410400390625,0.020477294921875,-0.1396331787109375,0.0246060099452734,0.0007006776868365,0.0061116884462535,72.06884765625,-73.11279296875,234.07052612304688
