timestamp,acc-x,acc-y,acc-z,gyr-x,gyr-y,gyr-z,mag-x,mag-y,mag-z
1700075264,1.041473388671875,0.1578826904296875,-0.3327484130859375,0.6999764442443848,0.8969672918319702,2.2710072994232178,144.0697784423828,-54.44798278808594,226.19688415527344
1700075264,0.854949951171875,0.0945281982421875,-0.445648193359375,0.5593013763427734,0.8655145764350891,2.3563649654388428,143.93142700195312,-53.95579528808594,225.7446136474609
1700075264,0.6324920654296875,0.1831207275390625,-0.5115203857421875,0.579797089099884,0.8012501001358032,2.2653510570526123,143.88673400878906,-53.39540100097656,225.4714813232422
1700075264,0.468505859375,0.4055938720703125,-0.5502471923828125,0.7930353283882141,0.807166576385498,2.05757212638855,143.737060546875,-52.97715759277344,225.7455902099609
1700075265,0.476898193359375,0.5682220458984375,-0.42010498046875,0.8693205118179321,0.8212988972663879,2.011201858520508,143.58392333984375,-52.26029968261719,225.29177856445312
1700075265,0.530975341796875,0.810455322265625,-0.3275604248046875,1.0227947235107422,0.7301713824272156,1.9417871236801147,143.6107635498047,-51.32258605957031,225.2920684814453
1700075265,0.6949462890625,0.760162353515625,-0.2753753662109375,1.1003962755203247,0.6980171799659729,1.966522574424744,143.4305877685547,-50.21180725097656,225.1913146972656
1700075265,0.7787017822265625,0.6081390380859375,-0.3688201904296875,1.0152816772460938,0.6550324559211731,2.0771310329437256,142.902587890625,-49.75538635253906,224.59768676757807
1700075265,0.8464202880859375,0.4928741455078125,-0.3957366943359375,0.9059163331985474,0.6446599364280701,2.2124876976013184,142.2989501953125,-49.02931213378906,224.49073791503903
1700075265,0.8812408447265625,0.3818511962890625,-0.4113311767578125,0.8496727347373962,0.66865074634552,2.3443193435668945,142.14381408691406,-48.17529296875,223.98866271972656
1700075265,0.833740234375,0.378387451171875,-0.4996490478515625,0.7756792306900024,0.6800035834312439,2.369014978408813,141.8919677734375,-47.35371398925781,223.7887420654297
1700075265,0.931488037109375,0.509307861328125,-0.5694427490234375,0.7775452733039856,0.6279376745223999,2.3552188873291016,141.59117126464844,-46.18716430664063,223.9359741210937
1700075265,1.173583984375,0.6360931396484375,-0.559661865234375,0.854465126991272,0.5254446268081665,2.3332221508026123,141.17774963378906,-45.777435302734375,223.0845947265625
1700075265,1.375091552734375,0.708984375,-0.5595245361328125,0.912071704864502,0.401306688785553,2.2942802906036377,140.60726928710938,-45.188995361328125,222.656982421875
1700075265,1.551788330078125,0.626434326171875,-0.519256591796875,0.9440850019454956,0.2984063923358917,2.3286168575286865,140.3604278564453,-44.50553894042969,222.6943206787109
1700075265,1.5867919921875,0.488189697265625,-0.5133819580078125,0.9071605205535888,0.1333079934120178,2.34994912147522,140.40538024902344,-44.2286376953125,221.9605865478516
1700075265,1.5821533203125,0.402587890625,-0.5362396240234375,0.8580278754234314,-0.0279008727520704,2.308730363845825,139.89857482910156,-43.88482666015625,221.27818298339844
1700075265,1.4995269775390625,0.4057159423828125,-0.5518341064453125,0.8574259877204895,-0.1042683497071266,2.0995774269104004,139.81442260742188,-43.900787353515625,221.4324951171875
1700075265,1.3502197265625,0.397064208984375,-0.552398681640625,0.8388342261314392,-0.118449680507183,1.8144705295562744,139.73570251464844,-44.23902893066406,220.46487426757807
1700075265,1.1348724365234375,0.407135009765625,-0.5263824462890625,0.6566364765167236,-0.1793282181024551,1.5605820417404177,139.6170654296875,-44.43711853027344,220.50143432617188
1700075265,0.8587799072265625,0.4477081298828125,-0.4027557373046875,0.3584995567798614,-0.1638488471508026,1.3502751588821411,139.58811950683594,-45.13616943359375,219.9716186523437
1700075265,0.544769287109375,0.483154296875,-0.3463134765625,0.0775927975773811,-0.0921062231063842,1.1305161714553833,140.73843383789062,-45.83148193359375,219.62530517578125
1700075265,0.228790283203125,0.4874114990234375,-0.4319610595703125,-0.1213799566030502,-0.0313944071531295,0.7886496186256409,140.7716522216797,-47.00196838378906,219.75689697265625
1700075265,0.00811767578125,0.4198150634765625,-0.439239501953125,-0.2506505846977234,-0.0783797577023506,0.2531201541423797,141.36367797851562,-48.48554992675781,219.2342224121093
1700075265,-0.1066436767578125,0.319366455078125,-0.294647216796875,-0.1704103499650955,-0.3163462579250335,-0.3395445048809051,141.59182739257812,-49.24174499511719,218.96847534179688
1700075265,-0.1940765380859375,0.2130584716796875,-0.0008697509765625,0.0914156660437583,-0.4885659515857696,-1.0625594854354858,142.26498413085938,-50.98640441894531,218.96188354492188
1700075265,-0.217498779296875,-0.009765625,0.2864227294921875,0.0727897882461547,-0.5799264907836914,-1.7488576173782349,142.90890502929688,-52.70652770996094,218.7613067626953
1700075265,-0.1201629638671875,-0.170623779296875,0.1471405029296875,-0.1573118567466735,-0.6326687932014465,-2.283529281616211,143.71824645996094,-54.1685791015625,218.659423828125
1700075265,0.159088134765625,-0.2862701416015625,-0.075164794921875,-0.2868983447551727,-0.7184420228004456,-2.6085848808288574,144.23428344726562,-56.21392822265625,218.79527282714844
1700075265,0.4636383056640625,-0.4669189453125,0.0380859375,-0.5277378559112549,-0.706456184387207,-2.556691884994507,144.76638793945312,-58.11224365234375,218.6573638916016
1700075265,0.574462890625,-0.4308013916015625,0.107574462890625,-1.1726456880569458,-0.7837624549865723,-2.4297213554382324,145.2854766845703,-60.87310791015625,218.5072631835937
1700075265,0.6202239990234375,-0.202362060546875,-0.0298309326171875,-1.557320475578308,-0.9417752623558044,-2.5037267208099365,145.84866333007812,-62.8638916015625,219.3744506835937
1700075265,0.6823883056640625,0.039703369140625,-0.1326904296875,-1.5520089864730835,-1.0811758041381836,-2.704530715942383,146.37686157226562,-65.40737915039062,218.94699096679688
1700075265,0.73431396484375,0.210784912109375,-0.1371002197265625,-1.379999756813049,-1.169023871421814,-2.9332964420318604,146.9234161376953,-67.52229309082031,219.37803649902344
1700075265,0.779266357421875,0.33978271484375,-0.1241607666015625,-1.2282980680465698,-1.1931387186050415,-3.105025053024292,147.03460693359375,-70.27703857421875,220.2773284912109
1700075265,0.7955474853515625,0.476898193359375,-0.13946533203125,-1.1209156513214111,-1.2133796215057373,-3.2034599781036377,147.35171508789062,-73.17880249023438,220.2916412353516
1700075265,0.79071044921875,0.5912017822265625,-0.125457763671875,-1.0958013534545898,-1.2435675859451294,-3.3735604286193848,147.3999786376953,-75.38804626464844,221.1161651611328
1700075265,0.819580078125,0.5659027099609375,-0.1158447265625,-1.0071725845336914,-1.2955999374389648,-3.488133192062378,147.0303497314453,-78.19412231445312,221.268295288086
1700075265,0.858917236328125,0.4300079345703125,-0.1486968994140625,-0.9878402352333068,-1.335484504699707,-3.474897146224976,147.50149536132812,-80.91691589355469,221.5551300048828
1700075265,0.86834716796875,0.3835601806640625,-0.215728759765625,-1.086834192276001,-1.3241742849349976,-3.422999858856201,147.2676239013672,-83.1580810546875,222.76956176757807
1700075265,0.911590576171875,0.3604278564453125,-0.27191162109375,-1.2971152067184448,-1.3193632364273071,-3.3517205715179443,146.94212341308594,-85.76261901855469,223.25149536132807
1700075265,0.94012451171875,0.37335205078125,-0.3103485107421875,-1.3800151348114014,-1.3954851627349854,-3.2555880546569824,146.85791015625,-88.09321594238281,224.0844116210937
1700075265,0.96685791015625,0.43206787109375,-0.279510498046875,-1.2384450435638428,-1.4831993579864502,-3.2199831008911133,146.27976989746094,-90.9210968017578,224.7691650390625
1700075265,1.0266265869140625,0.4854583740234375,-0.262451171875,-0.9065408110618592,-1.5510404109954834,-3.2481257915496826,145.65444946289062,-92.80303955078124,225.5659942626953
1700075265,1.074493408203125,0.5537872314453125,-0.2838897705078125,-0.6248990297317505,-1.5132291316986084,-3.244699001312256,145.14035034179688,-95.09420776367188,226.65753173828125
1700075265,1.0520477294921875,0.675445556640625,-0.4350738525390625,-0.5402864217758179,-1.39422345161438,-3.2770910263061523,144.67918395996094,-97.37750244140624,226.86724853515625
1700075265,0.9847869873046876,0.76776123046875,-0.648681640625,-0.5766289830207825,-1.3987784385681152,-3.2904858589172363,143.97967529296875,-99.27223205566406,228.28575134277344
1700075265,0.9556427001953124,0.8282470703125,-0.6446990966796875,-0.4517450928688049,-1.4241011142730713,-3.2731289863586426,143.88107299804688,-100.4796905517578,228.4775238037109
1700075265,0.98419189453125,0.796051025390625,-0.510223388671875,-0.207072228193283,-1.323768138885498,-3.174458265304565,143.21075439453125,-102.77580261230467,228.8509063720703
1700075265,0.97747802734375,0.728759765625,-0.4505767822265625,0.0235735028982162,-1.2027711868286133,-3.031638860702514,142.49932861328125,-104.01104736328124,229.23716735839844
1700075265,1.0040283203125,0.7061920166015625,-0.4398345947265625,0.1747949719429016,-1.1287131309509275,-2.93652868270874,141.87506103515625,-105.52717590332033,229.92947387695312
1700075265,1.097137451171875,0.6775054931640625,-0.4444122314453125,0.2131863087415695,-1.0683449506759644,-2.922224760055542,141.35377502441406,-106.24098205566406,230.36639404296875
1700075265,1.18865966796875,0.60552978515625,-0.4658203125,0.1849727779626846,-1.0141592025756836,-2.931804895401001,140.70680236816406,-107.50933837890624,230.37057495117188
1700075265,1.1899261474609375,0.52581787109375,-0.454437255859375,0.1766623854637146,-0.9579158425331116,-2.8750336170196533,140.2185516357422,-108.20059204101562,230.8446044921875
1700075265,1.10797119140625,0.47369384765625,-0.431793212890625,0.2922659516334533,-0.8715168237686157,-2.7131764888763428,139.8566436767578,-108.81710815429688,231.00244140625
1700075265,1.0094146728515625,0.4444122314453125,-0.40301513671875,0.4015839099884033,-0.7135719060897827,-2.5451722145080566,139.54806518554688,-109.50473022460938,230.93663024902344
1700075265,0.911407470703125,0.403717041015625,-0.4796142578125,0.4873044192790985,-0.6107618808746338,-2.344754695892334,138.9984893798828,-109.8845672607422,230.80490112304688
1700075265,0.8482513427734375,0.3860931396484375,-0.4878692626953125,0.6169790625572205,-0.5680655837059021,-2.119023084640503,138.5838165283203,-110.19923400878906,231.71563720703125
1700075265,0.8953704833984375,0.4030609130859375,-0.3617401123046875,0.8103532791137695,-0.5346159934997559,-1.9088544845581048,138.35369873046875,-110.8494873046875,230.9374389648437
1700075265,0.974639892578125,0.4456024169921875,-0.22991943359375,0.9925867915153505,-0.4668502807617187,-1.741077542304993,138.2273406982422,-111.2253875732422,230.95057678222656
1700075265,1.022613525390625,0.481689453125,-0.1627197265625,1.181743860244751,-0.4031580984592438,-1.5918443202972412,138.28033447265625,-111.40060424804688,231.5758819580078
1700075265,1.0381011962890625,0.4977264404296875,-0.118804931640625,1.3271011114120483,-0.3664224743843078,-1.430970549583435,137.63768005371094,-111.5880126953125,230.86550903320312
1700075265,1.0149688720703125,0.4860992431640625,-0.09442138671875,1.3875128030776978,-0.3272183537483215,-1.2467654943466189,137.79208374023438,-111.5766143798828,230.8621063232422
1700075265,0.9673614501953124,0.431732177734375,-0.106201171875,1.4163204431533811,-0.2997555434703827,-1.060053467750549,137.91192626953125,-111.3088836669922,231.28195190429688
1700075265,0.9168548583984376,0.3485870361328125,-0.1134033203125,1.371219038963318,-0.2522692680358886,-0.8615488409996033,137.96145629882812,-111.06455993652344,230.8295440673828
1700075265,0.8625946044921875,0.279327392578125,-0.131195068359375,1.2017359733581543,-0.1869618892669677,-0.6542513370513916,138.3739776611328,-110.71844482421876,230.58702087402344
1700075265,0.811309814453125,0.2197265625,-0.162841796875,0.984632968902588,-0.1151460334658622,-0.4463455379009247,138.64659118652344,-110.68984985351562,229.92477416992188
1700075265,0.787445068359375,0.16583251953125,-0.195281982421875,0.7858858108520508,-0.072008416056633,-0.2674612700939178,138.94451904296875,-110.95347595214844,230.36001586914065
1700075265,0.7995147705078125,0.1128692626953125,-0.1900177001953125,0.5885279774665833,-0.0855865404009819,-0.1280514448881149,139.17587280273438,-110.90943908691406,230.25518798828125
1700075265,0.822601318359375,0.0773468017578125,-0.1603546142578125,0.399180144071579,-0.0899581164121627,-0.0306569784879684,138.53366088867188,-111.15193176269533,230.234115600586
1700075265,0.8082427978515625,0.0599365234375,-0.1522979736328125,0.2123556733131408,-0.0884688794612884,0.0555796399712562,138.06704711914062,-112.5398406982422,230.1362762451172
1700075265,0.76129150390625,0.0401763916015625,-0.152130126953125,-0.0355713106691837,-0.0549841560423374,0.1661527603864669,138.50965881347656,-112.60427856445312,229.9986114501953
1700075265,0.733154296875,0.0065765380859375,-0.1452484130859375,-0.3586732149124145,-0.0398254431784153,0.2995491623878479,138.32168579101562,-112.39401245117188,229.84292602539065
1700075265,0.74725341796875,-0.015869140625,-0.14111328125,-0.5705899596214294,0.0305901337414979,0.4213778674602508,138.0146942138672,-112.61033630371094,230.23309326171875
1700075265,0.7661285400390625,-0.1050872802734375,-0.13519287109375,-0.7622339725494385,0.1713448464870453,0.6282269358634949,138.27613830566406,-112.08633422851562,230.4384002685547
1700075265,0.78619384765625,-0.110565185546875,-0.20172119140625,-1.043213129043579,0.4793261289596557,1.039299726486206,137.70565795898438,-112.1444854736328,230.5880126953125
1700075265,0.771240234375,0.0358734130859375,-0.4340057373046875,-1.4308466911315918,1.1467115879058838,1.4911248683929443,137.69700622558594,-111.7828369140625,230.2252349853516
1700075265,0.6385040283203125,0.3376617431640625,-1.0764923095703125,-1.250432372093201,1.2274231910705566,1.7586232423782349,137.34930419921875,-111.11422729492188,230.5204925537109
1700075265,0.496337890625,0.50714111328125,-1.183074951171875,-0.7892698645591736,1.905445098876953,1.786993384361267,137.7426300048828,-110.391845703125,230.0377349853516
1700075265,0.7098541259765625,0.5295867919921875,-1.4758453369140625,-0.4350947439670563,2.6787304878234863,1.792922019958496,137.5115966796875,-110.252197265625,229.44482421875
1700075265,0.5766448974609375,0.7171783447265625,-2.2514801025390625,-0.4421918094158172,-0.0213279258459806,1.11268413066864,137.52069091796875,-109.85090637207033,228.8504943847656
1700075265,2.452377319335937,0.16729736328125,0.32305908203125,-0.1314688175916671,0.2478691935539245,-0.4123790264129638,137.298095703125,-108.94390869140624,228.42648315429688
1700075265,3.2827301025390625,-0.9666290283203124,0.2386474609375,0.9589033722877502,0.7672502994537354,-0.5321451425552368,136.82484436035156,-108.37583923339844,228.1660919189453
1700075265,1.8218231201171875,-0.9017791748046876,0.024566650390625,1.89618718624115,0.7741292715072632,0.2931506633758545,137.0254364013672,-107.82778930664062,227.895751953125
1700075265,0.9170684814453124,-0.9045867919921876,0.3535919189453125,1.874693393707276,0.7878232598304749,0.9376590847969056,137.059814453125,-107.20979309082033,226.6586761474609
1700075265,0.8346405029296875,-1.1407012939453125,0.274444580078125,0.4244596660137176,0.8216879963874817,1.3025022745132446,136.919189453125,-106.891845703125,226.3780975341797
1700075265,0.9497833251953124,-0.83892822265625,0.050384521484375,-0.8642170429229736,0.9754639863967896,1.7295454740524292,136.80548095703125,-106.51490783691406,226.59698486328125
1700075265,1.0990142822265625,-0.326324462890625,0.0462493896484375,-1.298043131828308,1.003596305847168,2.040092945098877,136.9356231689453,-106.19088745117188,226.2195281982422
1700075265,1.3870086669921875,0.0390777587890625,0.1370849609375,-1.158791184425354,0.8258891105651855,1.898593068122864,136.40199279785156,-106.15242004394533,225.7689514160156
1700075265,1.6034698486328125,0.2938079833984375,0.0132598876953125,-0.6373271942138672,0.313730239868164,1.3564238548278809,136.42662048339844,-105.81626892089844,225.4438934326172
1700075265,1.72607421875,0.545928955078125,-0.0329132080078125,-0.7088565230369568,0.3004682064056396,0.9167481660842896,136.54730224609375,-105.67982482910156,225.67111206054688
1700075265,2.1226348876953125,0.6851806640625,-0.01788330078125,0.0805726051330566,0.7848750948905945,0.6164959669113159,136.1523895263672,-105.39901733398438,225.52696228027344
1700075265,2.3072509765625,0.2881317138671875,0.24456787109375,0.6081725358963013,0.954888641834259,0.753677248954773,136.1298065185547,-105.26895141601562,224.86900329589844
1700075265,1.6569976806640625,0.170654296875,-0.0238494873046875,0.6049527525901794,0.6510422229766846,0.9385067224502563,136.1306915283203,-104.7565460205078,225.4530792236328
1700075265,0.9786224365234376,0.208892822265625,-0.4632720947265625,0.2891870737075805,0.3605882823467254,0.7575966119766235,136.249755859375,-104.81036376953124,225.02685546875
1700075265,0.7581939697265625,0.078338623046875,-0.6625823974609375,0.0045055360533297,0.1744256019592285,0.4665349423885345,136.0409698486328,-104.66490173339844,224.6271514892578
1700075265,0.66204833984375,0.076171875,-0.63104248046875,0.0894372016191482,0.0931485891342163,0.3467494249343872,135.69577026367188,-104.56997680664062,224.33189392089844
1700075265,0.7088470458984375,0.1499786376953125,-0.4388275146484375,0.2817965149879455,-0.0259724780917167,0.3066896200180053,135.7460479736328,-104.3695068359375,224.2270355224609
1700075265,0.89239501953125,0.2476043701171875,-0.3290863037109375,0.2772835493087768,-0.1610032618045807,0.1659780442714691,135.67291259765625,-104.27552795410156,223.97897338867188
1700075265,1.0138092041015625,0.354278564453125,-0.329620361328125,0.1307074129581451,-0.1849365681409835,-0.0744172409176826,135.97604370117188,-104.31497192382812,224.37985229492188
1700075265,1.05706787109375,0.349822998046875,-0.32574462890625,0.0595064684748649,-0.1315614879131317,-0.242882415652275,135.7958984375,-103.77093505859376,224.24822998046875
1700075265,1.0463714599609375,0.2196197509765625,-0.2316741943359375,-0.0071985241957008,-0.074294738471508,-0.2486628144979477,135.95770263671875,-103.36167907714844,223.76397705078125
1700075265,1.024932861328125,0.077178955078125,-0.2192840576171875,-0.0564206652343273,-0.0680136680603027,-0.1918099075555801,135.86297607421875,-103.4118194580078,224.07101440429688
1700075265,1.038543701171875,-0.007171630859375,-0.2873687744140625,-0.0722600817680358,-0.0912846401333808,-0.1177764311432838,135.9654083251953,-103.11712646484376,223.9544677734375
1700075266,1.0414276123046875,-0.0042724609375,-0.32281494140625,-0.0282745156437158,-0.1102745756506919,-0.1050249561667442,135.98687744140625,-102.57752990722656,223.4454803466797
1700075266,1.0048370361328125,0.0502471923828125,-0.311431884765625,0.062442872673273,-0.1111978963017463,-0.1340725868940353,136.0784149169922,-102.34268188476562,223.24917602539065
1700075266,0.946044921875,0.0967559814453125,-0.2755279541015625,0.1684619784355163,-0.0933440625667572,-0.1494147926568985,136.04115295410156,-102.18772888183594,223.57614135742188
1700075266,0.8820037841796875,0.1156158447265625,-0.2296600341796875,0.231026291847229,-0.0573242753744125,-0.1354028284549713,135.90542602539062,-101.88392639160156,223.4008178710937
1700075266,0.8287506103515625,0.07421875,-0.22882080078125,0.2288680672645568,-0.0186123009771108,-0.0648732706904411,136.01686096191406,-101.88786315917967,223.08189392089844
1700075266,0.8200531005859375,-0.009796142578125,-0.2584075927734375,0.1410111784934997,0.0107642309740185,0.0544371418654918,135.91685485839844,-101.11154174804688,222.73516845703125
1700075266,0.8673248291015625,-0.0752105712890625,-0.2662811279296875,0.013759221881628,0.0445064827799797,0.1879528611898422,136.01295471191406,-100.92636108398438,222.90464782714844
1700075266,0.9291839599609376,-0.117889404296875,-0.2523956298828125,-0.0342591702938079,0.1044963151216507,0.341788500547409,135.77125549316406,-100.79859924316406,222.22817993164065
1700075266,0.9429473876953124,-0.14093017578125,-0.2361602783203125,0.0085426215082407,0.165293350815773,0.514205813407898,135.9341278076172,-100.39114379882812,222.80291748046875
1700075266,0.9185791015625,-0.1267852783203125,-0.2075958251953125,0.0319462157785892,0.2324428260326385,0.666787326335907,135.73721313476562,-100.10470581054688,222.2046661376953
1700075266,0.9112091064453124,-0.098785400390625,-0.1882171630859375,0.0519675947725772,0.302416056394577,0.8052512407302856,135.7230682373047,-99.63069152832033,221.7963409423828
1700075266,0.8983306884765625,-0.0703277587890625,-0.2269287109375,0.0975324138998985,0.3464426398277282,0.905656099319458,135.6354522705078,-99.162841796875,221.7010803222656
1700075266,0.90631103515625,-0.070343017578125,-0.2565460205078125,0.1271435767412185,0.3786410391330719,1.0171691179275513,136.0252227783203,-99.18870544433594,221.5218811035156
1700075266,0.926177978515625,-0.0678558349609375,-0.2649688720703125,0.1820150762796402,0.4103217422962188,1.1465518474578855,135.60914611816406,-98.46511840820312,221.9398651123047
1700075266,0.9398345947265624,-0.0457611083984375,-0.241455078125,0.2207014858722686,0.4934848248958587,1.2784606218338013,135.7042999267578,-98.14930725097656,221.6868896484375
1700075266,0.952239990234375,-0.019195556640625,-0.237945556640625,0.2702061831951141,0.5638652443885803,1.3967206478118896,135.5401153564453,-97.74725341796876,221.1432037353516
1700075266,0.9542694091796876,0.00604248046875,-0.23394775390625,0.3041771948337555,0.6184640526771545,1.5115740299224854,135.43255615234375,-98.05778503417967,221.94189453125
1700075266,0.954071044921875,0.02374267578125,-0.2418212890625,0.3786796629428863,0.6947438716888428,1.6050856113433838,135.4510498046875,-97.76182556152344,221.3133087158203
1700075266,0.936859130859375,0.0282135009765625,-0.245025634765625,0.5201952457427979,0.7820209860801697,1.6930937767028809,135.46897888183594,-97.2196044921875,221.8577423095703
1700075266,0.8960418701171875,0.0568695068359375,-0.232391357421875,0.6129260063171387,0.8315123915672302,1.71747624874115,135.27821350097656,-96.85064697265624,220.8289794921875
1700075266,0.8745269775390625,0.1437835693359375,-0.2358551025390625,0.6161516308784485,0.8946918845176697,1.7136517763137815,135.3866424560547,-96.60670471191406,221.22799682617188
1700075266,0.8871307373046875,0.223785400390625,-0.2750701904296875,0.6748045086860657,0.9026401042938232,1.676578402519226,135.4813232421875,-96.2591552734375,220.92100524902344
1700075266,0.887481689453125,0.2333831787109375,-0.3318939208984375,0.7205467224121094,0.8981686234474182,1.669648051261902,135.36468505859375,-95.85610961914062,220.92686462402344
1700075266,0.849578857421875,0.271270751953125,-0.421661376953125,0.8039036393165588,0.845270574092865,1.6218680143356323,135.2014923095703,-95.01669311523438,220.2079925537109
1700075266,0.824920654296875,0.3223419189453125,-0.4208221435546875,0.8111959099769592,0.8239452838897705,1.580275535583496,135.2403106689453,-94.68214416503906,220.06288146972656
1700075266,0.8338775634765625,0.416656494140625,-0.3730010986328125,0.8082501888275146,0.7935924530029297,1.5333054065704346,134.94662475585938,-94.0714111328125,220.2642974853516
1700075266,0.8855743408203125,0.4720001220703125,-0.30084228515625,0.732596218585968,0.7806236147880554,1.557564377784729,134.8802947998047,-93.87149047851562,219.9559631347656
1700075266,0.9751129150390624,0.476959228515625,-0.3160400390625,0.7078562378883362,0.750458836555481,1.6219964027404783,134.88140869140625,-93.18635559082033,220.3595733642578
1700075266,1.071044921875,0.355377197265625,-0.35040283203125,0.6179444193840027,0.7265718579292297,1.6982102394104004,134.79501342773438,-92.78919982910156,219.6933135986328
1700075266,1.114898681640625,0.2532501220703125,-0.423675537109375,0.5563777685165405,0.7092240452766418,1.877561330795288,134.4492645263672,-91.76235961914062,219.2703857421875
1700075266,1.0282440185546875,0.1567230224609375,-0.4411163330078125,0.5111130475997925,0.7333890199661255,2.0809695720672607,134.57589721679688,-91.18449401855467,219.58303833007807
1700075266,0.869720458984375,0.0612945556640625,-0.4633026123046875,0.4195424020290375,0.6996099948883057,2.1913092136383057,134.228515625,-90.26795959472656,218.7624664306641
1700075266,0.6699981689453125,0.135101318359375,-0.4912567138671875,0.2957554757595062,0.6358145475387573,2.085831880569458,134.74765014648438,-89.68922424316406,218.56187438964844
1700075266,0.49041748046875,0.36077880859375,-0.508270263671875,0.2928025722503662,0.6429629921913147,1.9020596742630005,134.38018798828125,-88.87844848632812,218.7471466064453
1700075266,0.400177001953125,0.6357269287109375,-0.4494171142578125,0.4586120545864105,0.6146492958068848,1.6555769443511963,133.8306884765625,-88.30458068847656,218.1370391845703
1700075266,0.4721527099609375,0.77850341796875,-0.311187744140625,0.5790961384773254,0.6045085191726685,1.5982295274734497,134.0501708984375,-87.2288818359375,218.565185546875
1700075266,0.6896514892578125,0.8694000244140625,-0.3262176513671875,0.6273313164710999,0.545731246471405,1.6092995405197144,133.76455688476562,-86.56881713867188,218.2994537353516
1700075266,1.030975341796875,0.7308807373046875,-0.3153839111328125,0.5854906439781189,0.532063901424408,1.7465511560440063,133.5466766357422,-85.33306884765625,217.32237243652344
1700075266,1.1883697509765625,0.5546875,-0.4227142333984375,0.4529626965522766,0.4971482455730438,1.8789539337158203,133.13404846191406,-83.91285705566406,217.3572540283203
1700075266,1.4230194091796875,0.433563232421875,-0.458282470703125,0.4183383882045746,0.5302169919013977,2.0811092853546143,132.58920288085938,-82.22154235839844,216.66026306152344
1700075266,1.3543243408203125,0.2431182861328125,-0.4774169921875,0.4657312035560608,0.5409404635429382,2.253329277038574,132.25347900390625,-81.36734008789062,216.0302734375
1700075266,1.121612548828125,0.2073974609375,-0.6139678955078125,0.5705859661102295,0.4671879708766937,2.257097721099853,131.49082946777344,-79.8968505859375,215.13365173339844
1700075266,1.093353271484375,0.4489593505859375,-0.6168670654296875,0.6723557710647583,0.472955048084259,2.169344425201416,131.2653350830078,-78.37971496582031,215.3226013183593
1700075266,1.04901123046875,0.5525970458984375,-0.5048980712890625,0.7508284449577332,0.4355946183204651,2.1247782707214355,130.70448303222656,-76.85707092285156,215.040756225586
1700075266,1.102294921875,0.6064300537109375,-0.52508544921875,0.8193103075027466,0.3239026963710785,2.097029447555542,129.65447998046875,-75.32609558105469,213.9624481201172
1700075266,1.2884979248046875,0.602142333984375,-0.4800872802734375,0.8008724451065063,0.2113740295171737,2.0879364013671875,129.28614807128906,-74.03030395507812,213.6997528076172
1700075266,1.42529296875,0.564178466796875,-0.4213409423828125,0.7073187828063965,0.0799142718315124,2.08541202545166,128.46316528320312,-72.39280700683594,213.8023834228516
1700075266,1.50836181640625,0.530364990234375,-0.3853607177734375,0.542519211769104,-0.0680400356650352,2.103217363357544,127.54736328125,-70.85260009765625,212.6281890869141
1700075266,1.5106201171875,0.49774169921875,-0.40606689453125,0.3331454694271087,-0.1603294909000396,2.082185745239258,126.9232940673828,-69.17575073242188,212.56060791015625
1700075266,1.4058837890625,0.4602203369140625,-0.460296630859375,0.1621108800172805,-0.1769076585769653,2.0206308364868164,125.78880310058594,-67.49067687988281,212.2356109619141
1700075266,1.1807403564453125,0.4353179931640625,-0.5265350341796875,0.1138706430792808,-0.2178415209054947,1.7980763912200928,125.02799987792967,-66.36892700195312,211.8099060058593
1700075266,0.952423095703125,0.37139892578125,-0.5410308837890625,0.1705376505851745,-0.2175504267215728,1.4128551483154297,124.4796142578125,-64.7799072265625,211.62420654296875
1700075266,0.7653045654296875,0.2714080810546875,-0.4752197265625,0.1268202662467956,-0.1660382449626922,1.1615118980407717,123.36561584472656,-63.521240234375,211.70767211914065
1700075266,0.439453125,0.2978973388671875,-0.48284912109375,-0.0373875871300697,-0.1017588526010513,0.9525948762893676,122.8196258544922,-62.09315490722656,212.2149810791016
1700075266,0.1125640869140625,0.361358642578125,-0.53839111328125,-0.201730728149414,-0.0965547710657119,0.6212614178657532,121.99668884277344,-60.64802551269531,211.03533935546875
1700075266,-0.0727386474609375,0.3561553955078125,-0.464813232421875,-0.1036198660731315,-0.223795011639595,0.2220122963190078,121.40553283691406,-59.10504150390625,211.39149475097656
1700075266,-0.1329498291015625,0.3191070556640625,-0.24481201171875,0.3590031564235687,-0.4172723293304443,-0.2700053751468658,120.3937530517578,-57.69557189941406,211.45138549804688
1700075266,-0.0582733154296875,0.1893157958984375,0.0503997802734375,0.8606556057929993,-0.6429811120033264,-0.8367761373519897,119.468994140625,-56.17950439453125,211.2487030029297
1700075266,0.0735626220703125,0.07049560546875,0.25341796875,1.0366172790527344,-0.9125699400901794,-1.385725498199463,118.61305236816406,-54.83180236816406,210.65899658203125
1700075266,0.202484130859375,-0.0213775634765625,0.2720794677734375,0.97461199760437,-1.089767336845398,-1.7047783136367798,117.64549255371094,-53.31611633300781,210.7131500244141
1700075266,0.2093353271484375,-0.1104583740234375,0.23382568359375,0.6224401593208313,-1.1278153657913208,-1.868342995643616,116.77473449707033,-52.04449462890625,210.49432373046875
1700075266,0.2190399169921875,-0.178131103515625,0.092315673828125,0.0461728200316429,-1.1376148462295532,-1.9716960191726685,115.47596740722656,-50.57086181640625,211.1141357421875
1700075266,0.31695556640625,-0.2027740478515625,-0.0816802978515625,-0.56501305103302,-1.1949715614318848,-2.0616650581359863,114.41964721679688,-48.94938659667969,211.17340087890625
1700075266,0.4481658935546875,-0.172943115234375,-0.1535797119140625,-1.175282001495361,-1.2969746589660645,-2.181193590164185,113.43116760253906,-48.02055358886719,211.2626495361328
1700075266,0.6018218994140625,-0.0810699462890625,-0.1363677978515625,-1.741746187210083,-1.4158778190612793,-2.309190511703491,111.68214416503906,-46.365753173828125,212.0432586669922
1700075266,0.7569427490234375,0.0332489013671875,-0.0798187255859375,-2.1754605770111084,-1.542627215385437,-2.443621635437012,110.85777282714844,-45.46873474121094,212.85208129882807
1700075266,0.8710784912109375,0.08697509765625,-0.0578460693359375,-2.3639514446258545,-1.6682227849960327,-2.553724527359009,109.7716827392578,-44.67335510253906,213.1763458251953
1700075266,0.874847412109375,0.1286773681640625,-0.08966064453125,-2.387250661849976,-1.7388076782226562,-2.643658399581909,108.66111755371094,-43.97053527832031,213.70382690429688
1700075266,0.7957000732421875,0.2027587890625,-0.14849853515625,-2.316176414489746,-1.7958611249923706,-2.76544451713562,107.19854736328124,-43.41766357421875,214.4965667724609
1700075266,0.749298095703125,0.248504638671875,-0.1782379150390625,-2.131939172744751,-1.8572301864624023,-2.916182518005371,105.99685668945312,-43.20930480957031,214.7315826416016
1700075266,0.759429931640625,0.2685089111328125,-0.2132110595703125,-1.95031487941742,-1.8747782707214355,-3.0478515625,105.09938049316406,-43.40190124511719,214.6651306152344
1700075266,0.7778778076171875,0.300567626953125,-0.313201904296875,-1.6596249341964722,-1.8183432817459104,-3.109388828277588,104.06629943847656,-43.26812744140625,215.7073974609375
1700075266,0.7712249755859375,0.3671417236328125,-0.410064697265625,-1.128142476081848,-1.7737678289413452,-3.1774137020111084,103.5705108642578,-43.29466247558594,216.3841094970703
1700075266,0.792083740234375,0.4409942626953125,-0.420166015625,-0.4743191003799438,-1.7588125467300415,-3.334758043289185,102.87498474121094,-44.13523864746094,216.2465209960937
1700075266,0.880523681640625,0.4729766845703125,-0.4178466796875,0.0973372086882591,-1.7289448976516724,-3.544276475906372,103.0373992919922,-44.80757141113281,216.91168212890625
1700075266,1.0090484619140625,0.5060882568359375,-0.459228515625,0.3446159660816192,-1.6927118301391602,-3.6989049911499023,103.24530029296876,-45.92460632324219,217.41558837890625
1700075266,1.1168975830078125,0.569549560546875,-0.498565673828125,0.3694121241569519,-1.6248749494552612,-3.7800307273864746,103.91165161132812,-46.73439025878906,218.27587890625
1700075266,1.162322998046875,0.63018798828125,-0.5276336669921875,0.3544670045375824,-1.48555326461792,-3.821532011032105,104.51339721679688,-48.13563537597656,218.26953125
1700075266,1.143341064453125,0.6522979736328125,-0.5638885498046875,0.3199231326580047,-1.3300598859786987,-3.866043567657471,105.3822784423828,-50.11262512207031,218.80274963378903
1700075266,1.1048126220703125,0.6135711669921875,-0.570892333984375,0.1587595492601394,-1.1658344268798828,-3.909523963928223,105.95242309570312,-52.00291442871094,219.188232421875
1700075266,1.085540771484375,0.55731201171875,-0.5905609130859375,-0.1381586641073227,-1.0190434455871582,-3.916493654251098,106.62126159667967,-54.32833862304688,219.06951904296875
1700075266,1.091796875,0.5084228515625,-0.61737060546875,-0.4213272631168365,-0.8802293539047241,-3.818557024002075,107.53855895996094,-56.45970153808594,219.87939453125
1700075266,1.1029510498046875,0.49102783203125,-0.5892181396484375,-0.4345796704292297,-0.7883926033973694,-3.6176295280456543,107.98599243164062,-59.478363037109375,220.2094116210937
1700075266,1.157379150390625,0.5114288330078125,-0.528656005859375,-0.2045715153217315,-0.747992217540741,-3.3430521488189697,108.47813415527344,-61.67524719238281,221.45703125
1700075266,1.2671966552734375,0.5825042724609375,-0.496826171875,0.4212169945240021,-0.8035193681716919,-3.024967670440674,109.62889099121094,-64.1104736328125,222.41197204589844
1700075266,1.3932342529296875,0.7032012939453125,-0.4354705810546875,1.0087870359420776,-0.9697275161743164,-2.7990870475769043,110.01155090332033,-67.05917358398438,223.37301635742188
1700075266,1.4272918701171875,0.80670166015625,-0.4060211181640625,1.1806408166885376,-1.0595461130142212,-2.7074458599090576,110.5328369140625,-69.55415344238281,224.07090759277344
1700075266,1.32537841796875,0.854217529296875,-0.3811492919921875,1.0951080322265625,-0.8928729295730591,-2.599062442779541,110.3376007080078,-71.71664428710938,224.703369140625
1700075266,1.143829345703125,0.8375091552734375,-0.276641845703125,1.1750718355178833,-0.5862842798233032,-2.411367177963257,110.26956176757812,-74.76902770996094,225.86392211914065
1700075266,0.9986572265625,0.7054443359375,-0.1626129150390625,1.1871516704559326,-0.3724206984043121,-2.1955788135528564,110.28652954101562,-76.9208984375,226.58905029296875
1700075266,0.9627227783203124,0.51654052734375,-0.214508056640625,0.954289436340332,-0.3009848594665527,-1.9603039026260376,110.19172668457033,-79.445068359375,227.81544494628903
1700075266,0.991180419921875,0.38043212890625,-0.3296051025390625,0.6214925646781921,-0.3186267018318176,-1.6829023361206057,109.82009887695312,-81.6893310546875,229.4845123291016
1700075266,1.0207061767578125,0.294952392578125,-0.3636016845703125,0.3175321519374847,-0.3270942270755768,-1.3682645559310913,109.55361938476562,-84.34675598144531,230.5655517578125
1700075266,1.0134429931640625,0.2397308349609375,-0.3504180908203125,0.1231094151735305,-0.3015824854373932,-1.0581873655319214,108.93980407714844,-86.33555603027344,231.279525756836
1700075266,0.9566802978515624,0.2001495361328125,-0.307525634765625,9.56074800342e-05,-0.2233502715826034,-0.7849363684654236,108.31422424316406,-88.2774658203125,233.0341339111328
1700075266,0.87445068359375,0.204010009765625,-0.2545928955078125,-0.0785025283694267,-0.1200960502028465,-0.567106306552887,107.6470947265625,-90.11512756347656,234.0316772460937
1700075266,0.80743408203125,0.24957275390625,-0.2166290283203125,-0.0903370901942253,-0.0082805668935179,-0.394690066576004,107.04704284667967,-91.81231689453124,234.83290100097656
1700075266,0.7623291015625,0.2866973876953125,-0.1835784912109375,-0.0301610976457595,0.0914510861039161,-0.2364165335893631,106.45065307617188,-93.3359832763672,236.5751800537109
1700075266,0.7382965087890625,0.300384521484375,-0.15936279296875,0.0879503637552261,0.1990409344434738,-0.0880488976836204,106.20310974121094,-95.26564025878906,236.81179809570312
1700075267,0.743896484375,0.2796783447265625,-0.1701812744140625,0.2146313339471817,0.2979235649108886,0.0083833644166588,105.3537139892578,-96.66468811035156,237.86782836914065
1700075267,0.7935943603515625,0.2046051025390625,-0.196197509765625,0.2769104242324829,0.3529471457004547,0.0724379792809486,104.5222625732422,-97.53030395507812,238.2083740234375
1700075267,0.858551025390625,0.1136932373046875,-0.2255859375,0.1994926035404205,0.3931856453418731,0.165361002087593,103.87957763671876,-98.89364624023438,239.12608337402344
1700075267,0.863433837890625,0.057373046875,-0.2744903564453125,0.0624276921153068,0.4490987062454223,0.3179068565368652,102.84945678710938,-100.04875183105467,239.6694183349609
1700075267,0.819976806640625,0.024322509765625,-0.3036041259765625,-0.1028315722942352,0.5252515077590942,0.5307813286781311,102.04173278808594,-101.41343688964844,240.0594940185547
1700075267,0.7801971435546875,-0.0062713623046875,-0.3092803955078125,-0.3167947232723236,0.6046866774559021,0.7873334884643555,101.37409973144533,-102.15383911132812,239.6781311035156
1700075267,0.77532958984375,-0.0205230712890625,-0.3187255859375,-0.4644142687320709,0.6134583353996277,1.0318042039871216,100.31364440917967,-103.50973510742188,240.3232269287109
1700075267,0.8039398193359375,-0.0285797119140625,-0.2879791259765625,-0.4997525513172149,0.5675086975097656,1.1707158088684082,99.49111938476562,-104.05625915527344,240.0656280517578
1700075267,0.8396759033203125,-0.05108642578125,-0.22076416015625,-0.6745704412460327,0.7178438901901245,1.3186793327331543,98.82981872558594,-104.6420440673828,240.5317230224609
1700075267,0.8726806640625,0.032135009765625,-0.2944793701171875,-0.939578652381897,0.9780070185661316,1.172081470489502,98.2568817138672,-105.04338073730467,240.30633544921875
1700075267,0.7057037353515625,0.0438995361328125,-0.5632171630859375,-0.8221684098243713,0.6864777207374573,1.055431246757507,97.74325561523438,-105.58148193359376,240.14956665039065
1700075267,0.8028564453125,0.0277099609375,-0.1685638427734375,-0.4587798416614532,0.4400932192802429,0.8170820474624634,96.71275329589844,-105.9860382080078,239.8832550048828
1700075267,1.2474822998046875,-0.069000244140625,0.192626953125,-0.4461234211921692,2.354457139968872,1.2431821823120115,96.38746643066406,-105.97850036621094,239.7332000732422
1700075267,0.6126556396484375,0.3614959716796875,-1.2783660888671875,0.95295387506485,2.48616361618042,2.147127866744995,96.2602081298828,-105.8930206298828,240.14700317382807
1700075267,0.1600494384765625,1.0455169677734375,-1.4412384033203125,0.3671710789203644,-0.4776845574378967,2.3707613945007324,95.52069091796876,-106.15318298339844,239.29278564453125
1700075267,2.24957275390625,0.9288482666015624,0.614013671875,-0.045221272855997,-0.0942804291844368,0.5049020648002625,95.47938537597656,-106.60372924804688,239.135482788086
1700075267,3.2363433837890625,-0.62286376953125,-0.0116424560546875,0.332151859998703,1.084075093269348,-0.2142979204654693,94.68991088867188,-106.14231872558594,238.76828002929688
1700075267,1.9139251708984373,-0.8501129150390625,0.3241729736328125,0.0415194816887378,1.4541653394699097,0.3905083537101745,94.5966796875,-105.94918823242188,238.6094970703125
1700075267,0.917266845703125,-0.4222564697265625,0.53228759765625,-0.2288925647735595,1.3382253646850586,1.010087966918945,94.247802734375,-106.2390594482422,238.01187133789065
1700075267,0.4983367919921875,-0.2540130615234375,-0.12261962890625,-0.3642293512821197,0.8976176381111145,1.099552035331726,94.42253112792967,-106.09275817871094,237.9642639160156
1700075267,0.477874755859375,-0.3101654052734375,-0.555450439453125,-0.2417359352111816,0.700175940990448,0.6209753751754761,94.43963623046876,-106.09806823730467,238.36981201171875
1700075267,0.952789306640625,-0.5729217529296875,-0.4347991943359375,-0.0608668141067028,0.672680139541626,0.7004837989807129,93.94303894042967,-105.71435546875,238.01231384277344
1700075267,1.3293304443359375,-0.3938751220703125,-0.1739044189453125,-0.1868045032024383,0.6112327575683594,1.028396725654602,94.05223083496094,-105.9771728515625,239.09814453125
1700075267,1.479217529296875,-0.0622406005859375,-0.20538330078125,-0.3474085628986358,0.4926014542579651,1.0297937393188477,94.27011108398438,-106.28155517578124,238.7242126464844
1700075267,1.5887298583984375,0.021728515625,-0.1859283447265625,-0.6218920350074768,0.3586963713169098,0.8359034061431885,94.4079132080078,-106.00442504882812,238.0865478515625
1700075267,1.4529876708984375,0.0925140380859375,-0.188507080078125,-0.6778802275657654,0.2026745527982711,0.8465787172317505,94.1211395263672,-106.37818908691406,238.88150024414065
1700075267,1.221923828125,0.1939544677734375,-0.0731964111328125,-0.8004239797592163,0.2675536870956421,0.862467348575592,94.45803833007812,-106.30271911621094,239.0903778076172
1700075267,1.484130859375,0.078125,-0.038543701171875,-0.6999426484107971,0.4370409846305847,0.8036868572235107,94.1855010986328,-105.85212707519533,239.09312438964844
1700075267,1.9354400634765625,-0.0587005615234375,0.0110015869140625,-0.3599752187728882,0.5180324912071228,1.0503180027008057,94.03305053710938,-105.6936492919922,239.26177978515625
1700075267,1.821441650390625,0.1258544921875,-0.0689697265625,-0.1399890631437301,0.3526672422885895,1.233596920967102,94.052978515625,-105.81332397460938,239.0125274658203
1700075267,1.4157867431640625,0.4123687744140625,-0.2514495849609375,-0.0585948713123798,0.1322579085826873,0.9536311030387878,93.9375457763672,-104.9649658203125,238.53958129882807
1700075267,1.0620269775390625,0.4099884033203125,-0.38311767578125,0.0175326541066169,0.1054475978016853,0.5508005619049072,94.1043701171875,-104.9550323486328,238.74826049804688
1700075267,0.764495849609375,0.3487091064453125,-0.3843994140625,0.2766872644424438,0.213632121682167,0.3819572329521179,93.94068908691406,-105.67381286621094,239.3017120361328
1700075267,0.5912017822265625,0.26483154296875,-0.3640594482421875,0.5081337690353394,0.1623553484678268,0.3229967057704925,93.64369201660156,-105.62255859375,237.9148406982422
1700075267,0.748016357421875,0.1109161376953125,-0.3576812744140625,0.524963915348053,0.0625075846910476,0.3565003275871277,93.81329345703124,-105.08290100097656,236.99497985839844
1700075267,0.9459075927734376,0.0303192138671875,-0.3571319580078125,0.3576217889785766,0.0663590505719184,0.3905344605445862,93.18115234375,-104.4046630859375,235.80514526367188
1700075267,1.0336761474609375,-0.03619384765625,-0.3147430419921875,0.1667772680521011,0.1060558632016182,0.4450752139091491,93.03547668457033,-103.48484802246094,235.01353454589844
1700075267,1.0265655517578125,-0.0281219482421875,-0.3223724365234375,0.0187329407781362,0.0895637050271034,0.4934339523315429,93.23625183105467,-102.87969970703124,235.8212127685547
1700075267,0.9918060302734376,0.025238037109375,-0.337249755859375,-0.0618987865746021,0.0690594986081123,0.5041601061820984,93.48452758789062,-102.49765014648438,235.7187347412109
1700075267,0.9669342041015624,0.08001708984375,-0.3717041015625,-0.0721921697258949,0.0366797186434268,0.4740975201129913,93.51747131347656,-102.00149536132812,236.2989044189453
1700075267,0.9527130126953124,0.1626129150390625,-0.3424530029296875,-0.0672456175088882,0.0219031684100627,0.4218194186687469,93.699462890625,-101.2654266357422,235.685791015625
1700075267,0.9457244873046876,0.240081787109375,-0.295379638671875,-0.0336690135300159,0.0392509996891021,0.3372073173522949,94.3505859375,-101.2833251953125,235.7730712890625
1700075267,0.909088134765625,0.2678375244140625,-0.2814483642578125,0.0653379932045936,0.0660274848341941,0.2711289823055267,93.74969482421876,-100.73870849609376,235.97018432617188
1700075267,0.886444091796875,0.2498931884765625,-0.255279541015625,0.12893907725811,0.0928433910012245,0.2515518069267273,93.78729248046876,-100.06022644042967,235.4886932373047
1700075267,0.8868560791015625,0.1992950439453125,-0.2531280517578125,0.1551192849874496,0.1252402067184448,0.2808244824409485,93.76284790039062,-99.4985809326172,235.4243927001953
1700075267,0.8951873779296875,0.1076507568359375,-0.27587890625,0.1323913335800171,0.1433006972074508,0.379785418510437,93.61590576171876,-99.08486938476562,235.0257263183593
1700075267,0.9065704345703124,0.0264434814453125,-0.3091583251953125,0.128323882818222,0.1539999544620514,0.5285639762878418,93.8263702392578,-98.8751220703125,235.0207977294922
1700075267,0.9184722900390624,-0.0237884521484375,-0.3273468017578125,0.1416926831007003,0.1760429292917251,0.689943790435791,94.14299011230467,-98.93385314941406,235.1211700439453
1700075267,0.9327239990234376,-0.0487060546875,-0.308349609375,0.1853568106889724,0.2177530974149704,0.8595890402793884,94.11566162109376,-98.88339233398438,234.3558654785156
1700075267,0.912353515625,-0.0606536865234375,-0.2926025390625,0.226692795753479,0.2879649400711059,1.0170782804489136,94.2104949951172,-98.77005004882812,234.7556304931641
1700075267,0.877899169921875,-0.055419921875,-0.2850189208984375,0.2632521390914917,0.3555312156677246,1.0949296951293943,94.42276000976562,-98.51332092285156,234.8021697998047
1700075267,0.893035888671875,-0.0371856689453125,-0.2809295654296875,0.2464334815740585,0.3935294449329376,1.1662544012069702,94.32110595703124,-98.81301879882812,234.8219757080078
1700075267,0.9195556640625,0.027496337890625,-0.2595062255859375,0.2389710396528244,0.4402130544185638,1.218787670135498,94.61630249023438,-99.00984191894533,235.05178833007807
1700075267,0.9032440185546876,0.1355438232421875,-0.30035400390625,0.2653019726276397,0.4375155568122864,1.218641757965088,94.51641845703124,-99.08038330078124,235.4968414306641
1700075267,0.8741912841796875,0.2704315185546875,-0.3397674560546875,0.3046810626983642,0.4608797430992126,1.1847676038742063,94.58651733398438,-99.07150268554688,234.92193603515625
1700075267,0.89227294921875,0.3594512939453125,-0.30120849609375,0.3899853229522705,0.5135256052017212,1.143413782119751,94.21345520019533,-99.15847778320312,235.0828857421875
1700075267,0.913055419921875,0.3582611083984375,-0.22735595703125,0.5199204087257385,0.5685428380966187,1.148977756500244,94.14732360839844,-99.21298217773438,235.31475830078125
1700075267,0.8846282958984375,0.2928466796875,-0.25299072265625,0.6062880754470825,0.5974844694137573,1.2064063549041748,94.38461303710938,-99.18052673339844,235.3539581298828
1700075267,0.8469696044921875,0.2404937744140625,-0.3281097412109375,0.5823931097984314,0.6379980444908142,1.2787541151046753,94.38493347167967,-99.22767639160156,235.3214874267578
1700075267,0.8548583984375,0.182769775390625,-0.3252716064453125,0.5119668841362,0.6883363127708435,1.3493789434432983,94.43391418457033,-98.79632568359376,235.25836181640625
1700075267,0.89483642578125,0.1222076416015625,-0.33001708984375,0.4619460701942444,0.7313037514686584,1.405133605003357,94.26280212402344,-98.95549011230467,235.1489715576172
1700075267,0.8829193115234375,0.1134796142578125,-0.391937255859375,0.5179163813591003,0.7335165739059448,1.5258400440216064,94.3388671875,-99.27830505371094,235.0839233398437
1700075267,0.8253936767578125,0.1984710693359375,-0.4276885986328125,0.5924656987190247,0.7082977890968323,1.5455058813095093,94.58587646484376,-98.76034545898438,235.1873779296875
1700075267,0.869842529296875,0.316375732421875,-0.3700408935546875,0.6386411786079407,0.7236562371253967,1.5149554014205933,94.62713623046876,-98.73768615722656,235.01075744628903
1700075267,0.8583221435546875,0.3896484375,-0.3708648681640625,0.7161943316459656,0.6790632009506226,1.4612210988998413,94.96478271484376,-98.14585876464844,234.38926696777344
1700075267,0.801025390625,0.434722900390625,-0.397674560546875,0.7676324844360352,0.6545639634132385,1.4542124271392822,94.73483276367188,-97.8733367919922,234.4659576416016
1700075267,0.8299713134765625,0.515289306640625,-0.4104461669921875,0.7825978398323059,0.6319465637207031,1.489086031913757,94.85357666015624,-97.36553955078124,234.76893615722656
1700075267,0.965362548828125,0.5190887451171875,-0.3306427001953125,0.7470795512199402,0.6501151919364929,1.541210412979126,95.08865356445312,-96.78611755371094,235.13380432128903
1700075267,1.12744140625,0.4228057861328125,-0.341339111328125,0.695098876953125,0.6538534760475159,1.6339832544326782,95.1995086669922,-96.21224975585938,234.9311981201172
1700075267,1.2747650146484375,0.3623809814453125,-0.40093994140625,0.6911590099334717,0.6639207005500793,1.828621745109558,95.3161163330078,-95.58786010742188,234.82525634765625
1700075267,1.2834014892578125,0.2605133056640625,-0.420074462890625,0.6994262337684631,0.6982579231262207,2.077122449874878,95.29728698730467,-94.66558837890624,233.957260131836
1700075267,1.175750732421875,0.1510772705078125,-0.392913818359375,0.6275256872177124,0.7078248262405396,2.244506597518921,95.55281066894533,-94.08653259277344,233.8277587890625
1700075267,1.01318359375,0.2276458740234375,-0.4534759521484375,0.642125129699707,0.7230253219604492,2.256216287612915,95.674560546875,-92.66844177246094,233.0975341796875
1700075267,0.9583892822265624,0.37994384765625,-0.44586181640625,0.7404977679252625,0.7479487657546997,2.194467544555664,95.66975402832033,-92.28099060058594,233.1691436767578
1700075267,0.833587646484375,0.495330810546875,-0.4187164306640625,0.8906862139701843,0.7600675225257874,2.096240758895874,95.88699340820312,-91.1884307861328,232.8608245849609
1700075267,0.737762451171875,0.589385986328125,-0.407012939453125,1.0177632570266724,0.776238739490509,1.9907441139221191,95.47932434082033,-90.19987487792967,232.01377868652344
1700075267,0.768646240234375,0.633331298828125,-0.3739776611328125,1.1238316297531128,0.778030514717102,1.9132272005081177,95.81875610351562,-89.368408203125,232.21511840820312
1700075267,0.82562255859375,0.6641998291015625,-0.3984832763671875,1.1677532196044922,0.6960490942001343,1.873025178909301,95.24378967285156,-88.42622375488281,231.9751892089844
1700075267,1.0006561279296875,0.6761474609375,-0.406707763671875,1.207889199256897,0.6396345496177673,1.88069236278534,95.10955810546876,-87.17138671875,231.0314178466797
1700075267,1.1435089111328125,0.6436920166015625,-0.374908447265625,1.2023357152938845,0.5905442237854004,1.9309067726135247,95.36190795898438,-86.18965148925781,230.7674255371093
1700075267,1.273345947265625,0.59527587890625,-0.3744354248046875,1.1206600666046145,0.4869776368141174,2.0047996044158936,95.1864013671875,-85.07473754882812,230.5948638916016
1700075267,1.418975830078125,0.5383148193359375,-0.3807220458984375,0.9957559108734132,0.3633204102516174,2.089405059814453,95.02565002441406,-84.15354919433594,230.1579742431641
1700075267,1.5084991455078125,0.4663848876953125,-0.382598876953125,0.834659993648529,0.2253990322351455,2.195585966110229,94.447509765625,-83.4287109375,229.8787078857422
1700075267,1.5293731689453125,0.440399169921875,-0.4189910888671875,0.6039796471595764,0.0672016739845275,2.241233587265014,94.52732849121094,-82.22201538085938,229.6662750244141
1700075267,1.4962005615234375,0.4441680908203125,-0.4689788818359375,0.3410185873508453,-0.0520655997097492,2.1814754009246826,94.0076141357422,-80.98263549804688,229.68032836914065
1700075267,1.4097747802734375,0.43560791015625,-0.509307861328125,0.1047708839178085,-0.1720726937055587,2.0469188690185547,93.82411193847656,-80.11666870117188,229.08203125
1700075267,1.2262420654296875,0.4196929931640625,-0.531646728515625,-0.1211575865745544,-0.3016458749771118,1.8028756380081177,93.7274169921875,-78.76712036132812,229.2012481689453
1700075267,0.990814208984375,0.362945556640625,-0.4721527099609375,-0.2742749750614166,-0.3474607467651367,1.522123098373413,93.4096221923828,-78.50157165527344,229.1856842041016
1700075267,0.6916961669921875,0.292205810546875,-0.46820068359375,-0.2940801084041595,-0.2299160212278366,1.113420486450195,93.17829895019533,-77.20083618164062,228.3670196533203
1700075267,0.3804779052734375,0.14141845703125,-0.5788421630859375,-0.4693112969398498,-0.1474762707948684,0.886971116065979,93.38117980957033,-76.18824768066406,228.1580352783203
1700075267,0.0261077880859375,0.1107635498046875,-0.648956298828125,-0.7983094453811646,-0.1437630206346511,0.7235129475593567,92.9066925048828,-75.29948425292969,228.172592163086
1700075267,-0.260589599609375,0.1784210205078125,-0.582550048828125,-0.8498051166534424,-0.2728794813156128,0.2850168347358703,92.47117614746094,-74.42225646972656,228.66835021972656
1700075267,-0.3101348876953125,0.068023681640625,-0.3358612060546875,-0.3719235062599182,-0.437025785446167,-0.3392630219459533,92.18586730957033,-73.63786315917969,228.4297637939453
1700075267,-0.236236572265625,-0.0738372802734375,0.0258331298828125,-0.0204437561333179,-0.6699005961418152,-0.9765419960021972,91.99349975585938,-72.99821472167969,227.80615234375
1700075267,-0.07623291015625,-0.1095123291015625,0.254669189453125,-0.0233034584671258,-0.9807412624359132,-1.4900002479553225,91.48855590820312,-71.81083679199219,228.1356811523437
1700075267,0.100006103515625,-0.038787841796875,0.1934661865234375,-0.1627756059169769,-1.0879220962524414,-1.9424383640289309,91.30433654785156,-70.94645690917969,228.37716674804688
1700075267,0.186248779296875,-0.0994110107421875,-0.159515380859375,-0.1799101084470749,-1.071757197380066,-2.3829126358032227,91.38694763183594,-69.74952697753906,227.85040283203125
1700075267,0.27532958984375,-0.27740478515625,-0.264556884765625,-0.0879200026392936,-1.0479480028152466,-2.676220178604126,90.62803649902344,-68.54373168945312,228.06988525390625
1700075267,0.3795318603515625,-0.3545379638671875,-0.13323974609375,-0.1788067668676376,-1.0520296096801758,-2.794260740280152,90.20619201660156,-67.46994018554688,227.83653259277344
1700075267,0.469512939453125,-0.2527923583984375,-0.08758544921875,-0.4707019925117492,-1.035115361213684,-2.8507072925567627,90.22000122070312,-66.611572265625,228.2897186279297
1700075268,0.5345458984375,-0.08001708984375,-0.12176513671875,-0.7856495380401611,-1.0416648387908936,-3.0014469623565674,89.34938049316406,-64.93194580078125,228.41482543945312
1700075268,0.6228790283203125,0.0178985595703125,-0.1653594970703125,-0.9619830250740052,-1.0624598264694214,-3.221935749053955,89.27471923828125,-63.94410705566406,227.3812866210937
1700075268,0.7055816650390625,0.0673980712890625,-0.2052154541015625,-1.010349988937378,-1.0738070011138916,-3.4599814414978027,88.92010498046875,-63.14036560058594,228.0744171142578
1700075268,0.7759246826171875,0.086029052734375,-0.18096923828125,-1.0716201066970823,-1.112552285194397,-3.675373792648315,88.20768737792969,-62.09368896484375,228.1857452392578
1700075268,0.8472747802734375,0.099853515625,-0.1156768798828125,-1.090291976928711,-1.1610215902328491,-3.829725503921509,88.25381469726562,-61.148223876953125,228.67481994628903
1700075268,0.8980712890625,0.12982177734375,-0.0828094482421875,-1.0793344974517822,-1.1792794466018677,-3.87719464302063,87.62100219726562,-60.1966552734375,228.3291473388672
1700075268,0.9304656982421876,0.188140869140625,-0.1346893310546875,-1.0510711669921875,-1.1733139753341677,-3.855894088745117,87.18641662597656,-59.645111083984375,228.8030242919922
1700075268,0.97650146484375,0.28485107421875,-0.224822998046875,-0.919558882713318,-1.24753999710083,-3.849666595458984,86.56185913085938,-58.92559814453125,228.9184417724609
1700075268,1.0554656982421875,0.4041595458984375,-0.265625,-0.5323102474212646,-1.3962754011154177,-3.877352952957153,86.1048583984375,-58.78788757324219,228.440185546875
1700075268,1.1212005615234375,0.548858642578125,-0.2697906494140625,0.0674576014280319,-1.4735227823257446,-3.948192596435547,85.93557739257812,-58.25469970703125,228.790771484375
1700075268,1.1692657470703125,0.70135498046875,-0.2960968017578125,0.5115658044815063,-1.528556227684021,-4.091668128967285,85.91517639160156,-58.05781555175781,229.0514678955078
1700075268,1.22821044921875,0.8153839111328125,-0.2967987060546875,0.6261246204376221,-1.5246440172195437,-4.2333149909973145,85.76335144042969,-58.04447937011719,228.96144104003903
1700075268,1.27972412109375,0.888916015625,-0.2994384765625,0.5892171859741211,-1.475669264793396,-4.270500183105469,86.01913452148438,-57.8494873046875,229.5823211669922
1700075268,1.2522430419921875,0.93170166015625,-0.3025665283203125,0.5239529609680176,-1.419181227684021,-4.141892433166504,85.84336853027344,-57.537628173828125,229.755599975586
1700075268,1.20361328125,0.9638824462890624,-0.2756500244140625,0.3701364994049072,-1.3738960027694702,-3.9183292388916016,86.56210327148438,-57.53953552246094,230.24539184570312
1700075268,1.20220947265625,0.950653076171875,-0.2832794189453125,0.1516081690788269,-1.2678768634796145,-3.736416339874268,87.08053588867188,-57.87043762207031,230.778564453125
1700075268,1.2539215087890625,0.8459930419921875,-0.329620361328125,-0.0729770064353942,-1.0906848907470703,-3.5290873050689697,87.40052795410156,-58.01411437988281,231.5533447265625
1700075268,1.2906036376953125,0.7662353515625,-0.449432373046875,-0.2571191489696502,-1.0217584371566772,-3.258906364440918,87.76913452148438,-58.615325927734375,231.28271484375
1700075268,1.3154296875,0.752838134765625,-0.534576416015625,-0.4468166530132293,-1.0837204456329346,-2.9738552570343018,88.33407592773438,-59.65141296386719,231.8761138916016
1700075268,1.273468017578125,0.7390289306640625,-0.589080810546875,-0.5739873647689819,-1.1382603645324707,-2.6305055618286133,88.65545654296875,-60.73457336425781,231.6516265869141
1700075268,1.1317138671875,0.7179412841796875,-0.5789642333984375,-0.5859878659248352,-1.109246015548706,-2.2700839042663574,89.39096069335938,-62.06121826171875,232.1073303222656
1700075268,1.0012664794921875,0.657684326171875,-0.4471893310546875,-0.4533195495605469,-0.9987186789512634,-1.975915789604187,90.03482055664062,-63.36848449707031,232.15724182128903
1700075268,0.9339752197265624,0.596038818359375,-0.298370361328125,-0.1811591386795044,-0.8394680619239807,-1.770879864692688,90.64030456542967,-64.89280700683594,233.072509765625
1700075268,0.906982421875,0.5955657958984375,-0.2174072265625,0.175224021077156,-0.6983420848846436,-1.6094204187393188,91.03800964355467,-66.23635864257812,232.87049865722656
1700075268,0.8999176025390625,0.62109375,-0.1790008544921875,0.5329099893569946,-0.6010914444923401,-1.4628522396087646,91.49815368652344,-67.64830017089844,233.4221954345703
1700075268,0.8963165283203125,0.6269683837890625,-0.15618896484375,0.8835697174072266,-0.4929979741573334,-1.3095932006835938,91.79283142089844,-69.09217834472656,234.09727478027344
1700075268,0.8623504638671875,0.58782958984375,-0.1521453857421875,1.1159545183181765,-0.3731602728366852,-1.1378411054611206,92.51081848144533,-70.6434326171875,234.3791961669922
1700075268,0.818817138671875,0.50799560546875,-0.159759521484375,1.1668035984039309,-0.2683470249176025,-0.9413059949874878,92.94541931152344,-71.53524780273438,235.0314483642578
1700075268,0.8048553466796875,0.40582275390625,-0.1718292236328125,1.06724214553833,-0.177577719092369,-0.721476137638092,93.03567504882812,-72.6163330078125,235.49615478515625
1700075268,0.8004608154296875,0.3251190185546875,-0.2111663818359375,0.8662621378898621,-0.0963246747851371,-0.4841477572917938,93.29254150390624,-73.73127746582031,235.50567626953125
1700075268,0.795623779296875,0.2656707763671875,-0.2502593994140625,0.6262705326080322,-0.0389471314847469,-0.2349930703639984,93.85519409179688,-74.76907348632812,236.37033081054688
1700075268,0.7947540283203125,0.2217864990234375,-0.2589874267578125,0.3834198117256164,-0.0125908926129341,-0.0102422507479786,93.91957092285156,-75.66438293457031,237.0718994140625
1700075268,0.7995758056640625,0.1780853271484375,-0.2603912353515625,0.1747944504022598,-0.0111216269433498,0.1773779839277267,94.02377319335938,-76.51536560058594,237.156982421875
1700075268,0.8164520263671875,0.131134033203125,-0.2621002197265625,-0.1275960355997085,0.0445490926504135,0.3446098566055298,94.03594970703124,-78.08262634277344,237.19757080078125
1700075268,0.811981201171875,0.090118408203125,-0.3129119873046875,-0.4890311956405639,0.1645127832889557,0.5046029686927795,93.87445068359376,-79.03472900390625,237.43414306640625
1700075268,0.7803497314453125,0.0458831787109375,-0.37353515625,-0.8277443051338196,0.3247277438640594,0.6661971807479858,93.81275939941406,-80.29266357421875,237.4234771728516
1700075268,0.708099365234375,0.0143585205078125,-0.441162109375,-1.0725332498550415,0.5383481383323669,0.8578382730484009,93.6015625,-81.64170837402344,238.42681884765625
1700075268,0.64971923828125,0.007415771484375,-0.5068359375,-1.330349087715149,0.9002408385276794,1.1400774717330933,93.4267578125,-83.05068969726562,238.20846557617188
1700075268,0.5257110595703125,0.1642608642578125,-0.7891998291015625,-1.2390950918197632,0.938896656036377,1.4806294441223145,93.12440490722656,-83.97708129882812,237.86607360839844
1700075268,0.606414794921875,0.3655242919921875,-0.7786712646484375,-0.6201775074005127,1.1449185609817505,1.613833785057068,92.75115966796876,-84.49755859375,238.2460327148437
1700075268,0.8947296142578125,0.431182861328125,-0.8135528564453125,1.055692195892334,3.148834228515625,1.7727131843566897,93.10188293457033,-85.47581481933594,238.6142578125
1700075268,0.452117919921875,0.73419189453125,-2.2591705322265625,1.812569260597229,0.9873323440551758,2.629645347595215,92.75202941894533,-85.73912048339844,238.5412750244141
1700075268,1.063201904296875,1.439544677734375,-1.107696533203125,1.0284414291381836,-0.9741896390914916,1.1519454717636108,92.19677734375,-86.12455749511719,238.717025756836
1700075268,3.725555419921875,0.14593505859375,0.747406005859375,1.3675841093063354,0.8881999254226685,-0.5052706599235535,92.12669372558594,-86.80427551269531,238.1996917724609
1700075268,2.940536499023437,-1.16510009765625,0.141845703125,1.842493295669556,1.7936283349990845,-0.3543367683887481,91.57235717773438,-87.12940979003906,238.40489196777344
1700075268,1.2577667236328125,-0.8908233642578125,1.0071563720703125,1.1493465900421145,1.6408326625823977,0.5913493037223816,91.7600555419922,-87.21212768554688,238.3830108642578
1700075268,0.6884002685546875,-0.464447021484375,0.464813232421875,-0.1728218495845794,1.0727540254592896,1.455048680305481,91.2990264892578,-87.28463745117188,238.04676818847656
1700075268,0.52703857421875,-0.3185882568359375,-0.2185821533203125,-1.3213508129119873,0.9060590863227844,1.5699115991592407,91.19122314453124,-87.88743591308594,238.65098571777344
1700075268,0.760894775390625,-0.529083251953125,-0.426971435546875,-1.4172171354293823,0.9992225766181946,1.1253330707550049,91.08592224121094,-88.25987243652344,238.3031005859375
1700075268,1.2553558349609375,-0.81658935546875,-0.2036285400390625,-1.1893895864486694,0.9738197326660156,1.3022780418395996,91.06027221679688,-88.21083068847656,237.7056121826172
1700075268,1.400665283203125,-0.4334564208984375,-0.3042755126953125,-0.8852994441986084,0.7262871861457825,1.6529362201690674,90.73908996582033,-88.431396484375,238.3823699951172
1700075268,1.4678192138671875,0.0090789794921875,-0.3950347900390625,-0.5506423711776733,0.4172236025333404,1.5643882751464844,90.6938018798828,-89.14653015136719,238.57550048828125
1700075268,1.452392578125,0.22320556640625,-0.3231964111328125,-0.6528939008712769,0.2551111280918121,1.110310435295105,90.68649291992188,-88.84248352050781,237.99432373046875
1700075268,1.25640869140625,0.36083984375,-0.302886962890625,-0.5075465440750122,0.2097076922655105,0.6803063750267029,90.45248413085938,-88.98020935058594,238.2230834960937
1700075268,1.067352294921875,0.3859405517578125,-0.131195068359375,-0.3332125842571258,0.2479157894849777,0.5964831113815308,90.41265869140624,-89.12803649902344,237.88986206054688
1700075268,1.2906494140625,0.263427734375,0.024871826171875,-0.546856164932251,0.321580171585083,0.6506541967391968,89.95857238769531,-88.61445617675781,238.33450317382807
1700075268,1.8587493896484373,0.204864501953125,0.0649871826171875,-0.6186656355857849,0.5048053860664368,0.7441474199295044,90.0939483642578,-88.99238586425781,237.8881683349609
1700075268,2.0631866455078125,0.2153778076171875,-0.013336181640625,-0.4104991257190704,0.4232884049415588,0.8833358883857727,89.75445556640625,-88.33203125,237.79461669921875
1700075268,1.709136962890625,0.38677978515625,-0.1652069091796875,-0.2295634150505066,0.2131032198667526,0.7318747639656067,89.71878051757812,-88.09974670410156,237.36163330078125
1700075268,1.2451324462890625,0.3851318359375,-0.316864013671875,-0.0900675728917121,0.1623918414115905,0.4908680021762848,89.26174926757812,-87.930419921875,236.8050079345703
1700075268,0.8682403564453125,0.26348876953125,-0.34649658203125,0.1509732753038406,0.2301581054925918,0.3932580649852752,89.39152526855469,-88.16346740722656,236.3969573974609
1700075268,0.6176910400390625,0.1383209228515625,-0.3420867919921875,0.3984688222408294,0.2318236380815506,0.3786218762397766,89.629150390625,-87.89302062988281,236.5394592285156
1700075268,0.6400146484375,0.0162353515625,-0.393463134765625,0.5308049917221069,0.1523525267839431,0.4639122784137726,88.97564697265625,-87.56150817871094,236.84307861328125
1700075268,0.8206024169921875,0.0008392333984375,-0.4070281982421875,0.4611628353595733,0.0906926169991493,0.5078784227371216,88.97576904296875,-87.49374389648438,236.3821258544922
1700075268,0.961700439453125,0.0263214111328125,-0.3787078857421875,0.3165201544761657,0.0779453963041305,0.4945540726184845,88.84954833984375,-87.35847473144531,236.6836700439453
1700075268,1.0153045654296875,0.0604095458984375,-0.372039794921875,0.2446116060018539,0.0691303387284278,0.4854865372180938,89.18243408203125,-87.74037170410156,236.28965759277344
1700075268,0.9906768798828124,0.10980224609375,-0.3678436279296875,0.1955588459968567,0.0468878783285617,0.4583278894424438,88.53546142578125,-87.4100341796875,235.8295745849609
1700075268,0.96148681640625,0.1635894775390625,-0.3534393310546875,0.1576769798994064,0.0541734881699085,0.4237978756427765,87.85829162597656,-86.26531982421875,234.88917541503903
1700075268,0.94097900390625,0.2080230712890625,-0.3183746337890625,0.1391051560640335,0.0765962377190589,0.4030561149120331,88.09677124023438,-85.89588928222656,234.3305053710937
1700075268,0.9039459228515624,0.2452850341796875,-0.2664031982421875,0.0583868771791458,0.0774386003613472,0.3835252821445465,88.39540100097656,-85.73905944824219,235.5383453369141
1700075268,0.883148193359375,0.2731170654296875,-0.253631591796875,-0.0069172945804893,0.0721719339489936,0.3552553057670593,88.08522033691406,-86.02435302734375,235.2886962890625
1700075268,0.8722076416015625,0.25091552734375,-0.2665557861328125,0.0244150608777999,0.0942356884479522,0.3438196778297424,87.39651489257812,-86.02345275878906,234.7935943603516
1700075268,0.854644775390625,0.18450927734375,-0.2857513427734375,0.1211288198828697,0.1123470440506935,0.3845745623111725,87.21238708496094,-85.47222900390625,234.4449157714844
1700075268,0.846954345703125,0.127166748046875,-0.312896728515625,0.2154396176338195,0.1156927794218063,0.4747872948646545,86.7774658203125,-85.38945007324219,233.7692108154297
1700075268,0.854736328125,0.0921630859375,-0.317535400390625,0.2689020335674286,0.1424695253372192,0.5964460968971252,86.80648803710938,-85.2720947265625,233.98287963867188
1700075268,0.8749237060546875,0.0621490478515625,-0.2880706787109375,0.3061415553092956,0.1820353120565414,0.7502375245094299,86.687255859375,-85.61408996582031,233.6459808349609
1700075268,0.8785247802734375,0.0229644775390625,-0.2431182861328125,0.2365939021110534,0.2699002027511596,0.9055197834968568,86.46092224121094,-84.88604736328125,233.8754730224609
1700075268,0.88397216796875,-0.027587890625,-0.2486572265625,0.1519636958837509,0.3399194777011871,1.0630007982254028,86.44242858886719,-84.66433715820312,233.3966217041016
1700075268,0.9048309326171876,-0.0692901611328125,-0.2716217041015625,0.1315817236900329,0.41856849193573,1.2712059020996094,86.775390625,-84.72605895996094,233.272689819336
1700075268,0.8935546875,-0.0629730224609375,-0.2963409423828125,0.2015986293554306,0.4963122904300689,1.465188980102539,86.74070739746094,-84.70841979980469,233.41270446777344
1700075268,0.90496826171875,-0.02630615234375,-0.2848968505859375,0.291956752538681,0.5829721093177795,1.5592832565307615,86.59213256835938,-84.7679443359375,233.3621368408203
1700075268,0.949432373046875,0.0735015869140625,-0.24920654296875,0.420912355184555,0.6802741289138794,1.6231716871261597,86.23655700683594,-84.88088989257812,233.2838287353516
1700075268,0.95550537109375,0.1858367919921875,-0.20330810546875,0.5442209839820862,0.7853129506111145,1.6884132623672483,86.35986328125,-84.419189453125,233.0859832763672
1700075268,0.9183502197265624,0.2632293701171875,-0.19036865234375,0.5966224074363708,0.8371865153312683,1.7243456840515137,86.5445556640625,-84.2203369140625,232.9075622558593
1700075268,0.8900909423828125,0.300262451171875,-0.2071380615234375,0.593555212020874,0.8814871311187744,1.785435438156128,86.45362854003906,-84.23919677734375,233.2996826171875
1700075268,0.8950347900390625,0.32281494140625,-0.2414703369140625,0.6078827381134033,0.9263808727264404,1.829304575920105,86.84466552734375,-84.06021118164062,233.6936798095703
1700075268,0.9577789306640624,0.3204193115234375,-0.2907257080078125,0.6857967376708984,0.9637857675552368,1.8905445337295528,86.5875244140625,-83.84803771972656,233.17079162597656
1700075268,1.064788818359375,0.3436279296875,-0.332061767578125,0.7201573848724365,0.927990972995758,2.0031275749206543,86.14187622070312,-83.40180969238281,232.48883056640625
1700075268,1.1671600341796875,0.3560638427734375,-0.2987213134765625,0.6609156131744385,0.9097872376441956,2.104816198348999,86.60377502441406,-83.20411682128906,232.30178833007807
1700075268,1.118896484375,0.2905731201171875,-0.35357666015625,0.527726411819458,0.910358190536499,2.1586127281188965,86.64741516113281,-82.91111755371094,232.7716827392578
1700075268,0.92938232421875,0.2647705078125,-0.4847259521484375,0.5506095886230469,0.9138125777244568,2.239807367324829,86.63282775878906,-82.91996765136719,233.0351409912109
1700075268,0.70733642578125,0.284881591796875,-0.52294921875,0.6422702670097351,0.8952205181121826,2.174665689468384,86.26133728027344,-82.97416687011719,232.3136138916016
1700075268,0.6179656982421875,0.3684539794921875,-0.473388671875,0.7213912010192871,0.8935976028442383,2.0293288230896,86.43212890625,-82.52290344238281,231.8578186035156
1700075268,0.587371826171875,0.5023040771484375,-0.4290771484375,0.7920922636985779,0.9094330072402954,1.910552859306336,86.35594177246094,-82.31355285644531,233.05679321289065
1700075268,0.6363525390625,0.652557373046875,-0.41510009765625,0.8463839888572693,0.8700664639472961,1.8519408702850344,86.37004089355469,-82.16233825683594,232.86231994628903
1700075268,0.759796142578125,0.6735382080078125,-0.384979248046875,0.903481900691986,0.8269285559654236,1.867711305618286,86.66813659667969,-82.10649108886719,233.04103088378903
1700075268,0.8061370849609375,0.6160888671875,-0.4074859619140625,0.8804029822349548,0.8181606531143188,1.9319915771484373,86.428955078125,-81.96267700195312,232.89385986328125
1700075268,0.87359619140625,0.553253173828125,-0.425201416015625,0.8019145727157593,0.829743504524231,1.9832384586334229,87.01527404785156,-81.7918701171875,232.34283447265625
1700075268,1.020172119140625,0.505401611328125,-0.4289093017578125,0.7292914986610413,0.838469386100769,2.1173319816589355,86.66166687011719,-82.04672241210938,232.4709625244141
1700075269,1.1512298583984375,0.46484375,-0.46392822265625,0.6989375948905945,0.8452838659286499,2.263256788253784,86.59344482421875,-81.62362670898438,232.15240478515625
1700075269,1.2347564697265625,0.4180145263671875,-0.529205322265625,0.7017184495925903,0.7492412328720093,2.3598456382751465,86.09140014648438,-81.61203002929688,232.61070251464844
1700075269,1.3152008056640625,0.5090484619140625,-0.5837249755859375,0.8027340173721313,0.7306888103485107,2.4171321392059326,86.17161560058594,-81.3116455078125,232.3004150390625
1700075269,1.380218505859375,0.6464385986328125,-0.504608154296875,0.8629691004753113,0.7479466795921326,2.451133728027344,86.4959716796875,-80.83322143554688,232.1613922119141
1700075269,1.5814971923828125,0.6476593017578125,-0.39361572265625,0.9306243062019348,0.7062628865242004,2.551778793334961,86.794921875,-80.56837463378906,232.25294494628903
1700075269,1.7146759033203125,0.56341552734375,-0.423248291015625,0.9565858840942384,0.568457305431366,2.618739604949951,86.22300720214844,-80.18215942382812,232.12918090820312
1700075269,1.80645751953125,0.466278076171875,-0.4676666259765625,0.8604982495307922,0.4142384529113769,2.529529333114624,86.734130859375,-79.67881774902344,232.1531677246093
1700075269,1.8336944580078125,0.30816650390625,-0.42474365234375,0.7418805360794067,0.2431292980909347,2.402156352996826,86.44366455078125,-79.39170837402344,231.4925994873047
1700075269,1.684539794921875,0.23565673828125,-0.3731536865234375,0.5933797359466553,0.0387745611369609,2.21387267112732,86.32371520996094,-79.32110595703125,231.5614776611328
1700075269,1.3812713623046875,0.2755889892578125,-0.4167938232421875,0.4285606741905212,-0.1269499659538269,2.0002880096435547,86.21189880371094,-78.36326599121094,231.29969787597656
1700075269,0.976837158203125,0.3755645751953125,-0.5055389404296875,0.2457413226366043,-0.1469231396913528,1.876884818077088,86.21963500976562,-78.10664367675781,230.8388671875
1700075269,0.5299072265625,0.54150390625,-0.6788330078125,-0.1771468222141266,-0.0042080609127879,1.5170481204986572,85.96586608886719,-77.85726928710938,230.68234252929688
1700075269,0.2452545166015625,0.5795135498046875,-0.7930145263671875,-0.4622887969017029,0.1330270320177078,0.9661207795143129,85.441650390625,-77.3629150390625,230.48486328125
1700075269,0.173126220703125,0.4000396728515625,-0.5289459228515625,-0.5355230569839478,0.1863195449113845,0.8834613561630249,85.30355834960938,-76.48493957519531,230.5699920654297
1700075269,-0.1526641845703125,0.3706207275390625,-0.4100189208984375,-0.560007631778717,0.2336300611495971,0.6883893013000488,85.40007019042969,-75.81391906738281,230.7852783203125
1700075269,-0.433441162109375,0.2248687744140625,-0.4813232421875,-0.3878047168254852,0.0497345328330993,0.0903389528393745,85.24444580078125,-75.39851379394531,229.63633728027344
1700075269,-0.50567626953125,-0.0081634521484375,-0.3647918701171875,-0.0060152821242809,-0.2698448002338409,-0.6909320950508118,84.83174133300781,-74.603759765625,229.69813537597656
1700075269,-0.42987060546875,-0.1739349365234375,0.045806884765625,0.2309440076351165,-0.468662291765213,-1.3085063695907593,84.31539916992188,-74.311767578125,229.43667602539065
1700075269,-0.0804901123046875,-0.1902618408203125,0.2706146240234375,0.0623608455061912,-0.6015239357948303,-1.7987154722213743,84.49006652832031,-73.55650329589844,229.5106811523437
1700075269,0.2188262939453125,-0.22235107421875,0.1881866455078125,-0.317324697971344,-0.7640526294708252,-2.204235076904297,83.95906066894531,-72.44575500488281,228.93264770507807
1700075269,0.319549560546875,-0.3287200927734375,0.007476806640625,-0.4997254014015198,-0.8440122008323669,-2.470970392227173,83.85919189453125,-72.37420654296875,228.599349975586
1700075269,0.3665008544921875,-0.4601593017578125,0.0753173828125,-0.7647426724433899,-0.8390573859214783,-2.517785787582397,83.41641235351562,-71.72651672363281,228.71885681152344
1700075269,0.3542022705078125,-0.4101104736328125,0.023223876953125,-0.9815122485160828,-0.9737361073493958,-2.639469146728516,82.9891357421875,-70.96798706054688,228.4135284423828
1700075269,0.408905029296875,-0.18408203125,-0.1284027099609375,-0.9740660786628724,-1.1131770610809326,-3.00793719291687,82.99400329589844,-70.04414367675781,228.5673370361328
1700075269,0.5057373046875,-0.037445068359375,-0.2057647705078125,-0.8825984597206116,-1.1384832859039309,-3.446753025054932,82.87696838378906,-69.77044677734375,228.4212646484375
1700075269,0.5576934814453125,0.101776123046875,-0.1922760009765625,-0.6845780611038208,-1.1009182929992676,-3.8057920932769775,82.30735778808594,-68.4722900390625,227.65740966796875
1700075269,0.6403656005859375,0.2118988037109375,-0.0986480712890625,-0.3841370046138763,-1.0716962814331057,-4.03627872467041,81.989013671875,-67.84709167480469,227.5414428710937
1700075269,0.753570556640625,0.286590576171875,-0.0364990234375,-0.1199823319911956,-1.0614233016967771,-4.177713394165039,81.54444885253906,-66.85693359375,227.0805511474609
1700075269,0.8626708984375,0.3373870849609375,-0.058837890625,0.0059058261103928,-1.075177550315857,-4.303569793701172,81.23414611816406,-66.11151123046875,227.4318084716797
1700075269,0.95855712890625,0.3563079833984375,-0.1360321044921875,0.0056560216471552,-1.112913727760315,-4.330174922943115,80.56564331054688,-65.52183532714844,226.981185913086
1700075269,1.004638671875,0.396148681640625,-0.17523193359375,0.0422659628093242,-1.1258693933486938,-4.278650760650635,80.10853576660156,-64.32554626464844,226.8455352783203
1700075269,1.0029754638671875,0.4337158203125,-0.1905670166015625,0.2235971391201019,-1.1228525638580322,-4.256920337677002,79.72398376464844,-63.87968444824219,227.0937957763672
1700075269,0.99456787109375,0.454010009765625,-0.203399658203125,0.3270508348941803,-1.095956802368164,-4.330214977264404,79.27345275878906,-62.866943359375,226.6360778808593
1700075269,1.034210205078125,0.4689788818359375,-0.268524169921875,0.2674045264720917,-1.1354773044586182,-4.338130950927734,78.9459228515625,-61.80726623535156,226.7041778564453
1700075269,1.129547119140625,0.557769775390625,-0.295196533203125,0.1199152171611785,-1.2331455945968628,-4.254641056060791,78.16561889648438,-61.28813171386719,226.3783416748047
1700075269,1.2477264404296875,0.6735687255859375,-0.2841796875,-0.0037308223545551,-1.277529239654541,-4.049932479858398,77.73733520507812,-60.49961853027344,226.4979553222656
1700075269,1.3196258544921875,0.8127593994140625,-0.3425140380859375,0.1383765190839767,-1.2497529983520508,-3.763601541519165,77.25694274902344,-59.57035827636719,226.4015045166016
1700075269,1.29388427734375,0.98260498046875,-0.44024658203125,0.4072865545749664,-1.226171612739563,-3.5920653343200684,76.87208557128906,-58.733917236328125,226.07156372070312
1700075269,1.2490081787109375,1.1215362548828125,-0.5226593017578125,0.4055059552192688,-1.229042649269104,-3.6144559383392334,76.4129638671875,-58.15791320800781,226.342514038086
1700075269,1.2441864013671875,1.191436767578125,-0.525146484375,0.4039416015148163,-1.1138737201690674,-3.6631250381469727,75.71351623535156,-57.62417602539063,226.36183166503903
1700075269,1.20947265625,1.129058837890625,-0.4112396240234375,0.5141472220420837,-0.9206957817077636,-3.597346782684326,75.46597290039062,-56.98239135742188,226.2469787597656
1700075269,1.1202850341796875,0.960418701171875,-0.33465576171875,0.5917162895202637,-0.7659373879432678,-3.4100141525268555,75.25724792480469,-56.90348815917969,226.3028564453125
1700075269,1.0494842529296875,0.8583831787109375,-0.3776092529296875,0.6988754868507385,-0.6909619569778442,-3.074454069137573,74.90187072753906,-56.43418884277344,226.4623260498047
1700075269,1.0019073486328125,0.8363494873046875,-0.4514617919921875,0.9567863941192628,-0.7861574292182922,-2.7905991077423096,74.87776184082031,-56.378509521484375,226.1834411621093
1700075269,0.9924774169921876,0.758331298828125,-0.4043426513671875,1.167448878288269,-0.8380739092826843,-2.6145036220550537,74.41670227050781,-56.40538024902344,226.1419372558593
1700075269,1.00885009765625,0.6490478515625,-0.3753662109375,1.2759859561920166,-0.8051795959472656,-2.463425397872925,74.19171142578125,-56.46798706054688,225.5264434814453
1700075269,0.992889404296875,0.57073974609375,-0.310150146484375,1.2994779348373413,-0.6435368657112122,-2.2939717769622803,74.0645751953125,-56.85122680664063,225.2782592773437
1700075269,0.932098388671875,0.5150146484375,-0.3084259033203125,1.3050503730773926,-0.5041550397872925,-2.124464273452759,74.13601684570312,-57.20147705078125,225.0712432861328
1700075269,0.870269775390625,0.4619598388671875,-0.30029296875,1.3432621955871582,-0.4319213032722473,-1.9512312412261963,74.55133056640625,-57.50267028808594,225.48475646972656
1700075269,0.8548736572265625,0.42327880859375,-0.2774658203125,1.4638826847076416,-0.3850795030593872,-1.7552412748336792,74.75180053710938,-57.53861999511719,225.3484344482422
1700075269,0.8758544921875,0.4069976806640625,-0.231536865234375,1.558597445487976,-0.3234821856021881,-1.5788649320602417,75.33419799804688,-57.818756103515625,225.7509765625
1700075269,0.8993682861328125,0.385345458984375,-0.23046875,1.5466587543487549,-0.2520796358585357,-1.4048731327056885,75.83329772949219,-58.151123046875,225.64480590820312
1700075269,0.912353515625,0.364013671875,-0.2769775390625,1.4110119342803955,-0.1911457180976867,-1.223855972290039,76.37899780273438,-58.44767761230469,225.73252868652344
1700075269,0.9199676513671876,0.31524658203125,-0.34527587890625,1.2040023803710938,-0.1292924731969833,-1.0463913679122925,77.12283325195312,-58.98898315429688,226.2537536621093
1700075269,0.9034881591796876,0.24322509765625,-0.4153289794921875,0.9728884100914,-0.0830916911363601,-0.8593394756317139,77.56048583984375,-60.03929138183594,225.6008453369141
1700075269,0.8349609375,0.178314208984375,-0.46832275390625,0.8151344656944275,-0.0594782419502735,-0.6459569334983826,77.88847351074219,-60.72071838378906,225.8326416015625
1700075269,0.721435546875,0.1312408447265625,-0.4848175048828125,0.8026264309883118,0.0034445326309651,-0.3668951690196991,78.74369812011719,-61.68339538574219,225.52896118164065
1700075269,0.6042633056640625,0.1132659912109375,-0.468109130859375,0.9693922400474548,0.1584138721227646,-0.0799773931503295,79.25381469726562,-62.62615966796875,225.6318359375
1700075269,0.512176513671875,0.1062774658203125,-0.4673614501953125,1.2234596014022827,0.2833174467086792,0.1780208647251129,79.83064270019531,-63.99943542480469,225.6418609619141
1700075269,0.5308074951171875,0.151031494140625,-0.424468994140625,1.2552706003189087,0.7562581300735474,0.4775838851928711,80.08221435546875,-65.11441040039062,225.4080047607422
1700075269,0.6824798583984375,0.355194091796875,-0.6991729736328125,1.3759969472885132,1.0118759870529177,0.7924038767814636,80.69595336914062,-66.42471313476562,225.6166229248047
1700075269,0.4835662841796875,0.578765869140625,-1.022308349609375,1.782166600227356,1.1151190996170044,1.0436052083969116,81.00828552246094,-67.72232055664062,225.7994384765625
1700075269,0.6635894775390625,0.6288299560546875,-0.9969940185546876,2.472209215164185,2.6561713218688965,1.268031120300293,81.1824951171875,-69.04740905761719,225.72218322753903
1700075269,0.5368194580078125,0.6600189208984375,-1.97503662109375,2.6565699577331543,1.930244207382202,2.50920844078064,81.49241638183594,-69.98257446289062,225.9246826171875
1700075269,0.45501708984375,1.31353759765625,-1.89544677734375,0.8356528282165527,-1.159310221672058,2.1761746406555176,82.05654907226562,-70.73065185546875,225.90151977539065
1700075269,3.136871337890625,0.340087890625,0.945953369140625,-0.1176747009158134,0.1831399947404861,0.3722177743911743,82.40664672851562,-71.75540161132812,226.25450134277344
1700075269,3.3748016357421875,-1.36810302734375,0.2542877197265625,0.3772644698619842,1.5700138807296753,-0.1364646404981613,82.97061157226562,-72.43016052246094,226.63818359375
1700075269,1.7979888916015625,-1.447723388671875,0.93560791015625,-0.2893601655960083,1.5185227394104004,0.8535258173942566,83.01651000976562,-73.09007263183594,226.9820251464844
1700075269,0.94635009765625,-0.8249359130859375,0.6956787109375,-1.2054444551467896,1.0841063261032104,2.163586378097534,83.39190673828125,-73.9166259765625,227.33448791503903
1700075269,0.5680389404296875,-0.4421844482421875,-0.140594482421875,-1.2271162271499634,0.9441779255867004,2.4339640140533447,83.77687072753906,-74.91316223144531,227.20790100097656
1700075269,0.7388916015625,-0.736236572265625,-0.258087158203125,-1.0752640962600708,1.1068928241729736,2.0329010486602783,83.79209899902344,-75.27992248535156,227.6988983154297
1700075269,1.0189208984375,-0.768157958984375,-0.22589111328125,-0.8812165856361389,1.2397172451019287,2.0924549102783203,84.07279968261719,-76.18910217285156,227.9877777099609
1700075269,1.136688232421875,-0.1426544189453125,-0.401702880859375,-0.2940755784511566,0.94531911611557,2.0424399375915527,84.0225830078125,-77.069580078125,227.91751098632807
1700075269,1.3046417236328125,0.287353515625,-0.4551849365234375,-0.0387242250144481,0.4082317054271698,1.421812653541565,83.99859619140625,-77.9346923828125,227.55723571777344
1700075269,1.3193511962890625,0.50360107421875,-0.610626220703125,-0.3300588726997375,0.2458244115114212,0.7183117866516113,83.98068237304688,-78.72236633300781,227.97764587402344
1700075269,1.170562744140625,0.6817169189453125,-0.651275634765625,-0.1289625167846679,0.1831714212894439,0.4122224450111389,84.25447082519531,-79.61508178710938,228.3500366210937
1700075269,1.0192108154296875,0.6639251708984375,-0.17340087890625,-0.3660304546356201,0.2269532531499862,0.6274900436401367,84.04122924804688,-80.13633728027344,228.42095947265625
1700075269,1.494415283203125,0.4296417236328125,0.14581298828125,-0.9111281037330629,0.4913683831691742,0.6508885622024536,84.23347473144531,-81.03338623046875,228.8896484375
1700075269,2.399871826171875,0.0057830810546875,0.145263671875,-1.124262809753418,0.7655773162841797,0.9449635744094848,84.23861694335938,-80.87449645996094,228.55210876464844
1700075269,2.4542236328125,-0.08447265625,-0.22552490234375,-0.8483680486679077,0.3698273301124573,1.6295877695083618,84.42404174804688,-81.21412658691406,228.823974609375
1700075269,1.559783935546875,0.1649017333984375,-0.4407958984375,-0.4785809516906738,0.04170723259449,1.734634518623352,84.4122314453125,-81.4593505859375,229.4917449951172
1700075269,0.9089508056640624,0.0933837890625,-0.4704437255859375,-0.3488618433475494,0.1418966799974441,1.286160588264465,84.33253479003906,-81.11521911621094,229.2519989013672
1700075269,0.4985809326171875,0.1490936279296875,-0.423919677734375,-0.1215818226337432,0.2880064845085144,0.7758358120918274,84.09341430664062,-80.92340087890625,229.06825256347656
1700075269,0.2149658203125,0.3484649658203125,-0.39056396484375,0.3925123810768127,0.3081660866737366,0.5261846780776978,83.81193542480469,-80.28446960449219,228.889389038086
1700075269,0.48175048828125,0.5904541015625,-0.378875732421875,0.7194415330886841,0.1892628669738769,0.3302543461322784,83.98231506347656,-80.65953063964844,228.8804931640625
1700075269,1.060821533203125,0.60443115234375,-0.3078155517578125,0.8220922350883484,0.1052158996462822,0.1654981523752212,84.25962829589844,-80.24531555175781,228.90293884277344
1700075269,1.2342681884765625,0.3825531005859375,-0.3925018310546875,0.8104374408721924,0.0751775726675987,0.0847998410463333,83.84535217285156,-80.10943603515625,228.89942932128903
1700075269,1.0782470703125,0.1897735595703125,-0.5074462890625,0.7152989506721497,0.0473233051598072,0.1484254300594329,83.40872192382812,-80.31243896484375,228.8662567138672
1700075269,0.9292144775390624,0.0696868896484375,-0.4550018310546875,0.4791719317436218,0.0616298094391822,0.2933948636054992,83.37908935546875,-79.86856079101562,229.2410430908203
1700075269,0.8569488525390625,-0.009521484375,-0.414398193359375,0.1834513247013092,0.0810820683836937,0.4316986799240112,83.19842529296875,-80.22001647949219,229.65606689453125
1700075269,0.88800048828125,-0.0909423828125,-0.4196014404296875,-0.044474259018898,0.0969776809215545,0.602660059928894,83.08999633789062,-80.24064636230469,228.470947265625
1700075269,0.9480438232421876,-0.123565673828125,-0.3890533447265625,-0.2439604699611663,0.1121262684464454,0.7581806778907776,83.0604248046875,-80.59132385253906,228.65174865722656
1700075269,0.9280548095703124,-0.0665283203125,-0.3748931884765625,-0.3623233437538147,0.133144736289978,0.8322948217391968,82.86256408691406,-80.66896057128906,228.74285888671875
1700075269,0.8914031982421875,0.0605010986328125,-0.3650970458984375,-0.321987897157669,0.1725086569786071,0.8396885395050049,82.24555969238281,-80.76597595214844,228.9927215576172
1700075269,0.858551025390625,0.1906890869140625,-0.343597412109375,-0.1378220468759536,0.2141506373882293,0.7849557995796204,81.70736694335938,-80.81681823730469,228.9483795166016
1700075269,0.829132080078125,0.281951904296875,-0.3123626708984375,0.0862717702984809,0.2484321743249893,0.7085326910018921,80.70149230957031,-80.46383666992188,228.9489898681641
1700075269,0.8323822021484375,0.35614013671875,-0.320465087890625,0.2702820897102356,0.287884771823883,0.6566830277442932,80.22929382324219,-78.85385131835938,228.0806427001953
1700075269,0.8655853271484375,0.379638671875,-0.3086700439453125,0.3986363410949707,0.3367117047309875,0.6497548222541809,80.65008544921875,-78.75894165039062,228.56832885742188
1700075269,0.890380859375,0.335235595703125,-0.288238525390625,0.4875592887401581,0.3842541873455047,0.6877669095993042,80.53382873535156,-78.86116027832031,228.35289001464844
1700075269,0.895843505859375,0.2559356689453125,-0.2884368896484375,0.526375412940979,0.44434654712677,0.7716019153594971,79.99952697753906,-78.36506652832031,228.20098876953125
1700075270,0.887237548828125,0.1720123291015625,-0.28936767578125,0.5117437243461609,0.5208423733711243,0.8792114853858948,79.39381408691406,-77.28642272949219,227.5098114013672
1700075270,0.893157958984375,0.0997314453125,-0.342071533203125,0.4973091185092926,0.5705612301826477,1.02705180644989,78.58944702148438,-77.07395935058594,227.25958251953125
1700075270,0.90423583984375,0.054901123046875,-0.355194091796875,0.4760019481182098,0.6333162188529968,1.1874520778656006,78.33990478515625,-77.05357360839844,227.17909240722656
1700075270,0.8784637451171875,0.0528411865234375,-0.4056396484375,0.478858470916748,0.6814137101173401,1.3138132095336914,77.79319763183594,-77.67208862304688,227.4698486328125
1700075270,0.8672332763671875,0.0775299072265625,-0.399688720703125,0.502916157245636,0.7675403356552124,1.4012160301208496,77.73318481445312,-77.59367370605469,227.5572204589844
1700075270,0.86041259765625,0.1133575439453125,-0.393218994140625,0.5841801166534424,0.8178439736366272,1.4755736589431765,77.17059326171875,-77.80052185058594,226.5201568603516
1700075270,0.8621826171875,0.1900787353515625,-0.3903961181640625,0.6967758536338806,0.8526115417480469,1.539689302444458,76.95834350585938,-77.561279296875,226.772689819336
1700075270,0.8832855224609375,0.2982635498046875,-0.3965301513671875,0.7387393116950989,0.9309646487236024,1.5739364624023438,77.07196044921875,-78.02394104003906,226.73272705078125
1700075270,0.9002227783203125,0.381988525390625,-0.4172821044921875,0.8716139793395996,0.9886308908462524,1.616300106048584,77.20729064941406,-78.01005554199219,227.1194610595703
1700075270,0.9669036865234376,0.3910369873046875,-0.362884521484375,0.9700923562049866,1.0120432376861572,1.7642898559570312,76.92684936523438,-78.19113159179688,227.0553741455078
1700075270,1.1249847412109375,0.3777618408203125,-0.307342529296875,1.0227441787719729,1.0979267358779907,1.882169365882873,77.00216674804688,-78.33442687988281,227.158920288086
1700075270,1.2248687744140625,0.253631591796875,-0.3878631591796875,1.0961863994598389,1.1722532510757446,2.0296666622161865,76.89723205566406,-78.16763305664062,227.07508850097656
1700075270,1.1378631591796875,0.2451171875,-0.4802398681640625,1.1672041416168213,1.274381160736084,2.1417458057403564,76.71893310546875,-78.20498657226562,226.9270477294922
1700075270,1.1545562744140625,0.28265380859375,-0.47900390625,1.2352005243301392,1.355091214179993,2.228729009628296,76.19374084472656,-78.15229797363281,227.2118682861328
1700075270,1.2272491455078125,0.28204345703125,-0.397857666015625,1.3357070684432983,1.4335389137268066,2.3085358142852783,76.43069458007812,-78.20091247558594,226.7948455810547
1700075270,1.1492156982421875,0.252105712890625,-0.39794921875,1.4170889854431152,1.482519507408142,2.3711299896240234,76.50059509277344,-78.18658447265625,226.78662109375
1700075270,0.9301300048828124,0.301116943359375,-0.44512939453125,1.4737004041671753,1.4986469745635986,2.387354850769043,76.54148864746094,-78.13092041015625,226.60650634765625
1700075270,0.7949676513671875,0.455963134765625,-0.483917236328125,1.5350031852722168,1.528980731964111,2.306741714477539,76.66868591308594,-77.67498779296875,227.18429565429688
1700075270,0.7884674072265625,0.524993896484375,-0.4391937255859375,1.6440476179122925,1.5507712364196775,2.255302667617798,76.16841125488281,-77.37265014648438,226.72003173828125
1700075270,0.677276611328125,0.5532379150390625,-0.4538726806640625,1.7013362646102903,1.522984266281128,2.2286536693573,76.44721984863281,-77.11077880859375,226.47073364257807
1700075270,0.7064971923828125,0.615447998046875,-0.4931182861328125,1.791274905204773,1.487774133682251,2.1730446815490723,76.43997192382812,-77.02143859863281,226.193115234375
1700075270,0.7722015380859375,0.555328369140625,-0.4468231201171875,1.928020000457764,1.488200545310974,2.208704233169556,76.52804565429688,-76.62710571289062,226.31710815429688
1700075270,0.6721954345703125,0.5857391357421875,-0.508941650390625,1.921247482299805,1.477691411972046,2.20664381980896,76.49055480957031,-76.58676147460938,226.72479248046875
1700075270,0.9022369384765624,0.63787841796875,-0.4970703125,1.9062411785125728,1.4449137449264526,2.1951048374176025,76.55599975585938,-76.4178466796875,226.6371154785156
1700075270,1.1821136474609375,0.544891357421875,-0.4979400634765625,1.9299222230911253,1.305610179901123,2.207632780075073,76.67645263671875,-76.55198669433594,226.25222778320312
1700075270,1.2876739501953125,0.4293975830078125,-0.64654541015625,1.945330262184143,1.1656283140182495,2.2597897052764893,76.12022399902344,-76.29521179199219,225.9199981689453
1700075270,1.305084228515625,0.432525634765625,-0.6340179443359375,1.7814089059829712,1.0624340772628784,2.2335236072540283,76.47714233398438,-76.25302124023438,226.706298828125
1700075270,1.4295196533203125,0.4064788818359375,-0.4805450439453125,1.562335968017578,0.9318640232086182,2.107630968093872,76.43943786621094,-76.41603088378906,226.3796539306641
1700075270,1.527008056640625,0.281646728515625,-0.4456634521484375,1.385561466217041,0.7476073503494263,1.9043958187103271,76.36485290527344,-76.16706848144531,226.1944122314453
1700075270,1.47216796875,0.1587066650390625,-0.4400787353515625,1.346932888031006,0.5280907154083252,1.6729480028152466,76.12940979003906,-75.77088928222656,225.8232879638672
1700075270,1.2316436767578125,0.1056365966796875,-0.415435791015625,1.424418330192566,0.3599959909915924,1.4132953882217407,76.08720397949219,-75.86538696289062,225.35269165039065
1700075270,0.8782196044921875,0.1095733642578125,-0.3939971923828125,1.402658462524414,0.5816056132316589,1.052268147468567,76.1983642578125,-75.46807861328125,225.8482818603516
1700075270,0.50970458984375,0.1364288330078125,-0.6018524169921875,1.4805567264556885,0.6880177855491638,0.6013470888137817,75.77491760253906,-74.92794799804688,225.61721801757807
1700075270,0.2051239013671875,0.1876373291015625,-0.7109527587890625,1.6370760202407837,0.7221598029136658,0.2646012902259826,75.55448913574219,-74.86341857910156,225.8420867919922
1700075270,-0.023712158203125,0.3882293701171875,-0.78460693359375,1.7446333169937134,0.8329598307609558,-0.0926404520869255,75.68582153320312,-74.57392883300781,225.411849975586
1700075270,-0.2500152587890625,0.653564453125,-1.070098876953125,1.600216269493103,1.032130479812622,-0.5074043273925781,75.46305847167969,-74.39451599121094,225.4014129638672
1700075270,-0.4400482177734375,0.9722747802734376,-1.1620941162109375,1.1790308952331543,1.0302371978759766,-1.0164740085601809,75.14207458496094,-74.48130798339844,225.3095092773437
1700075270,-0.23822021484375,1.051361083984375,-0.59588623046875,1.1335997581481934,0.7321341633796692,-1.568638563156128,74.69367980957031,-73.81666564941406,225.3189239501953
1700075270,0.26788330078125,0.3632965087890625,0.072509765625,0.9677962064743042,0.6448005437850952,-2.515977382659912,74.48818969726562,-73.18107604980469,224.57264709472656
1700075270,0.60546875,-0.60528564453125,0.307647705078125,0.2242711782455444,0.7888488173484802,-3.225884437561035,74.48582458496094,-72.47062683105469,224.33035278320312
1700075270,0.4857025146484375,-1.088165283203125,0.2253265380859375,-1.081942796707153,0.8799973726272583,-3.175825357437134,73.83439636230469,-72.18063354492188,224.2292022705078
1700075270,0.3048858642578125,-0.9341888427734376,-0.175079345703125,-1.4397884607315063,0.8091740608215332,-2.9064860343933105,73.19828796386719,-71.55027770996094,223.5717163085937
1700075270,0.44793701171875,-0.694793701171875,-0.3299560546875,-1.5356931686401367,0.7841376662254333,-3.3625309467315674,72.32968139648438,-71.00703430175781,224.34429931640625
1700075270,0.7556915283203125,-0.6413421630859375,-0.3787689208984375,-1.5791469812393188,0.8334642052650452,-3.9698245525360094,72.29495239257812,-70.51318359375,224.4529266357422
1700075270,0.8702850341796875,-0.285919189453125,-0.3990020751953125,-1.2085552215576172,0.8221197128295898,-4.442020893096924,71.78765869140625,-69.96284484863281,224.02096557617188
1700075270,0.94879150390625,0.129119873046875,-0.190399169921875,-0.7070956230163574,0.7152113318443298,-4.815818786621094,71.08909606933594,-69.43966674804688,223.5851287841797
1700075270,1.154296875,0.451751708984375,0.0522613525390625,-0.307348757982254,0.5082190036773682,-5.0860700607299805,70.694580078125,-69.17449951171875,223.71202087402344
1700075270,1.393524169921875,0.7623291015625,0.30792236328125,0.0271117780357599,0.3340711891651153,-5.290397644042969,69.94122314453125,-68.41439819335938,224.1568756103516
1700075270,1.5274810791015625,0.983978271484375,0.411651611328125,0.6585400700569153,0.267816811800003,-5.56887149810791,69.78102111816406,-67.92877197265625,222.9087677001953
1700075270,1.5411834716796875,0.8896331787109375,0.3126678466796875,1.2815922498703003,0.2089657336473465,-5.7554707527160645,69.03419494628906,-67.47036743164062,222.714599609375
1700075270,1.470672607421875,0.6983642578125,0.2440643310546875,1.5427396297454834,0.0939619168639183,-5.834607601165772,68.53053283691406,-67.18528747558594,222.741943359375
1700075270,1.4284515380859375,0.589080810546875,0.2937469482421875,1.5039414167404177,-4.50074221589e-05,-5.849215507507324,68.04208374023438,-66.30873107910156,223.01614379882807
1700075270,1.436431884765625,0.480010986328125,0.30389404296875,1.3082749843597412,-0.043491818010807,-5.794538497924805,67.47602844238281,-65.94869995117188,222.5835418701172
1700075270,1.4477691650390625,0.43695068359375,0.233062744140625,1.144002914428711,-0.1206891313195228,-5.697991847991943,66.9248046875,-65.51435852050781,222.86697387695312
1700075270,1.50579833984375,0.49688720703125,0.180267333984375,1.0662598609924316,-0.2792089879512787,-5.629889488220215,66.40798950195312,-64.880615234375,222.30702209472656
1700075270,1.6294403076171875,0.5584564208984375,0.160491943359375,1.0799081325531006,-0.4646480977535248,-5.620166778564453,65.8565673828125,-64.7857666015625,223.01890563964844
1700075270,1.7106781005859375,0.5817108154296875,0.1483001708984375,1.140568494796753,-0.5856919884681702,-5.620071887969971,65.3330078125,-64.13644409179688,222.5629119873047
1700075270,1.684478759765625,0.6302337646484375,0.1009368896484375,1.2214667797088623,-0.6488339304924011,-5.581819534301758,64.58073425292969,-63.51486206054688,222.5184326171875
1700075270,1.6174468994140625,0.673431396484375,0.0644073486328125,1.274311900138855,-0.6847288012504578,-5.565905570983887,64.09834289550781,-63.12248229980469,222.5547332763672
1700075270,1.5919189453125,0.6612091064453125,0.034912109375,1.3224549293518066,-0.7466643452644348,-5.556921482086182,63.21376037597656,-62.62403869628906,223.23719787597656
1700075270,1.5777740478515625,0.5923614501953125,0.0039825439453125,1.4000648260116575,-0.8163939118385315,-5.475778102874756,62.429473876953125,-62.22917175292969,222.45166015625
1700075270,1.532135009765625,0.5190887451171875,-0.028411865234375,1.5014278888702393,-0.8818080425262451,-5.32785701751709,61.988372802734375,-61.48481750488281,222.36734008789065
1700075270,1.499847412109375,0.4720001220703125,-0.05267333984375,1.6692196130752563,-0.9222002029418944,-5.197854042053223,61.63746643066406,-61.12025451660156,222.60076904296875
1700075270,1.4778594970703125,0.44830322265625,-0.0537872314453125,1.9393658638000488,-0.8926228880882263,-5.034026145935059,61.10435485839844,-61.019561767578125,222.619369506836
1700075270,1.4657745361328125,0.4716796875,-0.0473480224609375,2.181846618652344,-0.843113899230957,-4.858138084411621,60.43316650390625,-60.58706665039063,222.4603881835937
1700075270,1.4512939453125,0.501556396484375,-0.057769775390625,2.2983531951904297,-0.8201542496681213,-4.671092987060547,59.94161987304688,-60.20515441894531,222.12307739257807
1700075270,1.4405059814453125,0.5258636474609375,-0.087432861328125,2.367886066436768,-0.8186565041542053,-4.478681564331055,60.00520324707031,-60.61140441894531,221.9434509277344
1700075270,1.3952178955078125,0.5244293212890625,-0.0917816162109375,2.514040470123291,-0.8102614283561707,-4.234864711761475,59.33976745605469,-60.62059020996094,221.1752166748047
1700075270,1.346710205078125,0.528533935546875,-0.0821075439453125,2.732552289962769,-0.8296870589256287,-3.9498021602630615,58.787872314453125,-61.108154296875,221.1631622314453
1700075270,1.3049163818359375,0.5575103759765625,-0.100494384765625,2.9631266593933105,-0.8613336682319641,-3.6642870903015137,58.843841552734375,-60.81062316894531,220.86965942382807
1700075270,1.262481689453125,0.6125640869140625,-0.1346588134765625,3.221289157867432,-0.8575815558433533,-3.3732168674468994,58.69102478027344,-61.011749267578125,221.06863403320312
1700075270,1.1784515380859375,0.684539794921875,-0.0937042236328125,3.394491195678711,-0.7495285868644714,-3.0595622062683105,58.862213134765625,-60.99247741699219,220.862533569336
1700075270,1.0500946044921875,0.7680206298828125,-0.094207763671875,3.5136542320251465,-0.6654658913612366,-2.689589738845825,58.74017333984375,-60.509033203125,221.57373046875
1700075270,0.891326904296875,0.814666748046875,-0.0972747802734375,3.4544029235839844,-0.5336146354675293,-2.2487945556640625,59.37542724609375,-60.94343566894531,220.7844390869141
1700075270,0.7655181884765625,0.8114776611328125,-0.143341064453125,3.1208689212799072,-0.407840758562088,-1.7133795022964478,60.01934814453125,-61.390960693359375,221.24273681640625
1700075270,0.7353057861328125,0.75164794921875,-0.2070159912109375,2.528397560119629,-0.3161869943141937,-1.0578696727752686,60.132110595703125,-61.4276123046875,220.79913330078125
1700075270,0.7573699951171875,0.70843505859375,-0.259552001953125,1.7319103479385376,-0.2402877062559127,-0.3730023503303528,60.87779235839844,-61.77223205566406,220.65188598632807
1700075270,0.7648773193359375,0.69677734375,-0.3143157958984375,0.8925078511238098,-0.186398908495903,0.2480561435222625,61.114013671875,-62.35919189453125,220.59127807617188
1700075270,0.7537689208984375,0.697357177734375,-0.3268585205078125,0.1745885908603668,-0.0641795173287391,0.7391981482505798,61.57231140136719,-62.86271667480469,220.57765197753903
1700075270,0.74578857421875,0.6711883544921875,-0.3248748779296875,-0.2624033987522125,0.0914337784051895,1.3162343502044678,62.41259765625,-63.121002197265625,219.742919921875
1700075270,0.68963623046875,0.727874755859375,-0.4398651123046875,-0.2749626040458679,0.0611477755010128,1.6699868440628052,62.85411071777344,-63.72720336914063,219.6538543701172
1700075270,0.7353515625,0.7959747314453125,-0.4208984375,-0.2466294914484024,0.0313153117895126,0.8682264685630798,63.31422424316406,-63.68193054199219,219.7273101806641
1700075270,1.2905731201171875,-0.0955047607421875,-0.3355255126953125,-0.1749723404645919,-0.0944628566503524,-0.8917714953422546,63.831329345703125,-64.07583618164062,220.5774841308593
1700075270,1.8165435791015625,-1.2938690185546875,-0.055328369140625,0.3421954214572906,-0.152963176369667,-1.5021666288375854,64.25102233886719,-64.00932312011719,220.3020477294922
1700075270,1.7965850830078125,-1.6173248291015625,0.172882080078125,-0.2833645939826965,0.4967021644115448,1.307481050491333,64.7137451171875,-64.41456604003906,220.2939453125
1700075270,1.221099853515625,-0.4264068603515625,-0.8943328857421875,-0.2120837569236755,0.6181817650794983,2.899665117263794,65.51028442382812,-64.24415588378906,220.19200134277344
1700075270,1.871124267578125,-0.6071319580078125,-0.5574798583984375,-0.7840162515640259,0.4085584580898285,2.953996658325196,65.72395324707031,-64.61228942871094,220.00064086914065
1700075270,1.7510528564453125,-0.849639892578125,-0.2990570068359375,-1.379887938499451,0.2694234848022461,2.9371304512023926,66.09275817871094,-64.48030090332031,220.3480834960937
1700075270,0.7174835205078125,-0.292694091796875,-0.4033203125,-1.1489979028701782,0.1528491973876953,2.2206127643585205,66.21360778808594,-64.57206726074219,220.5971069335937
1700075270,0.2237091064453125,-0.1710357666015625,-0.3496551513671875,-0.2822878956794739,0.3960892856121063,1.3622380495071411,67.4007568359375,-64.444091796875,220.57131958007807
1700075270,0.146026611328125,0.0151824951171875,-0.5232086181640625,0.220957949757576,0.6303457021713257,1.398844838142395,67.89688110351562,-64.52182006835938,220.0053100585937
1700075270,0.431884765625,0.466278076171875,-0.504608154296875,0.4130147397518158,0.3682603240013122,1.5763015747070312,68.50640869140625,-64.4931640625,220.37646484375
1700075270,1.0169677734375,0.6623077392578125,-0.2345733642578125,0.6071546673774719,0.2044056057929992,1.30338454246521,69.08477783203125,-64.23171997070312,220.5264129638672
1700075270,1.501953125,0.579620361328125,-0.2552947998046875,0.8291030526161194,0.2248682677745819,0.9499724507331848,69.43699645996094,-64.62220764160156,220.4387969970703
1700075270,1.4804534912109375,0.511627197265625,-0.38177490234375,1.1356337070465088,0.2083654552698135,0.7074490189552307,69.95024108886719,-64.59843444824219,220.17042541503903
1700075270,1.252197265625,0.3546295166015625,-0.3723297119140625,1.360734462738037,0.1734519451856613,0.5743753910064697,70.27558898925781,-64.54632568359375,220.8094177246093
1700075270,1.0304107666015625,0.1802215576171875,-0.3556976318359375,1.3014428615570068,0.1550604254007339,0.4883686006069183,70.74790954589844,-64.44276428222656,221.2314910888672
1700075270,0.9241790771484376,0.0081939697265625,-0.357208251953125,0.9856510758399964,0.1800235658884048,0.4396452903747558,71.28169250488281,-64.24560546875,220.9643402099609
1700075270,0.916351318359375,-0.11895751953125,-0.3690032958984375,0.6605004072189331,0.1775441616773605,0.4633857607841491,71.59115600585938,-64.23902893066406,220.6921844482422
1700075271,0.9378662109375,-0.173614501953125,-0.347564697265625,0.4571691453456878,0.1553246080875396,0.5103061199188232,72.16011047363281,-64.04641723632812,221.32620239257807
1700075271,0.947021484375,-0.180267333984375,-0.3538360595703125,0.4121630489826202,0.1181058660149574,0.5209395885467529,72.38105773925781,-63.42822265625,221.86447143554688
1700075271,0.9408416748046876,-0.1600494384765625,-0.3650665283203125,0.45076584815979,0.0990757197141647,0.5021510124206543,72.541748046875,-63.04045104980469,222.16978454589844
1700075271,0.9323272705078124,-0.0749053955078125,-0.3537139892578125,0.4849914610385895,0.1091786846518516,0.4324811100959778,73.0250244140625,-62.23724365234375,221.98179626464844
1700075271,0.9613800048828124,-0.01812744140625,-0.3480377197265625,0.5709558725357056,0.1251768320798874,0.3449888229370117,72.99951171875,-61.84687805175781,222.6341857910156
1700075271,0.978729248046875,-0.024688720703125,-0.3788604736328125,0.6873751878738403,0.1165031790733337,0.3144772350788116,73.304443359375,-61.23139953613281,222.05593872070312
1700075271,0.94281005859375,-0.00994873046875,-0.4598236083984375,0.7332662343978882,0.047757402062416,0.3030107319355011,73.36538696289062,-60.56466674804688,222.4171600341797
1700075271,0.9324798583984376,0.0168914794921875,-0.49285888671875,0.6841959357261658,-0.009828396141529,0.2856618463993072,73.40182495117188,-59.81488037109375,223.07742309570312
1700075271,0.9559173583984376,0.0218048095703125,-0.4248504638671875,0.601557195186615,0.0204339027404785,0.2439974844455719,73.25831604003906,-59.57099914550781,222.9364013671875
1700075271,0.9562225341796876,-0.00177001953125,-0.3824005126953125,0.5852980613708496,0.003997937310487,0.2297879308462143,73.79774475097656,-58.970306396484375,223.5879821777344
1700075271,0.9431304931640624,-0.034515380859375,-0.3633575439453125,0.6220079064369202,-0.0292859841138124,0.2544679641723633,73.78141784667969,-58.7403564453125,223.98016357421875
1700075271,0.929046630859375,-0.0482330322265625,-0.373138427734375,0.6215895414352417,-0.0625374168157577,0.2511451542377472,73.54293823242188,-58.44140625,224.0587310791016
1700075271,0.9100189208984376,-0.0792388916015625,-0.433074951171875,0.5504308938980103,-0.083763338625431,0.2690735459327698,73.45555114746094,-57.96189880371094,223.99034118652344
1700075271,0.8927154541015625,-0.0713348388671875,-0.4296722412109375,0.4382396638393402,-0.0999897122383117,0.2695196270942688,73.21455383300781,-57.60791015625,224.02310180664065
1700075271,0.900543212890625,-0.0765533447265625,-0.4016571044921875,0.3643819391727447,-0.100740723311901,0.284560352563858,72.54463195800781,-56.76902770996094,224.0686798095703
1700075271,0.8971710205078125,-0.0757598876953125,-0.3866424560546875,0.3604375422000885,-0.089783951640129,0.3091613054275512,71.87092590332031,-55.71800231933594,224.5619354248047
1700075271,0.90362548828125,-0.0630950927734375,-0.3849334716796875,0.3791137635707855,-0.0860006585717201,0.3234880566596985,71.25245666503906,-55.0927734375,224.540771484375
1700075271,0.9365997314453124,-0.0619049072265625,-0.3554534912109375,0.4435902237892151,-0.069886140525341,0.3315518498420715,70.33448791503906,-54.37071228027344,225.09246826171875
1700075271,0.9509124755859376,-0.0765380859375,-0.33209228515625,0.4780134558677673,-0.0529329888522625,0.3568747639656067,68.74850463867188,-53.12532043457031,225.4569549560547
1700075271,0.938629150390625,-0.084808349609375,-0.3492279052734375,0.4894072413444519,-0.0414379872381687,0.3916332721710205,67.64767456054688,-51.80482482910156,225.8035430908203
1700075271,0.9313201904296876,-0.103302001953125,-0.349090576171875,0.4762831926345825,-0.0417647585272789,0.4253339767456054,68.16889953613281,-52.001800537109375,226.1815795898437
1700075271,0.9216156005859376,-0.1241455078125,-0.3541412353515625,0.439522236585617,-0.0259796697646379,0.4756991565227508,67.29161071777344,-52.201751708984375,226.5728302001953
1700075271,0.89813232421875,-0.113372802734375,-0.382781982421875,0.409778743982315,-0.0278337616473436,0.5325179696083069,66.54750061035156,-51.56320190429688,226.6854248046875
1700075271,0.8888702392578125,-0.0693359375,-0.3970489501953125,0.4000126421451568,-0.0375641547143459,0.5502055883407593,65.54444885253906,-51.71896362304688,226.82997131347656
1700075271,0.910797119140625,-0.013275146484375,-0.3711395263671875,0.3640535771846771,-0.0107834050431847,0.5489915013313293,64.65083312988281,-51.856201171875,226.0829620361328
1700075271,0.9384613037109376,0.0447998046875,-0.34844970703125,0.3753618896007538,0.0200232435017824,0.5208653211593628,63.898345947265625,-52.5513916015625,225.76443481445312
1700075271,0.9522705078125,0.0773162841796875,-0.3323516845703125,0.4522122144699096,0.0341129638254642,0.4946206510066986,63.022979736328125,-52.53315734863281,225.612045288086
1700075271,0.9618072509765624,0.0848236083984375,-0.320526123046875,0.4938030540943146,0.0726073607802391,0.4985807836055755,62.36158752441406,-52.469085693359375,225.505126953125
1700075271,0.95623779296875,0.082672119140625,-0.3241729736328125,0.5119737982749939,0.105191133916378,0.4779761731624603,60.98970031738281,-52.852630615234375,225.4691467285156
1700075271,0.9498443603515624,0.0297698974609375,-0.3111114501953125,0.5657978653907776,0.1178595274686813,0.4767990410327911,60.52583312988281,-52.4588623046875,225.5070953369141
1700075271,0.92425537109375,-0.01788330078125,-0.334716796875,0.5571948289871216,0.1384814530611038,0.5130159258842468,60.63394165039063,-52.89410400390625,225.7876739501953
1700075271,0.9027557373046876,-0.0126800537109375,-0.3919525146484375,0.5647091865539551,0.1223842352628707,0.5199617147445679,60.211181640625,-52.58015441894531,225.1217041015625
1700075271,0.914886474609375,-0.0050048828125,-0.3808135986328125,0.5352277159690857,0.1321401894092559,0.544763445854187,59.9039306640625,-52.97064208984375,226.0227203369141
1700075271,0.9195098876953124,0.0495758056640625,-0.3829193115234375,0.5317107439041138,0.1403624415397644,0.5259801745414734,59.45025634765625,-53.266021728515625,225.33514404296875
1700075271,0.9247894287109376,0.091796875,-0.3483123779296875,0.503361701965332,0.1738958954811096,0.5200551748275757,58.997406005859375,-53.791107177734375,225.207748413086
1700075271,0.9213714599609376,0.1239166259765625,-0.3141326904296875,0.4414650201797485,0.2048325091600418,0.5285037755966187,58.64390563964844,-53.765045166015625,224.88121032714844
1700075271,0.8974151611328125,0.1440277099609375,-0.3267974853515625,0.3732225894927978,0.2245550751686096,0.5553292632102966,58.21452331542969,-54.010345458984375,225.09336853027344
1700075271,0.887908935546875,0.125640869140625,-0.3568267822265625,0.3259144425392151,0.244712546467781,0.5954686999320984,57.98529052734375,-54.06602478027344,225.05789184570312
1700075271,0.89898681640625,0.0704498291015625,-0.34765625,0.2582778930664062,0.2665765583515167,0.6345820426940918,58.04556274414063,-54.10820007324219,225.01231384277344
1700075271,0.9205474853515624,0.0076751708984375,-0.3485565185546875,0.2512956261634826,0.2928755581378937,0.6744319796562195,57.85693359375,-53.91253662109375,223.9497833251953
1700075271,0.955108642578125,-0.0357818603515625,-0.404815673828125,0.3691274523735046,0.2828831076622009,0.7106757164001465,57.51095581054688,-53.6165771484375,224.90652465820312
1700075271,0.996429443359375,-0.0252685546875,-0.4483642578125,0.5059571862220764,0.2795823812484741,0.7334135174751282,57.21153259277344,-53.03822326660156,224.67745971679688
1700075271,1.0112762451171875,0.0488739013671875,-0.4235382080078125,0.6193649768829346,0.301144927740097,0.7417561411857605,57.22804260253906,-52.62397766113281,224.7333526611328
1700075271,0.9857177734375,0.126708984375,-0.3394622802734375,0.6456700563430786,0.3749914467334747,0.763680636882782,57.30323791503906,-52.2193603515625,225.5953826904297
1700075271,0.946624755859375,0.1703033447265625,-0.3095703125,0.6930605173110962,0.4385539293289184,0.7909500598907471,57.14973449707031,-52.174560546875,225.01914978027344
1700075271,0.9452667236328124,0.138214111328125,-0.337188720703125,0.8055689334869385,0.4791492819786072,0.8306947946548462,57.03810119628906,-52.73483276367188,225.2122497558593
1700075271,0.9819183349609376,0.0722808837890625,-0.39947509765625,0.9628373980522156,0.5131884813308716,0.8783587217330933,57.01641845703125,-52.47370910644531,225.2559509277344
1700075271,1.0036773681640625,0.04443359375,-0.4564056396484375,1.11722993850708,0.5426651239395142,0.9314839839935304,56.71379089355469,-52.51710510253906,225.2386779785156
1700075271,1.0061187744140625,0.078216552734375,-0.4423370361328125,1.3168354034423828,0.5169989466667175,1.0205289125442505,56.625396728515625,-52.53077697753906,225.21197509765625
1700075271,1.052764892578125,0.1423187255859375,-0.2754669189453125,1.2869603633880615,0.5601091384887695,1.1302415132522583,56.44413757324219,-52.556732177734375,224.8863220214844
1700075271,1.1019439697265625,0.19183349609375,-0.184112548828125,1.185543656349182,0.6769957542419434,1.2052929401397705,56.16447448730469,-52.827880859375,225.08248901367188
1700075271,1.0909576416015625,0.1689605712890625,-0.2416534423828125,1.1793055534362793,0.7628790140151978,1.3184401988983154,55.96905517578125,-52.81608581542969,225.0489654541016
1700075271,1.1026458740234375,0.1211395263671875,-0.2498931884765625,1.2005902528762815,0.8441972732543945,1.4796315431594849,55.44966125488281,-52.798919677734375,225.3093719482422
1700075271,1.15283203125,0.1119384765625,-0.2269287109375,1.2443971633911133,0.9208033680915833,1.5954580307006836,55.48457336425781,-52.38508605957031,225.35208129882807
1700075271,1.2551727294921875,0.1089630126953125,-0.2311859130859375,1.3408938646316528,0.9665213227272034,1.6778913736343384,55.2952880859375,-52.298614501953125,225.9770355224609
1700075271,1.392303466796875,0.0911102294921875,-0.2164154052734375,1.422712326049805,1.0063364505767822,1.8226397037506104,54.65020751953125,-52.09689331054688,225.6521148681641
1700075271,1.5230865478515625,0.0887908935546875,-0.200164794921875,1.5675283670425415,1.0638912916183472,1.9449506998062127,54.29579162597656,-52.22264099121094,225.7698516845703
1700075271,1.6512451171875,0.02783203125,-0.1636962890625,1.7605994939804075,1.1422702074050903,2.053281307220459,53.95372009277344,-51.70675659179688,225.7442169189453
1700075271,1.757049560546875,-0.0464324951171875,-0.0997772216796875,1.9639281034469604,1.207208514213562,2.130567789077759,53.54545593261719,-51.61256408691406,226.26971435546875
1700075271,1.8702239990234373,-0.095977783203125,-0.0808868408203125,2.2188100814819336,1.2848454713821411,2.095443725585937,52.76383972167969,-51.68052673339844,225.897705078125
1700075271,1.98968505859375,-0.1790313720703125,-0.148162841796875,2.4677298069000244,1.3622279167175293,1.9869053363800049,52.22315979003906,-51.268646240234375,226.457763671875
1700075271,2.0067901611328125,-0.249267578125,-0.228302001953125,2.629741668701172,1.399233102798462,1.828596472740173,51.396270751953125,-51.07444763183594,227.2078552246093
1700075271,1.831451416015625,-0.2513275146484375,-0.324127197265625,2.882438898086548,1.361331820487976,1.7114202976226809,50.73663330078125,-50.79856872558594,226.7728881835937
1700075271,1.4932861328125,-0.1412353515625,-0.38916015625,3.244523763656616,1.3672994375228882,1.5797832012176514,50.0709228515625,-50.589385986328125,226.8514709472656
1700075271,1.107421875,0.0536651611328125,-0.577789306640625,3.722601413726807,1.325167894363403,1.4124854803085327,49.1060791015625,-50.12638854980469,226.69168090820312
1700075271,0.80487060546875,0.2415924072265625,-0.8127899169921875,3.7564871311187744,1.3360202312469482,1.2245640754699707,48.3011474609375,-49.96345520019531,227.01124572753903
1700075271,0.62445068359375,0.4591217041015625,-1.11834716796875,3.3413777351379395,1.5179206132888794,0.970202386379242,47.34675598144531,-49.4564208984375,228.00311279296875
1700075271,0.5748443603515625,0.650390625,-1.2014312744140625,2.9608774185180664,1.715444803237915,0.462609201669693,46.417388916015625,-49.56968688964844,227.9932403564453
1700075271,0.62225341796875,0.716278076171875,-0.9026641845703124,2.9622843265533447,1.796074390411377,-0.2058207988739013,46.023345947265625,-49.24603271484375,228.75282287597656
1700075271,0.6452178955078125,0.55352783203125,-0.5609588623046875,3.148693084716797,1.7529128789901731,-0.8271732926368713,44.53340148925781,-48.946624755859375,228.73423767089844
