timestamp,acc-x,acc-y,acc-z,gyr-x,gyr-y,gyr-z,mag-x,mag-y,mag-z
1699734427,0.9888436889648438,-3.137325897216797,-8.362510070800782,-2.1854019165039062,-0.2970798909664154,1.5909186601638794,41.13706970214844,-169.2555389404297,-301.0045166015625
1699734427,1.0234217834472656,-3.6985089111328127,-7.856711883544922,-2.198664665222168,0.3192996978759765,1.671816349029541,41.218780517578125,-169.19786071777344,-301.04052734375
1699734427,0.9407936096191408,-4.434378662109375,-7.22577392578125,-2.004101037979126,1.0796101093292236,1.6152896881103516,41.30244445800781,-168.9451904296875,-300.55377197265625
1699734427,0.83107177734375,-3.76781478881836,-7.258256378173828,-1.6307238340377808,1.618419528007507,1.415500521659851,41.7373046875,-168.66456604003906,-299.8957824707031
1699734427,0.7816744995117187,-2.532284088134766,-6.95558578491211,-1.1038789749145508,1.615311861038208,1.1870121955871582,42.37274169921875,-168.8057098388672,-299.72509765625
1699734427,0.6834786987304687,-1.9839743041992188,-6.351741485595704,-0.4501405358314514,1.2319647073745728,0.963479220867157,42.59251403808594,-168.85302734375,-299.90704345703125
1699734427,0.8937913513183594,-2.1812640380859376,-5.873935089111328,0.2865667939186096,0.7448728084564209,0.7930976152420044,43.30653381347656,-169.45565795898438,-299.4237060546875
1699734427,1.2052935791015629,-1.4166540527343752,-5.491630096435547,1.0013381242752075,-0.1081509739160537,0.8512565493583679,43.08428955078125,-169.96365356445312,-298.8129272460937
1699734427,1.452279968261719,-0.2585124206542969,-6.201454010009766,1.5491666793823242,-1.5243273973464966,0.894361674785614,42.67771911621094,-170.93531799316406,-299.4833374023437
1699734427,2.296674041748047,-0.6653663635253907,-8.608897705078125,1.847981333732605,-2.8722617626190186,0.6940213441848755,41.80879211425781,-171.39566040039062,-300.44500732421875
1699734427,3.18298095703125,-1.725461883544922,-9.738299102783202,2.1156005859375,-3.460448741912842,0.2825312912464142,40.61445617675781,-172.37652587890625,-301.35113525390625
1699734427,2.944227447509766,-2.0842657470703125,-7.734116821289063,2.350243091583252,-3.2206900119781494,-0.1929907649755478,39.486602783203125,-172.8159637451172,-301.7069091796875
1699734427,2.640958099365234,-2.6699977111816406,-6.74677001953125,1.6455621719360352,-0.9830055236816406,-0.7332766056060791,38.86271667480469,-173.5757598876953,-302.4317626953125
1699734427,2.754571838378906,-3.9219941711425785,-9.406588897705078,1.0087335109710691,-0.3506490886211395,-1.0653743743896484,39.057220458984375,-173.70916748046875,-302.03594970703125
1699734427,0.8116122436523437,-4.627028045654297,-8.923543395996095,0.5859518647193909,0.0875341072678566,-1.160372018814087,39.11482238769531,-173.6051788330078,-302.52667236328125
1699734427,-0.6158193969726563,-4.776417388916016,-9.188642120361328,0.1715696305036544,-0.0290391091257333,-1.1122561693191528,39.379791259765625,-173.05406188964844,-302.2962341308594
1699734427,-0.8484356689453125,-4.868925018310547,-10.45860122680664,-0.1525341421365738,-0.359838604927063,-1.0476558208465576,39.37925720214844,-172.7579803466797,-302.2403259277344
1699734427,-0.5701643371582031,-4.4307861328125,-10.026150512695311,-0.4186060428619385,-0.52802973985672,-0.9625995755195618,39.275787353515625,-172.5708465576172,-302.458984375
1699734427,-0.5080435180664062,-4.227808227539063,-9.015152893066409,-0.6451691389083862,-0.6065956354141235,-0.801874577999115,39.16090393066406,-172.10072326660156,-303.19061279296875
1699734427,-0.3721261596679687,-4.704417114257812,-8.643176422119142,-0.8060142397880554,-0.9167604446411132,-0.5824117660522461,38.738861083984375,-171.3920135498047,-303.2247619628906
1699734427,-0.2161505126953125,-5.251828765869141,-8.765921173095704,-1.0130614042282104,-1.5242801904678345,-0.5745176076889038,38.267608642578125,-171.13980102539062,-303.83612060546875
1699734427,0.2643502807617187,-5.216951293945312,-9.159602508544925,-1.1547253131866455,-2.0979650020599365,-0.6364768743515015,37.69235229492188,-170.49838256835938,-304.63739013671875
1699734427,1.1695179748535156,-5.571563873291016,-9.261839904785155,-1.025474190711975,-2.008513927459717,-0.6996774077415466,37.01539611816406,-169.94911193847656,-305.2636108398437
1699734427,1.470392303466797,-5.742358703613282,-8.353977813720704,-0.6428133249282837,-1.362635612487793,-0.8110420107841492,36.417816162109375,-169.7390899658203,-305.81109619140625
1699734427,0.9647438049316408,-5.586532745361328,-7.154671783447266,-0.2276555299758911,-0.4708396792411804,-0.9414868354797364,36.22505187988281,-169.335205078125,-306.0242919921875
1699734427,0.4619393920898437,-6.025869140625001,-7.689958648681641,-0.112130269408226,-0.2450214773416519,-1.0556623935699463,36.186859130859375,-168.99281311035156,-305.9945983886719
1699734427,0.4016148376464843,-6.460565185546876,-9.586215362548828,-0.2464134991168975,-0.3860507607460022,-1.128684639930725,36.36785888671875,-168.7640838623047,-306.16864013671875
1699734427,0.3356021118164062,-6.282734985351563,-9.720186767578124,-0.4885683357715606,-0.0130540169775486,-1.0241049528121948,36.33470153808594,-168.31735229492188,-306.41290283203125
1699734427,0.7899073791503907,-6.307882690429688,-7.940537567138672,-0.8262800574302673,0.768315315246582,-0.3800855576992035,36.52598571777344,-167.44613647460938,-305.8960266113281
1699734427,1.8386265563964843,-6.498436431884766,-8.781039733886718,-1.1655566692352295,1.00802481174469,0.2932710349559784,37.18569946289063,-167.7057647705078,-305.8804931640625
1699734427,0.6608757019042969,-3.513643341064453,-10.386600952148438,-1.4119387865066528,0.9294946193695068,0.6343939900398254,37.76603698730469,-167.23104858398438,-305.539306640625
1699734427,-0.8559201049804688,-1.9616706848144527,-9.539213104248049,-1.365835189819336,1.0448817014694214,0.8207116723060608,37.90657043457031,-166.77639770507812,-305.2255249023437
1699734427,-1.0542576599121094,-2.6146128845214847,-9.85071533203125,-1.0530506372451782,1.014147162437439,0.9317641854286194,38.27287292480469,-166.56687927246094,-305.1611328125
1699734427,-1.31486572265625,-3.2180081176757813,-9.933193817138672,-0.5767839550971985,1.0220152139663696,1.0086954832077026,38.50775146484375,-166.7917938232422,-304.64599609375
1699734427,-0.4343966674804688,-3.380121002197266,-9.4124267578125,-0.1449952721595764,0.9851688146591188,0.9236393570899964,38.70846557617188,-166.68789672851562,-304.145751953125
1699734428,1.1514056396484376,-3.066074066162109,-9.732610931396486,0.138430580496788,0.7836825251579285,0.6683823466300964,39.16914367675781,-167.0792694091797,-304.37939453125
1699734428,2.0648062133789065,-3.3849110412597656,-9.404642944335938,0.2325466871261596,0.2870946228504181,0.3956466615200043,39.45533752441406,-167.56419372558594,-304.0955810546875
1699734428,2.4501049804687502,-3.548670501708985,-8.984466705322266,0.1901627480983734,-0.2908230423927307,0.1442487835884094,39.502777099609375,-167.54299926757812,-304.35986328125
1699734428,1.9308348083496087,-3.557202758789063,-8.454718322753907,0.156585082411766,-0.6619697213172913,0.0284817088395357,39.27700805664063,-167.92691040039062,-304.68017578125
1699734428,0.9644444274902344,-3.9311251831054688,-8.37867645263672,0.1657034754753112,-0.840729296207428,-0.0211628098040819,38.81416320800781,-167.54498291015625,-305.0063171386719
1699734428,0.3597019958496094,-3.5387910461425784,-8.630901947021485,0.1255496740341186,-0.5443536043167114,-0.0333622172474861,38.6826171875,-167.821533203125,-304.8599853515625
1699734428,0.1131646728515625,-3.359913024902344,-8.958570556640625,0.0030882016289979,-0.1184416934847831,-0.0613712146878242,38.858184814453125,-167.82440185546875,-305.0358581542969
1699734428,-0.220341796875,-3.485651550292969,-9.391769714355467,-0.0979385450482368,0.078440748155117,-0.0862624496221542,38.815765380859375,-167.74940490722656,-304.8373107910156
1699734428,-0.0684077453613281,-4.108955383300781,-9.198671264648436,-0.1491213142871856,0.0232757609337568,-0.1631961166858673,38.70323181152344,-167.71478271484375,-305.0050354003906
1699734428,0.4116439819335937,-3.945794677734375,-8.809031524658204,-0.1599198877811432,-0.2095375061035156,-0.2166718542575836,38.85382080078125,-168.07876586914062,-304.9754638671875
1699734428,0.5210664367675781,-4.000580749511719,-8.529263305664063,-0.260308027267456,-0.5046775341033936,-0.2184716165065765,39.11564636230469,-167.3742218017578,-305.47467041015625
1699734428,0.4543052673339844,-4.00971176147461,-8.652756500244141,-0.3948719501495361,-0.6335207223892212,-0.3292069137096405,38.83493041992188,-167.2548828125,-305.29034423828125
1699734428,0.6899153137207031,-3.550616455078125,-8.389154663085938,-0.5030583143234253,-0.4232149124145508,-0.4585987329483032,38.43701171875,-167.15673828125,-305.483642578125
1699734428,0.0860710144042968,-3.240760803222656,-8.951086120605469,-0.5774164795875549,-0.1872306168079376,-0.4622659087181091,38.54060363769531,-166.7730255126953,-306.02850341796875
1699734428,-0.2324665832519531,-3.1198123168945315,-9.482181701660156,-0.5659640431404114,-0.0668743699789047,-0.4139170050621032,38.52311706542969,-166.57577514648438,-305.9086303710937
1699734428,-0.0534388732910156,-2.749033355712891,-9.589658203125,-0.3883655965328216,-0.231412723660469,-0.3732103407382965,38.290069580078125,-166.137451171875,-305.0465393066406
1699734428,-0.1248403930664062,-2.313289489746094,-9.534423065185548,-0.286577433347702,-0.7227417230606079,-0.5261766910552979,38.29484558105469,-165.9215850830078,-305.529296875
1699734428,-0.124541015625,-1.396146697998047,-9.20840103149414,0.0663886070251464,-1.0185704231262207,-0.5224503874778748,38.158447265625,-165.7161865234375,-305.8799743652344
1699734428,0.3805087280273437,-3.6060012817382816,-9.138197021484377,0.2970279455184936,-1.2719377279281616,-0.6344128847122192,37.767486572265625,-165.46026611328125,-306.15924072265625
1699734428,-0.4125421142578125,-2.5882676696777347,-8.709787902832032,0.3116503059864044,-1.4035186767578125,-0.7515235543251038,37.27613830566406,-165.5613250732422,-306.4757385253906
1699734428,-1.2458592224121094,-2.6768833923339845,-8.862470397949219,0.1302440166473388,-1.2309417724609375,-0.6225743293762207,36.544708251953125,-165.55682373046875,-307.0438232421875
1699734428,-0.6134243774414063,-2.03337158203125,-7.499554595947266,-0.4449473619461059,-0.2734493911266327,-0.3866278827190399,36.848876953125,-164.99472045898438,-307.2633361816406
1699734428,-0.7294331359863282,-1.9408639526367188,-8.190368041992189,-0.9815831184387208,-0.0729130879044532,0.3916521966457367,37.098419189453125,-164.7539825439453,-307.03533935546875
1699734428,-1.803749084472656,-4.306993560791016,-9.286987609863282,-1.1393927335739136,0.0610620230436325,1.1291866302490234,37.13221740722656,-164.7816162109375,-307.0574035644531
1699734428,-2.91234375,-2.937790832519531,-8.042625274658203,-1.0116102695465088,-0.106855608522892,1.2586700916290283,36.92584228515625,-164.58172607421875,-307.9919738769531
1699734428,-3.368295593261719,-0.5553451538085937,-7.424111480712891,-0.6261685490608215,-0.4840465784072876,0.8579650521278381,36.95628356933594,-164.68475341796875,-307.77313232421875
1699734428,-2.975512390136719,0.5528004455566407,-6.3512924194335945,-0.0946258381009101,-0.9530912637710572,0.1626951694488525,36.56124877929688,-164.78970336914062,-308.7698059082031
1699734428,-2.5641677856445315,0.4343966674804688,-5.473218383789063,0.5085399150848389,-1.5731017589569092,-0.3160698115825653,36.01947021484375,-164.98681640625,-307.81475830078125
1699734428,-3.3774266052246094,-0.1559756469726562,-4.510270843505859,0.973410964012146,-2.362334489822388,-0.4023778140544891,35.07487487792969,-165.0938262939453,-308.9959716796875
1699734428,-3.617976379394531,-0.0651145935058593,-4.408183135986328,1.1955822706222534,-3.34540057182312,-0.1803537905216217,33.8319091796875,-165.62307739257812,-309.2881164550781
1699734428,-3.730542297363282,0.5885760498046876,-4.223616943359375,1.2735166549682615,-4.149889945983887,0.2113095819950103,32.304718017578125,-166.07582092285156,-310.8604736328125
1699734428,-3.6613861083984376,0.8798703002929688,-2.997366943359375,1.300453782081604,-4.622101306915283,0.6887621879577637,30.61195373535156,-166.967529296875,-311.7948608398437
1699734428,-3.850442962646485,0.8297245788574219,-1.9073336791992188,1.3046379089355469,-4.990943908691406,1.1930873394012451,28.13319396972656,-167.36578369140625,-312.6826171875
1699734428,-3.6374359130859375,1.3663586425781251,-1.371148681640625,1.249487280845642,-5.337431907653809,1.6206262111663818,25.77308654785156,-168.6319122314453,-313.66650390625
1699734428,-4.135300598144531,2.2255718994140627,-1.7833914184570314,1.0865092277526855,-5.258310317993164,1.9165667295455933,22.85200500488281,-169.41465759277344,-315.09967041015625
1699734428,-5.361101531982422,2.6050328063964847,-1.6606466674804687,0.7477410435676575,-4.433146953582764,2.1422955989837646,19.99305725097656,-170.06393432617188,-315.6158142089844
1699734428,-6.334078216552735,2.564766540527344,-1.7875827026367188,0.1300743818283081,-3.3779001235961914,2.32209849357605,17.988479614257812,-170.28311157226562,-316.3369445800781
1699734428,-6.390959930419922,2.658621368408203,-2.947670288085938,-0.8883349299430847,-2.36559534072876,2.3885271549224854,16.433258056640625,-170.72434997558594,-316.52166748046875
1699734428,-6.156996459960938,2.13875244140625,-5.366190948486328,-2.327265501022339,-1.1462838649749756,2.356144666671753,15.317764282226562,-169.7634735107422,-316.8321838378906
1699734428,-6.768474884033203,1.8247055053710937,-7.479196929931641,-3.926573276519776,0.1064121946692466,2.1484830379486084,14.88653564453125,-167.95111083984375,-317.3022766113281
1699734428,-6.90005126953125,2.1441412353515625,-9.569450225830078,-5.376706123352051,1.1457635164260864,1.6936607360839844,15.00537109375,-166.00967407226562,-316.60369873046875
1699734428,-6.6930317687988286,2.3463706970214844,-12.038715362548828,-6.409868717193604,1.6524877548217771,1.1498267650604248,15.310134887695312,-163.42893981933594,-317.3940734863281
1699734428,-6.760990447998047,2.355651397705078,-14.847025451660157,-6.891421318054199,1.5274240970611572,0.6982611417770386,15.549453735351562,-160.1531219482422,-317.4658203125
1699734428,-7.618706817626953,2.065255279541016,-17.733772430419922,-6.8551201820373535,1.1868762969970703,0.4687496423721313,15.924942016601562,-156.68954467773438,-316.8717956542969
1699734428,-6.643185424804688,2.122286682128906,-15.785424041748048,-5.756331443786621,1.7971549034118652,0.3383927047252655,16.155517578125,-153.9015655517578,-316.6571655273437
1699734428,-5.873336334228516,2.352957000732422,-11.847562866210938,-4.214650630950928,1.968706130981445,0.2638678550720215,16.901992797851562,-151.49490356445312,-315.57818603515625
1699734428,-6.42104736328125,4.363426208496094,-11.198213195800784,-2.691658973693848,1.572451949119568,0.0895570442080497,17.416717529296875,-150.0040283203125,-315.9050598144531
1699734428,-5.064568176269532,5.464087371826172,-11.032956848144533,-1.4946269989013672,0.4875749945640564,0.034157171845436,17.574874877929688,-149.0190887451172,-315.0647277832031
1699734428,-4.633913726806641,4.356690216064453,-11.146570587158203,-0.7094959616661072,-0.7723566293716431,0.1176432743668556,17.2879638671875,-148.5733642578125,-315.22039794921875
1699734428,-3.7844302368164064,3.3811688232421875,-9.468110961914062,-0.3098609149456024,-2.075143575668335,0.2296545058488845,16.5723876953125,-148.63829040527344,-315.3365478515625
1699734428,-3.502716064453125,2.800675964355469,-8.747359771728515,-0.1367826163768768,-3.331915140151977,0.3723562657833099,14.811965942382812,-148.15640258789062,-315.67254638671875
1699734428,-3.726351013183594,2.3281086730957035,-7.90161849975586,-0.07601860165596,-4.458832740783691,0.617098867893219,12.78271484375,-148.1823272705078,-315.83026123046875
1699734428,-3.7170703125,2.039658508300781,-6.899751892089844,-0.1762362867593765,-5.441265106201172,1.0404168367385864,9.861190795898438,-147.8780975341797,-315.6661682128906
1699734428,-3.993096313476563,2.388882293701172,-7.098388824462891,-0.4711810946464538,-6.2996745109558105,1.5005674362182615,6.685882568359375,-147.98306274414062,-315.3701171875
1699734428,-3.895199890136719,3.3724868774414065,-7.585625610351562,-0.8737831711769104,-6.837671756744385,1.985448122024536,3.26531982421875,-147.55239868164062,-315.56744384765625
1699734428,-3.913012847900391,3.982468414306641,-7.869435424804688,-1.2982231378555298,-7.081671714782715,2.483933210372925,0.0723419189453125,-146.5955352783203,-314.6102905273437
1699734428,-3.713028717041016,4.162693634033204,-8.788075103759766,-1.6376280784606934,-6.9940361976623535,2.9318363666534424,-3.146942138671875,-145.3917694091797,-313.46783447265625
1699734428,-4.060755615234375,4.290677490234375,-9.421707458496094,-1.7502411603927612,-6.890483856201172,3.2954890727996826,-6.41650390625,-144.0900115966797,-311.949462890625
1699734428,-4.68031723022461,4.539609832763672,-9.648186492919924,-1.6005795001983645,-6.932842254638672,3.43674373626709,-8.924697875976562,-142.93067932128906,-310.4891967773437
1699734428,-5.083728332519532,4.891378326416016,-9.543404388427737,-1.2074402570724487,-7.041143417358398,3.447493076324463,-11.806411743164062,-141.5005340576172,-308.6217041015625
1699734428,-5.98560287475586,4.957391052246094,-8.734336853027344,-0.6128929853439331,-7.0800065994262695,3.4864706993103027,-14.1495361328125,-140.59115600585938,-307.15777587890625
1699734428,-7.223678283691407,4.743336181640625,-8.164771270751954,0.0410606190562248,-7.038220405578613,3.591918468475342,-16.3642578125,-139.09344482421875,-305.3350830078125
1699734428,-8.574169921875,4.473148040771485,-7.731422424316406,0.6887323260307312,-6.897392272949219,3.706931591033936,-18.366180419921875,-138.55145263671875,-303.07586669921875
1699734428,-9.772877197265624,4.542753295898438,-7.350614318847657,1.1996911764144895,-6.593267917633057,3.774462938308716,-20.084030151367188,-137.5030975341797,-301.5345458984375
1699734428,-10.976224822998049,4.71100341796875,-7.239844665527344,1.5281412601470947,-6.112807750701904,3.7855544090271,-21.683746337890625,-136.7488555908203,-299.5931701660156
1699734428,-12.038565673828126,4.566104736328125,-7.070995788574219,1.6824381351470947,-5.635864734649658,3.73664140701294,-22.48448181152344,-135.92591857910156,-297.9610290527344
1699734428,-12.99582504272461,4.286186828613282,-7.210355987548828,1.69338858127594,-5.1274237632751465,3.5558767318725586,-23.57257080078125,-135.145263671875,-297.09637451171875
1699734428,-14.307397613525392,4.31627426147461,-7.344177703857422,1.6139591932296753,-4.326866149902344,3.1422383785247803,-23.708999633789062,-134.82167053222656,-295.581298828125
1699734428,-15.145055694580078,4.427193603515625,-6.903793487548828,1.5648342370986938,-3.2560174465179443,2.544456720352173,-24.176315307617188,-134.0990753173828,-294.651611328125
1699734428,-15.51688247680664,4.378245391845703,-6.418951721191407,1.5948984622955322,-2.2639753818511963,1.9509668350219729,-24.2384033203125,-133.7151641845703,-294.6031494140625
1699734428,-16.333434448242187,3.868255920410157,-6.324049072265625,1.710136651992798,-1.3906502723693848,1.5124744176864624,-24.54119873046875,-133.7387237548828,-294.27752685546875
1699734428,-16.826509094238283,3.6190242004394535,-5.502707061767579,1.8751990795135496,-0.5786700248718262,1.1686856746673584,-24.144699096679688,-133.7769775390625,-295.25836181640625
1699734428,-16.60841262817383,4.016298065185547,-4.613855438232422,2.0637874603271484,-0.0140811977908015,0.8411865830421448,-23.698638916015625,-134.18565368652344,-294.9084167480469
1699734428,-16.710350646972657,4.619693298339844,-4.143084411621094,2.217710018157959,0.4187599718570709,0.4780224859714508,-23.30073547363281,-134.9612274169922,-296.33935546875
1699734428,-16.74926971435547,4.934039611816407,-3.802093505859375,2.266979217529297,0.9027314186096193,0.0821257606148719,-23.38134765625,-135.1660614013672,-297.10205078125
1699734428,-16.566050720214843,5.187911682128907,-3.581602020263672,2.2358202934265137,1.4810410737991333,-0.3882364332675934,-23.23814392089844,-136.17254638671875,-298.2649230957031
1699734428,-16.548836517333985,5.913602600097657,-3.3617092895507814,2.2450947761535645,1.9608641862869265,-0.9434144496917723,-23.037826538085938,-137.2586669921875,-299.643310546875
1699734428,-15.49817138671875,7.182962951660157,-2.6997857666015626,2.470409393310547,2.410496950149536,-1.5396349430084229,-22.7919921875,-138.5637969970703,-301.34405517578125
1699734428,-14.713503112792967,7.880512390136719,-0.0767903137207031,2.7397923469543457,2.5295565128326416,-1.737185001373291,-21.9049072265625,-140.20338439941406,-303.263916015625
1699734428,-13.496533813476564,8.817114715576173,2.182760925292969,2.2960972785949707,2.6426267623901367,-1.5600097179412842,-21.38783264160156,-141.9318389892578,-303.7821044921875
1699734428,-9.745484161376952,10.943592681884766,5.586083679199219,-0.5956354141235352,2.4898178577423096,-0.90145605802536,-20.34490966796875,-142.49351501464844,-304.42974853515625
1699734428,-6.806944885253906,10.905721435546877,6.88613021850586,-1.6930718421936035,1.0672223567962646,-0.5477094054222107,-20.08050537109375,-142.37911987304688,-305.3742980957031
1699734428,-6.894063720703126,10.809770965576172,7.886050872802735,-0.6836837530136108,-0.0815585106611251,-0.5434496998786926,-19.520263671875,-142.2703857421875,-305.718994140625
1699734428,-6.516249389648438,10.388397216796877,10.88341781616211,1.394224762916565,-0.905201494693756,-0.4690234065055847,-19.965789794921875,-142.51353454589844,-305.7750244140625
1699734428,-7.078929290771485,8.29919174194336,9.91627899169922,2.8109617233276367,-1.715887188911438,-0.2985709905624389,-20.76502990722656,-143.66427612304688,-305.6669311523437
1699734428,-8.244705047607422,8.987610168457032,3.970343627929688,3.29233980178833,-2.428242921829224,-0.2631080746650696,-21.638473510742188,-145.00758361816406,-305.7821350097656
1699734428,-8.91950180053711,8.112978973388673,0.9324110412597656,3.628063917160034,-2.781241178512573,-0.0122377574443817,-22.135513305664062,-146.50904846191406,-305.5242919921875
1699734428,-11.219918060302737,5.874084777832032,-2.2144949340820315,3.8405394554138175,-2.916700839996338,0.1119204089045524,-23.687820434570312,-147.947509765625,-304.6781616210937
1699734428,-11.166179809570313,3.9652542114257816,-4.633015594482422,3.8868093490600586,-2.9067647457122803,-0.1233243346214294,-24.541091918945312,-149.7779998779297,-304.6998596191406
1699734428,-12.092603302001956,2.218536529541016,-5.37966293334961,3.8595199584960938,-2.730994939804077,-0.6045721769332886,-25.545913696289062,-151.4238739013672,-304.4923095703125
1699734428,-11.772419128417967,-0.0510438537597656,-5.594765625,3.4407267570495605,-2.7795498371124268,-1.098413109779358,-26.530441284179688,-152.92776489257812,-303.5931396484375
1699734428,-11.423644409179689,-2.0911514282226564,-4.907694396972657,2.4353296756744385,-2.597665786743164,-1.527665615081787,-27.608184814453125,-154.5411376953125,-302.9712829589844
1699734428,-9.572743377685548,-2.685116271972656,-3.700454864501953,1.1534854173660278,-2.14125394821167,-1.7804172039031982,-28.384765625,-156.07876586914062,-301.8145751953125
1699734428,-7.555388488769531,-3.038980407714844,-1.979034576416016,0.4283018112182617,-2.1067440509796143,-1.862244725227356,-29.285125732421875,-157.27088928222656,-301.15997314453125
1699734428,-5.890251159667969,-1.357676696777344,0.2495310974121093,0.4540109038352966,-2.506845712661743,-2.208059787750244,-30.008758544921875,-158.1463623046875,-300.15576171875
1699734428,-4.305197296142579,-0.0297880554199218,1.6137940979003906,0.59690922498703,-3.0465965270996094,-2.453178882598877,-31.32139587402344,-159.113037109375,-299.3630676269531
1699734428,-3.681743774414063,-0.1487905883789062,1.280437316894531,0.4038382768630981,-3.6568453311920166,-2.5092451572418213,-31.960723876953125,-160.7008514404297,-298.24151611328125
1699734428,-3.686084747314453,-1.331630859375,0.6580316162109375,0.1729581952095031,-4.161197662353516,-2.244962692260742,-33.41560363769531,-161.9661407470703,-296.833740234375
1699734428,-4.274660797119141,-0.2871029663085938,0.1802252197265625,0.044342964887619,-4.174790382385254,-2.276139259338379,-34.430999755859375,-162.57015991210938,-294.6402587890625
1699734429,-5.146597595214844,0.7747888183593751,0.7888595581054688,-0.1239837333559989,-4.055492877960205,-2.3819005489349365,-35.30622863769531,-163.96519470214844,-293.0820617675781
1699734429,-5.720953216552735,-0.0169148254394531,0.2805166625976563,-0.092078261077404,-3.692947626113892,-2.271252155303955,-36.39678955078125,-165.04307556152344,-291.26812744140625
1699734429,-6.227499847412109,1.69806884765625,-0.2128573608398437,0.0497981831431388,-2.826916456222534,-1.6154264211654663,-37.05682373046875,-166.22305297851562,-290.3459777832031
1699734429,-5.375920715332032,4.307592315673828,-1.4132112121582032,-0.0807704776525497,-2.4943206310272217,-1.0806330442428589,-37.85151672363281,-166.82191467285156,-288.6595458984375
1699734429,-4.814588012695313,4.092789001464844,-2.084415435791016,-0.2192692309617996,-2.508999347686768,-1.0522266626358032,-38.49896240234375,-167.153564453125,-287.61090087890625
1699734429,-5.319637756347657,3.052153015136719,-0.3050656127929688,-0.4662308096885681,-2.7617056369781494,-1.4084081649780271,-39.00286865234375,-167.58932495117188,-286.2758178710937
1699734429,-6.375242614746094,1.317111053466797,1.0289602661132813,-0.2857800722122192,-2.288894891738892,-1.3748699426651,-39.64268493652344,-168.37583923339844,-284.9857177734375
1699734429,-7.478598175048829,0.6168672180175782,3.877686309814453,-0.6566524505615234,-1.5614120960235596,-1.0477179288864136,-39.76142883300781,-168.96688842773438,-284.471923828125
1699734429,-7.5926609802246094,0.0360749816894531,-0.5263055419921875,-0.9381043314933776,-1.1342823505401611,-0.9486427307128906,-39.91136169433594,-169.05911254882812,-283.2080383300781
1699734429,-7.640711059570313,0.2549198913574219,1.260977783203125,-1.5753114223480225,-0.953696608543396,-0.5865516662597656,-40.21406555175781,-169.34422302246094,-283.3726806640625
1699734429,-9.676028594970704,-7.6402619934082034,2.78106674194336,-0.952043354511261,-0.5583599209785461,-0.5132342576980591,-40.54107666015625,-169.34255981445312,-283.6891784667969
1699734429,-10.61996566772461,-1.82021484375,4.474794616699219,-0.5083205103874207,-0.4508976638317108,-0.8560765981674194,-40.467529296875,-170.07015991210938,-283.89324951171875
1699734429,-10.316696319580078,-1.9507434082031248,0.1019380187988281,0.2538735568523407,-0.5493419766426086,-1.0411969423294067,-40.4464111328125,-170.5109405517578,-283.03253173828125
1699734429,-11.085497589111329,-1.7405804443359376,1.6307089233398435,0.8127951622009277,-0.6018089056015015,-1.1258680820465088,-40.61470031738281,-171.46141052246094,-283.1171264648437
1699734429,-10.7727978515625,-1.3645623779296876,1.845063171386719,0.7618081569671631,-0.6400460004806519,-1.3189706802368164,-40.83256530761719,-171.85829162597656,-282.5546875
1699734429,-10.669063568115234,-1.2822335815429688,2.993624725341797,0.4288139343261719,-0.6861815452575684,-1.5481562614440918,-40.72929382324219,-172.9623260498047,-282.65155029296875
1699734429,-10.994486846923827,-0.8677455139160156,5.011877746582032,0.0368922390043735,-0.7109953165054321,-1.582057237625122,-40.58436584472656,-173.7798614501953,-282.3970947265625
1699734429,-11.264674987792969,0.3495231628417969,5.671106872558594,-0.4107052385807037,-0.6594394445419312,-1.321130871772766,-40.438507080078125,-174.70870971679688,-282.04278564453125
1699734429,-10.8877587890625,2.625989227294922,5.691165161132813,-0.6849485039710999,-0.3804783523082733,-0.7615228891372681,-40.6204833984375,-174.99327087402344,-281.3813781738281
1699734429,-10.693163452148438,4.37614974975586,5.209466857910156,-0.7821291089057922,0.1536588072776794,-0.0001845570659497,-40.6856689453125,-175.66842651367188,-282.00457763671875
1699734429,-10.83222427368164,6.061345367431641,3.84924545288086,-1.072481632232666,1.2205370664596558,0.8477970957756042,-40.68768310546875,-175.659912109375,-282.27154541015625
1699734429,-10.673404541015625,4.295916595458984,3.047812042236328,-1.6254582405090332,0.9620379209518432,2.262135028839112,-40.65614318847656,-174.51304626464844,-282.92437744140625
1699734429,-10.453811187744142,0.3875440979003906,-3.234174499511719,-1.33095383644104,0.9490142464637756,3.077178955078125,-40.78919982910156,-172.9212646484375,-283.8625793457031
1699734429,-9.397906951904298,5.944288787841797,-1.4087205505371094,-0.1725288927555084,1.4870284795761108,3.4061594009399414,-41.26185607910156,-171.26988220214844,-284.0907592773437
1699734429,-12.731474761962891,7.774981842041016,-0.9126521301269532,0.7702506184577942,1.9114841222763064,3.09073805809021,-41.25436401367188,-169.51730346679688,-285.5194091796875
1699734429,-10.28316604614258,10.387499084472656,-3.003204803466797,1.532753586769104,1.6848200559616089,2.846278429031372,-41.11393737792969,-168.62213134765625,-285.8938293457031
1699734429,-8.075856170654298,9.303303680419925,-2.370470581054688,2.0625433921813965,1.7743539810180664,3.21705174446106,-41.02545166015625,-167.29107666015625,-286.8407287597656
1699734429,-9.673633575439451,5.219645690917969,0.1727407836914062,2.2461180686950684,2.606930017471313,3.948787927627564,-40.84269714355469,-165.84469604492188,-288.4012145996094
1699734429,-8.741072845458985,4.983287200927735,1.6630416870117188,1.9415589570999143,3.398073196411133,4.585578918457031,-40.44132995605469,-164.5060272216797,-288.6192626953125
1699734429,-9.293873291015624,6.531966705322266,2.106269989013672,1.115078091621399,3.9679434299468994,4.3157267570495605,-39.74482727050781,-162.6663055419922,-291.2395324707031
1699734429,-10.191556549072263,9.857301635742187,0.0999920654296875,-0.5251732468605042,2.3735673427581787,3.5221879482269287,-38.72723388671875,-160.7345428466797,-292.57305908203125
1699734429,-10.642868041992188,10.596763916015624,-3.47562240600586,-2.1448209285736084,0.3719333410263061,2.912517547607422,-38.16226196289063,-158.4610137939453,-293.09136962890625
1699734429,-9.420659637451172,5.984105987548828,-2.550396423339844,-3.1762068271636963,-0.7642348408699036,2.912929058074951,-38.31620788574219,-156.26522827148438,-292.8509521484375
1699734429,-12.056079254150392,3.737128601074219,-2.993025970458985,-3.9378409385681152,-2.584160804748535,3.99523401260376,-38.29402160644531,-153.91326904296875,-291.6046447753906
1699734429,-13.281131744384766,1.4109658813476562,-6.163732452392578,-4.041379928588867,-4.772215843200684,5.101655006408691,-39.12519836425781,-150.53004455566406,-289.2783203125
1699734429,-10.312355346679688,2.119442596435547,-3.2452514648437503,-3.822412490844727,-5.305334091186523,6.015753746032715,-38.90266418457031,-147.50411987304688,-286.4449768066406
1699734429,-7.383994903564454,1.3942007446289064,-1.5724800109863282,-3.3094003200531006,-5.911796569824219,6.356839656829834,-38.609893798828125,-143.95408630371094,-283.04718017578125
1699734429,-5.563181304931641,0.737666015625,-0.0965492248535156,-2.320833921432495,-6.20721960067749,6.273708820343018,-38.19427490234375,-140.60552978515625,-279.7728576660156
1699734429,-4.884043579101562,2.3429278564453124,1.7208215332031251,-1.2837765216827393,-6.620943546295166,5.811147212982178,-37.49176025390625,-137.55648803710938,-276.0892944335937
1699734429,-3.6679724121093753,4.037553863525391,4.750072174072266,-0.0820485278964042,-6.004051685333252,5.184680938720703,-36.30128479003906,-134.6014862060547,-272.6732788085937
1699734429,-2.5234524536132814,5.599106597900391,11.856544189453125,1.1002130508422852,-3.804943323135376,4.32343864440918,-34.98130798339844,-132.43698120117188,-270.29888916015625
1699734429,-1.292113037109375,7.375462646484375,18.58370498657227,1.9796134233474727,-1.2842332124710083,3.2816579341888428,-33.58305358886719,-130.95021057128906,-269.6327514648437
1699734429,-0.7545808410644531,7.922874298095704,17.091458129882813,2.4893150329589844,-0.2589450180530548,2.358083963394165,-33.146942138671875,-129.86102294921875,-269.9522705078125
1699734429,-2.060914306640625,7.717501373291016,11.133397979736328,2.790800809860229,-0.3392212092876434,1.8192564249038696,-32.02354431152344,-128.97161865234375,-271.17486572265625
1699734429,-4.436474304199219,7.799530792236329,7.190896453857422,2.938616991043091,-0.3072350323200226,1.724411964416504,-31.495895385742188,-128.3324737548828,-271.7767944335937
1699734429,-6.635850677490235,7.540569305419922,4.558919677734376,2.893432140350342,-0.4455199539661407,1.873469948768616,-30.64936828613281,-127.9506378173828,-272.548828125
1699734429,-7.310497741699219,6.679410095214844,2.253414001464844,2.6704294681549072,-0.4578211009502411,2.086329460144043,-30.35096740722656,-127.27473449707033,-273.2098388671875
1699734429,-7.769443359375001,5.480403442382813,1.3139675903320314,2.2706058025360107,-0.3785433173179626,2.376070499420166,-29.21186828613281,-126.8167724609375,-274.4445495605469
1699734429,-8.45965805053711,4.763394470214844,0.5441184997558594,1.7596200704574585,-0.2675728499889374,2.664834976196289,-28.28260803222656,-125.7223663330078,-275.4218139648437
1699734429,-8.167615356445314,4.298161926269532,0.2377056884765625,1.258988380432129,-0.1522369384765625,2.828497886657715,-27.218795776367188,-124.77774047851562,-275.4775390625
1699734429,-7.3938743591308596,4.075275421142578,0.3447331237792969,0.8057764172554016,0.0135134123265743,2.777355670928955,-26.184860229492188,-124.20440673828124,-276.1844482421875
1699734429,-6.186485137939454,4.548142089843751,0.6941065979003906,0.4458211660385132,0.4249206781387329,2.5406415462493896,-25.14959716796875,-123.37820434570312,-276.35955810546875
1699734429,-6.514602813720703,4.28034896850586,2.1366567993164063,0.4111760854721069,0.6086881160736084,2.418431282043457,-24.143585205078125,-122.45541381835938,-276.0519714355469
1699734429,-8.449778594970704,1.908680877685547,3.1754965209960937,0.5675638318061829,0.3597858846187591,2.691558837890625,-23.00068664550781,-121.56988525390624,-277.0665283203125
1699734429,-8.343649291992188,0.3356021118164062,1.7485139465332031,0.6920450329780579,-0.3329116404056549,3.0828564167022705,-22.21197509765625,-120.72372436523438,-277.1189270019531
1699734429,-6.5288232421875,0.4242178344726562,-0.1971400451660156,0.8382962346076965,-1.7001572847366333,3.424638509750366,-20.788589477539062,-119.88661193847656,-277.46307373046875
1699734429,-5.726342010498048,0.5023553466796875,-0.678988037109375,1.0326167345046997,-3.211005449295044,3.807706117630005,-19.916091918945312,-118.8488311767578,-276.46881103515625
1699734429,-5.2647019958496095,0.5083428955078125,-0.4480183410644531,1.270185112953186,-4.497975826263428,4.1886067390441895,-18.336090087890625,-117.8610382080078,-275.8480834960937
1699734429,-2.6673033142089846,0.9035211181640626,-0.2134561157226562,1.490621566772461,-5.358232498168945,4.32099723815918,-16.976486206054688,-116.84591674804688,-275.45123291015625
1699734429,0.1348695373535156,1.3271401977539063,-0.1088236999511718,1.6506879329681396,-5.798251152038574,4.268131732940674,-15.839599609375,-116.02626037597656,-274.3760986328125
1699734429,0.5381309509277344,2.552641754150391,0.2671943664550781,1.6548908948898315,-6.035592079162598,4.276128768920898,-14.021011352539062,-114.73678588867188,-273.72967529296875
1699734429,0.6179150390625,5.120252380371094,-0.0199085998535156,1.5543015003204346,-6.252795219421387,4.413261890411377,-12.490737915039062,-113.60430908203124,-273.3501892089844
1699734429,1.2090357971191408,9.854756927490234,-0.7396119689941406,1.4169002771377563,-6.466802597045898,4.93131685256958,-10.746871948242188,-112.90884399414062,-273.0654602050781
1699734429,1.740131378173828,14.202765197753909,-2.47450424194336,1.2478365898132324,-6.332347869873047,5.463656902313232,-8.946273803710938,-111.79904174804688,-272.2993469238281
1699734429,4.795427856445313,20.93187194824219,-3.151995391845704,0.8410246968269348,-5.0500664710998535,5.264267444610596,-6.2136993408203125,-111.04612731933594,-272.0458984375
1699734429,9.729916534423827,27.18751327514649,-3.406915283203125,-0.1617588102817535,-2.936363220214844,4.334983348846436,-3.614654541015625,-110.17506408691406,-271.5235595703125
1699734429,14.02613250732422,29.153674621582034,-5.481750640869141,-1.4393583536148071,-0.8008918762207031,2.800122022628784,-2.04852294921875,-109.7012939453125,-271.3564147949219
1699734429,15.991695098876956,26.58456710815429,-6.785689086914063,-2.410520076751709,0.8144849538803101,1.0584208965301514,-0.9523162841796876,-109.70205688476562,-269.7704467773437
1699734429,14.865886230468751,20.29704208374024,-5.493276672363281,-2.759897232055664,2.1064445972442627,-0.3300127983093261,-1.011688232421875,-109.73382568359376,-268.0806884765625
1699734429,11.79352523803711,13.70714584350586,-2.94392807006836,-2.590827703475952,3.093003749847412,-1.2162445783615112,-1.46527099609375,-109.52662658691406,-267.1871337890625
1699734429,8.498876495361328,9.44206512451172,-1.2376263427734375,-2.190946102142334,3.656868696212769,-1.6874356269836426,-2.978378295898437,-109.4255828857422,-266.180419921875
1699734429,6.323749694824219,6.673572235107423,-0.3953279113769531,-1.784017562866211,3.9720633029937744,-1.8735591173172,-3.5980224609375,-109.9326171875,-265.23248291015625
1699734429,5.236710205078126,4.589755554199219,1.3013937377929687,-1.3351342678070068,4.5639824867248535,-1.8196409940719604,-4.6062774658203125,-109.82786560058594,-264.766845703125
1699734429,5.367837524414063,2.6203010559082034,6.504723358154298,-0.4682457745075226,5.03663969039917,-1.6649200916290283,-5.6423187255859375,-110.21353149414062,-264.9940490722656
1699734429,6.158343658447266,1.6130456542968752,10.484946441650392,0.8584483861923218,4.121286392211914,-1.5318952798843384,-6.6024932861328125,-110.52052307128906,-266.13629150390625
1699734429,6.017486572265625,2.039658508300781,9.303303680419925,1.7193362712860107,2.716619968414306,-1.2558895349502563,-7.1771087646484375,-110.5068359375,-267.4051513671875
1699734429,4.418361968994141,3.750001831054688,6.112987976074219,1.8356817960739136,1.5137556791305542,-0.9157135486602784,-7.858856201171875,-110.51768493652344,-268.346435546875
1699734429,3.463048553466797,5.97362777709961,3.611090698242188,1.2576743364334106,0.6071722507476807,-0.7081148028373718,-8.489654541015625,-110.84024047851562,-269.6011047363281
1699734429,3.1798374938964846,7.491172027587891,1.0605445861816407,0.4298693537712097,-0.2004561275243759,-0.6760676503181458,-8.559722900390625,-111.16633605957033,-269.86883544921875
1699734429,2.912493438720704,8.064180450439453,-0.5026547241210938,-0.3188642561435699,-0.793055534362793,-0.7326958179473877,-8.996871948242188,-111.54937744140624,-270.0624694824219
1699734429,2.6664051818847656,8.325237579345703,-0.4414320373535156,-0.8096667528152466,-1.0285687446594238,-0.8049798607826233,-9.442977905273438,-111.49722290039062,-269.4039306640625
1699734429,2.175875244140625,8.606352996826173,0.6092330932617188,-0.9730745553970336,-0.8502399921417236,-0.831161379814148,-9.9578857421875,-111.38858032226562,-268.6229248046875
1699734429,1.6334033203125,9.0961344909668,2.1978794860839845,-0.7978599071502686,-0.2993403673171997,-0.8066834807395935,-10.369537353515623,-111.79669189453124,-268.23931884765625
1699734429,1.2352313232421877,9.849517822265623,3.579057312011719,-0.3717418611049652,0.374746173620224,-0.7982316613197327,-10.698074340820312,-111.79502868652344,-267.26495361328125
1699734429,0.8678952026367188,10.436596984863282,4.212989044189453,0.1362433284521103,1.0069667100906372,-0.7621056437492371,-11.21722412109375,-111.98886108398438,-267.3092346191406
1699734429,0.5394781494140626,10.644215240478516,4.114194488525391,0.5612196326255798,1.4101232290267944,-0.6867533326148987,-11.588485717773438,-112.13055419921876,-267.8963623046875
1699734429,0.1817221069335937,10.35890853881836,3.6058515930175785,0.7994140982627869,1.5641334056854248,-0.5471237897872925,-12.247604370117188,-112.31706237792967,-268.3757019042969
1699734429,-0.1004411315917968,9.740694122314451,3.017724609375,0.7897092700004578,1.4898335933685305,-0.3920314311981201,-11.9324951171875,-112.19931030273438,-269.5296630859375
1699734429,-0.2501298522949219,9.0578141784668,2.366279296875,0.6062414646148682,1.275214433670044,-0.2607061564922333,-12.464263916015623,-112.35408020019533,-269.7631225585937
1699734429,-0.3224295043945313,8.583001556396486,1.9953506469726563,0.3546241223812103,0.9608280062675476,-0.1619849056005478,-12.6591796875,-112.2500457763672,-270.8656005859375
1699734429,-0.350870361328125,8.345445556640625,2.1044737243652345,0.1526484042406082,0.5983819365501404,-0.1029775142669677,-12.640594482421877,-112.47801208496094,-271.1385498046875
1699734429,-0.2409988403320312,8.145461425781251,2.6696983337402345,0.0667984709143638,0.2462180256843567,-0.08127062022686,-12.85986328125,-112.36843872070312,-270.59161376953125
1699734429,0.1486408996582031,8.180787963867187,3.269950103759766,0.072449967265129,0.0027760791126638,-0.1056009978055954,-12.6199951171875,-112.2836456298828,-270.6942138671875
1699734429,0.5057981872558595,8.314310302734375,3.646566925048828,0.0953616723418235,-0.051092479377985,-0.1266855001449585,-12.7757568359375,-112.22987365722656,-270.7968139648437
1699734429,0.6997947692871094,8.386759643554688,3.7080889892578126,0.0990562736988067,0.0545095801353454,-0.1248615086078643,-13.067581176757812,-112.42324829101562,-270.74755859375
1699734429,0.8180488586425781,8.391399993896485,3.5895355224609378,0.0850946530699729,0.2244323045015335,-0.1224441528320312,-13.055526733398438,-112.47135925292967,-270.8441467285156
1699734429,0.9014254760742187,8.33751205444336,3.4757720947265627,0.0817294865846633,0.3876436054706573,-0.1215027272701263,-12.91790771484375,-112.18482971191406,-270.99627685546875
1699734429,0.9779164123535156,8.330776062011719,3.449576568603516,0.1225738525390625,0.4968190789222717,-0.1143311038613319,-13.038223266601562,-112.82052612304688,-271.132568359375
1699734429,1.1011102294921875,8.511300659179687,3.5223252868652346,0.1864077001810073,0.5437365174293518,-0.1083216816186904,-13.385086059570312,-112.85145568847656,-271.3345947265625
1699734429,1.2157717895507814,8.752748565673828,3.636986846923828,0.2714304327964782,0.5037339925765991,-0.0798258557915687,-13.520339965820312,-112.92082214355467,-271.4247741699219
1699734430,1.153052215576172,8.940009155273438,3.680995330810547,0.3420705199241638,0.4182755351066589,-0.0285954251885414,-13.552352905273438,-112.2745361328125,-271.4691162109375
1699734430,0.9187893676757812,9.133406982421876,3.669469299316407,0.3689077198505401,0.3240039050579071,0.0261988472193479,-13.506805419921877,-112.5720672607422,-271.69403076171875
1699734430,0.6292913818359376,9.328601074218753,3.597469024658204,0.3401589095592499,0.248450830578804,0.0652517080307006,-13.562301635742188,-112.46533203125,-271.814208984375
1699734430,0.4028123474121094,9.503736877441408,3.4916390991210937,0.2812801301479339,0.1877179741859436,0.0699670985341072,-13.311264038085938,-112.8686065673828,-272.34014892578125
1699734430,0.1962419128417968,9.593101043701171,3.61932357788086,0.2231718301773071,0.1662731319665908,0.0634074658155441,-13.142303466796877,-112.40792846679688,-271.853515625
1699734430,0.0224533081054687,9.519304504394531,4.014950866699219,0.1961487382650375,0.1852060705423355,0.0382168926298618,-13.279983520507812,-112.71987915039062,-272.24151611328125
1699734430,-0.1239422607421875,9.386530609130862,4.510719909667969,0.2038532644510269,0.2157338857650756,0.0056030247360467,-13.150039672851562,-112.75611877441406,-272.3057556152344
1699734430,-0.2794688415527344,9.226812744140624,4.7961763000488284,0.2445977628231048,0.228296548128128,-0.034605648368597,-13.38372802734375,-112.86558532714844,-272.4114074707031
1699734430,-0.3847000122070312,9.112151184082032,4.800666961669922,0.3116127550601959,0.1892002820968628,-0.0661561191082,-13.505706787109377,-113.04263305664062,-272.2359619140625
1699734430,-0.3653901672363281,9.117989044189452,4.540058898925781,0.3979966342449188,0.1098759025335311,-0.0866177156567573,-13.58734130859375,-112.9841766357422,-272.67071533203125
1699734430,-0.123343505859375,9.308243408203126,4.204756164550782,0.5431320071220398,0.033610425889492,-0.1033189296722412,-13.744461059570312,-112.98304748535156,-272.9150390625
1699734430,0.4537065124511719,9.728868713378906,4.087400207519531,0.7006731629371643,-0.0466628447175025,-0.1620879769325256,-13.564987182617188,-113.20071411132812,-273.2011108398437
1699734430,0.8821156311035157,10.494227142333983,3.687731323242188,0.8261770009994507,-0.1102703139185905,-0.2415692210197448,-14.129440307617188,-113.25262451171876,-273.2247009277344
1699734430,1.1265573120117187,11.198362884521485,3.219804382324219,0.8906928896903992,-0.170555755496025,-0.3442809581756592,-13.812149047851562,-113.55807495117188,-273.6131286621094
1699734430,1.2832814025878907,11.929143218994142,2.4794439697265624,0.8784974813461304,-0.3016663789749145,-0.4415305256843567,-14.18408203125,-113.6343994140625,-274.1602783203125
1699734430,1.3412109375,12.563524017333984,1.47772705078125,0.7828708291053772,-0.473488986492157,-0.4958976209163666,-14.799148559570312,-114.12269592285156,-274.54901123046875
1699734430,1.2314891052246095,12.89568328857422,0.6185137939453126,0.5992572903633118,-0.5853127241134644,-0.4686343371868133,-15.04345703125,-114.120849609375,-274.4398498535156
1699734430,1.3404624938964844,13.410013732910157,0.5189707946777344,0.3475470542907715,-0.4266996681690216,-0.3991777598857879,-15.302627563476562,-114.69618225097656,-274.7745666503906
1699734430,2.0219952392578127,14.301709442138671,1.6940272521972657,0.0814336091279983,0.0952077433466911,-0.3279888033866882,-15.697097778320312,-114.66921997070312,-274.97314453125
1699734430,2.6264382934570314,14.483730926513672,3.1379246520996094,-0.0516362972557544,0.6875048875808716,-0.2819637656211853,-15.825820922851562,-115.17752075195312,-274.6767578125
1699734430,2.5394691467285155,13.103301544189454,3.521127777099609,0.0209239237010478,0.9441739320755004,-0.2536972463130951,-16.024948120117188,-114.84187316894533,-274.9210205078125
1699734430,1.84656005859375,10.799442443847656,2.782863006591797,0.2099500298500061,0.7742149829864502,-0.1898596882820129,-16.508544921875,-115.05807495117188,-275.4254455566406
1699734430,1.0660830688476564,8.711733856201173,1.3817765808105469,0.3612269163131714,0.2912139892578125,-0.1029841750860214,-16.583343505859375,-115.88677978515624,-275.71209716796875
1699734430,0.9083111572265624,7.316934356689454,-0.2558180236816406,0.3988651037216186,-0.266886293888092,-0.0252185370773077,-16.50811767578125,-115.79335021972656,-275.8821105957031
1699734430,1.312321014404297,6.492448883056641,-1.3645623779296876,0.3607637882232666,-0.6874105930328369,0.0362714566290378,-16.809783935546875,-115.88523864746094,-276.06854248046875
1699734430,1.79865966796875,6.160738677978516,-1.6949253845214844,0.2857507765293121,-0.8974458575248718,0.0588345527648925,-16.80474853515625,-116.1061553955078,-275.509521484375
1699734430,1.9664607238769527,6.276747436523438,-1.747017059326172,0.1837634444236755,-0.9209136366844176,0.0626785606145858,-16.920639038085938,-116.4851531982422,-275.83721923828125
1699734430,1.7094451904296877,6.672075347900391,-1.699565734863281,0.0591000728309154,-0.7844932079315186,0.0743056535720825,-17.049270629882812,-116.46864318847656,-275.11187744140625
1699734430,1.5057188415527345,7.349416809082031,-1.4335688781738285,-0.0746771693229675,-0.4864862859249115,0.0992474928498268,-16.971298217773438,-116.4405517578125,-275.2672119140625
1699734430,1.6449293518066408,8.395740966796875,-0.8210426330566407,-0.1460474878549575,-0.0713793709874153,0.1102229133248329,-17.22314453125,-116.87841796875,-275.2626342773437
1699734430,1.9245478820800783,9.878108367919925,-0.2378553771972656,-0.1303358972072601,0.2915256023406982,0.0880683362483978,-17.045745849609375,-116.93382263183594,-275.2080078125
1699734430,1.9408639526367188,11.371103668212893,-0.1215472412109375,0.0157150477170944,0.5226730704307556,0.0375953130424022,-16.937301635742188,-116.89949035644533,-275.38250732421875
1699734430,1.6516653442382814,12.427456970214845,-0.1335223388671875,0.2838474214076996,0.636215090751648,0.0017883126856759,-17.124862670898438,-116.70442199707033,-275.61151123046875
1699734430,1.0238708496093751,12.599449310302736,-0.053887939453125,0.5955403447151184,0.6253682971000671,-0.0080488715320825,-17.011962890625,-117.05313110351562,-275.4189758300781
1699734430,0.3959266662597656,11.977792053222656,-0.40236328125,0.8387444615364075,0.4521727859973907,-0.0252598170191049,-16.6026611328125,-117.04489135742188,-275.51495361328125
1699734430,0.0481997680664062,10.90302703857422,-0.9859996032714844,0.984923243522644,0.1845157891511917,-0.0546278245747089,-16.868484497070312,-117.291259765625,-276.5257568359375
1699734430,-0.1411564636230468,9.906100158691409,-1.4109658813476562,1.0471746921539309,-0.1184877678751945,-0.0947440862655639,-16.911941528320312,-117.49176025390624,-276.5980224609375
1699734430,-0.1428030395507812,9.20406005859375,-1.576970672607422,1.0615661144256592,-0.3739155232906341,-0.1738642007112503,-17.21014404296875,-118.02069091796876,-277.29248046875
1699734430,-0.1176553344726562,8.708141326904297,-1.218017120361328,1.0666424036026,-0.4737169742584228,-0.2222881913185119,-17.397186279296875,-117.85293579101562,-277.46807861328125
1699734430,-0.3496728515625,8.400081939697266,-0.2823129272460937,1.0813664197921753,-0.2996959090232849,-0.2338005155324936,-17.20965576171875,-118.24635314941406,-278.3007202148437
1699734430,-0.4891827392578125,8.427325286865235,0.9349557495117188,1.0672290325164795,0.1405965238809585,-0.1984486430883407,-17.646530151367188,-118.44607543945312,-278.5090026855469
1699734430,-0.005987548828125,8.955277404785157,1.6651373291015623,0.9845834374427797,0.6674156188964844,-0.2747521996498108,-17.850921630859375,-118.47000122070312,-278.9454650878906
1699734430,1.139729919433594,9.744735717773438,1.791474609375,0.8474668264389038,1.1435203552246094,-0.4179077744483948,-17.693862915039062,-118.85969543457033,-278.915771484375
1699734430,1.4268328857421877,10.097102966308594,1.5118560791015625,0.6759665012359619,1.481878399848938,-0.5040373206138611,-18.18002319335937,-119.24774169921876,-279.9588317871094
1699734430,1.2311897277832031,10.227032775878907,0.9873468017578124,0.4944222569465637,1.641232132911682,-0.4984409511089325,-18.08192443847656,-119.41305541992188,-280.2904968261719
1699734430,1.0412347412109375,10.226284332275393,0.4314028930664063,0.3339414894580841,1.6157145500183103,-0.4225461781024933,-17.826858520507812,-119.90885925292967,-281.2174072265625
1699734430,0.8919950866699219,10.185419311523438,-0.0218545532226562,0.1935417652130127,1.4390071630477903,-0.310306191444397,-17.958999633789062,-119.68736267089844,-281.7145080566406
1699734430,0.7192543029785157,10.07240432739258,-0.3390449523925781,0.0724640786647796,1.1586247682571411,-0.1712961196899414,-17.94439697265625,-119.89944458007812,-282.0746459960937
1699734430,0.4948709106445312,9.833800506591798,-0.4995112609863281,-0.0059878514148294,0.8380739092826843,-0.0424132384359836,-17.63568115234375,-120.21299743652344,-282.3265380859375
1699734430,0.2652484130859375,9.568252716064451,-0.5875282287597656,-0.0430135130882263,0.525486409664154,0.0563261210918426,-17.358184814453125,-120.44393920898438,-282.6817932128906
1699734430,0.0070353698730468,9.484576721191408,-0.5977070617675782,-0.0295256674289703,0.2669640481472015,0.111328125,-17.661300659179688,-120.31126403808594,-282.4835205078125
1699734430,-0.2793191528320312,9.545799407958986,-0.4903802490234375,0.038618765771389,0.1062412187457084,0.1351482272148132,-17.512374877929688,-120.26115417480467,-282.5872802734375
1699734430,-0.5397775268554688,9.65626968383789,-0.3146456909179688,0.1359170824289322,0.0417509078979492,0.1365613043308258,-17.0528564453125,-120.24517822265624,-282.5138244628906
1699734430,-0.7512876892089844,9.66390380859375,-0.1859133911132812,0.2366072088479995,0.0577575713396072,0.1231192648410797,-17.283096313476562,-120.70280456542967,-282.6207275390625
1699734430,-0.9825567626953126,9.595645751953125,-0.1417552185058593,0.312351256608963,0.1217498704791069,0.1045663580298423,-17.5462646484375,-120.47291564941406,-283.1812744140625
1699734430,-1.2015513610839843,9.514664154052737,-0.0525407409667968,0.3688872158527374,0.2288283854722976,0.0792420879006385,-17.531021118164062,-120.68421936035156,-282.8899230957031
1699734430,-1.2986993408203125,9.544452209472658,0.1615141296386718,0.4393965303897857,0.3781558275222778,-0.007833688519895,-17.278854370117188,-120.8782196044922,-283.4419250488281
1699734430,-1.0996133422851564,9.781259765625,0.3112028503417969,0.4925724267959595,0.4794693887233734,-0.1161921173334121,-16.902511596679688,-120.81422424316406,-283.7269897460937
1699734430,-1.2168196105957032,9.97091537475586,0.1212478637695312,0.5288172364234924,0.5262198448181152,-0.1918133795261383,-16.936752319335938,-121.00309753417967,-283.848876953125
1699734430,-1.3359718322753906,10.058333587646484,-0.0109272766113281,0.5431093573570251,0.5315696001052856,-0.2311424016952514,-17.372955322265625,-121.36907958984376,-284.47381591796875
1699734430,-1.4048286437988282,10.139913940429688,-0.0493972778320312,0.5486947894096375,0.5009459257125854,-0.2320931553840637,-17.424392700195312,-121.17559814453124,-284.61016845703125
1699734430,-1.483714599609375,10.201286315917969,0.0082328796386718,0.5428497195243835,0.4379019737243652,-0.1930485516786575,-17.413467407226562,-121.7022705078125,-285.4832763671875
1699734430,-1.5058685302734376,10.172695770263672,0.07424560546875,0.5127788782119751,0.3727788925170898,-0.1614293754100799,-17.26971435546875,-121.77880859375,-285.5494384765625
1699734430,-0.8619076538085938,10.099797363281253,0.2040257263183593,0.4747460186481476,0.2974324822425842,-0.2232810258865356,-17.117630004882812,-121.93357849121094,-285.8797302246094
1699734430,-0.0660127258300781,10.039173431396485,0.2392025756835937,0.4151109158992767,0.2421516478061676,-0.2861380279064178,-17.491226196289062,-122.23085021972656,-285.1119689941406
1699734430,0.3462300109863281,9.811197509765623,0.331710205078125,0.3431472480297088,0.2557547986507416,-0.290909856557846,-17.745925903320312,-122.18516540527344,-285.6449584960937
1699734430,0.7158114624023438,9.64145050048828,0.4803511047363281,0.2685651481151581,0.3219069242477417,-0.239149734377861,-17.639053344726562,-122.79197692871094,-285.71258544921875
1699734430,1.0732681274414062,9.598340148925782,0.5373825073242188,0.2037150412797927,0.4034111201763153,-0.1647886782884597,-17.970077514648438,-122.58775329589844,-286.064697265625
1699734430,1.3165122985839846,9.554481353759764,0.5096900939941407,0.1395184844732284,0.4700524508953094,-0.0655909925699234,-17.985794067382812,-122.89817810058594,-286.0960388183594
1699734430,1.291963348388672,9.361233215332032,0.2782713317871094,0.0653164237737655,0.4683237969875335,0.0566968359053134,-18.263229370117188,-123.11727905273438,-285.9532470703125
1699734430,1.1181747436523437,9.218130798339844,-0.1287322998046875,-0.0141821317374706,0.3816078007221222,0.1602871417999267,-17.641525268554688,-123.19586181640624,-286.423095703125
1699734430,0.8794212341308594,9.353150024414065,-0.3409909057617187,-0.0624636448919773,0.2881290018558502,0.2161320298910141,-17.58795166015625,-122.95948791503906,-286.486083984375
1699734430,0.5046006774902344,9.660161590576172,-0.2773731994628906,-0.0706025287508964,0.2376517057418823,0.2367701977491378,-17.738021850585938,-123.21951293945312,-286.1510009765625
1699734430,0.0871188354492187,9.88095245361328,-0.2207908630371093,-0.0632303655147552,0.2177299261093139,0.2393151223659515,-17.273193359375,-123.16813659667967,-286.5482788085937
1699734430,-0.2365081787109375,9.947414245605469,-0.3611988830566406,-0.0540967918932437,0.1994558572769165,0.2312100529670715,-17.341690063476562,-122.9717254638672,-286.5365600585937
1699734430,-0.4330494689941406,9.85879852294922,-0.5951623535156251,-0.0298412516713142,0.1767500042915344,0.2166223227977752,-17.431488037109375,-123.03337097167967,-286.1974792480469
1699734430,-0.55803955078125,9.718390502929688,-0.8032296752929687,-0.007235808763653,0.1676710247993469,0.1952224969863891,-17.369140625,-122.88467407226562,-285.9725646972656
1699734430,-0.6050418090820313,9.63187042236328,-0.9238787841796876,0.0274500008672475,0.1868087649345398,0.1611175090074539,-17.00775146484375,-123.19004821777344,-285.8031616210937
1699734430,-0.5804928588867188,9.621392211914063,-0.926722869873047,0.0712107941508293,0.2513661980628967,0.108602374792099,-16.773956298828125,-123.16920471191406,-285.6735534667969
1699734430,-0.5593867492675781,9.676028594970704,-0.7527845764160157,0.114528439939022,0.3767752349376678,0.0585559867322444,-16.992691040039062,-123.50912475585938,-286.3638916015625
1699734430,-0.5828878784179687,9.759554901123048,-0.4517605590820313,0.1551709473133087,0.5428116321563721,0.017399763688445,-17.086212158203125,-123.11471557617188,-286.4714050292969
1699734430,-0.6059399414062501,9.806407470703126,-0.1805245971679687,0.1695639938116073,0.6979833841323853,-0.0204032752662897,-17.025985717773438,-123.2644500732422,-286.3857421875
1699734430,-0.5222639465332032,9.819580078125,-0.0285905456542968,0.1449563950300216,0.8064888119697571,-0.0556552708148956,-16.637969970703125,-123.30882263183594,-286.902587890625
1699734430,-0.5161267089843751,9.720785522460938,0.0070353698730468,0.0889399945735931,0.8557921648025513,-0.0661670342087745,-16.506103515625,-123.60614013671876,-286.4942932128906
1699734430,-0.5522016906738282,9.55463104248047,0.0224533081054687,0.004163319710642,0.8467429876327515,-0.0664285570383071,-16.676864624023438,-123.4429931640625,-286.9769287109375
1699734430,-0.5626799011230469,9.393565979003906,0.0365240478515625,-0.0939161106944084,0.8085886836051941,-0.0692187547683715,-16.527206420898438,-123.67770385742188,-287.0902404785156
1699734430,-0.5752537536621094,9.13220947265625,0.1775308227539062,-0.20143723487854,0.8030003309249878,-0.0771949216723442,-16.48468017578125,-123.89874267578124,-287.2386474609375
1699734430,-0.592767333984375,8.773555297851562,0.4736151123046875,-0.3300375640392303,0.8061724305152893,-0.0983228385448455,-16.255844116210938,-123.60704040527344,-287.16217041015625
1699734430,-0.5644761657714844,8.517288208007812,0.2691403198242187,-0.5173574090003967,0.7349658608436584,-0.1285617053508758,-16.191650390625,-123.91096496582033,-287.4281616210937
1699734430,-0.4477189636230469,8.310568084716797,-0.2520758056640625,-0.7109670639038086,0.6877581477165222,-0.165780708193779,-16.48004150390625,-123.51608276367188,-287.5789489746094
1699734430,-0.3227288818359375,7.977660369873047,-0.0199085998535156,-0.8462703227996826,0.7100527882575989,-0.1723430007696151,-16.153732299804688,-123.76214599609376,-286.8757629394531
1699734430,-0.2020797729492187,7.598349151611329,0.4424798583984375,-0.961089015007019,0.817713737487793,-0.1384369730949401,-16.73028564453125,-124.04580688476562,-286.8363647460937
1699734430,0.0,7.077432403564454,1.069226531982422,-1.1351265907287598,1.0189839601516724,-0.0895679667592048,-16.25042724609375,-123.53457641601562,-286.4122619628906
1699734430,0.3727249145507812,6.578070831298828,1.829645233154297,-1.3808029890060425,1.2527693510055542,-0.0523122064769268,-16.301620483398438,-123.35020446777344,-285.764892578125
1699734430,0.6905140686035156,6.2385768127441406,2.0448976135253907,-1.5276696681976318,1.2413092851638794,-0.0235218368470668,-16.082382202148438,-123.3744659423828,-285.5914306640625
1699734430,0.7204518127441406,6.181096343994141,1.3334271240234377,-1.5147655010223389,0.982835590839386,0.013424995355308,-16.22174072265625,-123.27227783203124,-285.43475341796875
1699734430,0.3366499328613281,6.3936543273925786,0.6330335998535157,-1.488529086112976,0.7754579186439514,0.0757632032036781,-16.051788330078125,-122.6935577392578,-284.82470703125
1699734430,-0.1055305480957031,6.60591293334961,0.3004252624511719,-1.4538867473602295,0.6960136890411377,0.149642214179039,-15.438766479492188,-122.72642517089844,-284.2684936523437
1699734430,-0.283809814453125,6.595434722900391,0.33290771484375,-1.382782220840454,0.6521974802017212,0.2065310776233673,-15.653106689453123,-122.69499206542967,-283.485107421875
1699734431,-0.3240760803222656,6.415209503173829,0.3421884155273437,-1.300978660583496,0.6154091358184814,0.2289990931749344,-15.492141723632812,-122.41615295410156,-282.880126953125
1699734431,-0.3917353820800781,6.258784790039063,0.5125341796875,-1.2241326570510864,0.6671388745307922,0.2171533554792404,-15.009185791015623,-122.00857543945312,-281.49468994140625
1699734431,-0.63468017578125,6.328090667724609,1.2337344360351563,-1.1052440404891968,0.811578631401062,0.1830915212631225,-15.034378051757812,-122.34507751464844,-282.1096496582031
1699734431,-0.9261241149902344,6.890620880126954,2.000739440917969,-0.9829727411270142,1.0315301418304443,0.1178696453571319,-15.142410278320312,-121.61460876464844,-281.7245483398437
1699734431,-1.1990066528320311,7.663164367675781,2.3333477783203125,-0.9170174598693848,1.2545161247253418,0.0192969981580972,-14.907562255859377,-121.67706298828124,-280.84625244140625
1699734431,-1.5142510986328126,8.188721466064454,1.7759069824218752,-0.868590235710144,1.3396879434585571,-0.1011663004755973,-14.69354248046875,-121.6103057861328,-280.7129211425781
1699734431,-1.8862275695800783,8.303682403564453,0.8687933349609376,-0.7869113683700562,1.1801632642745972,-0.211034208536148,-14.887344360351562,-121.56990051269533,-280.67193603515625
1699734431,-2.2433848571777344,8.150999908447266,-0.2309696960449218,-0.6977436542510986,0.7635679841041565,-0.297598659992218,-14.89794921875,-121.36776733398438,-280.12457275390625
1699734431,-2.545007629394531,7.900271301269532,-1.0837463378906251,-0.6273618936538696,0.3016011416912079,-0.3670328557491302,-14.81475830078125,-121.72805786132812,-279.45672607421875
1699734431,-2.890938262939453,7.648794250488281,-0.87418212890625,-0.5700528025627136,0.0451176762580871,-0.4554053246974945,-14.93988037109375,-121.75485229492188,-279.3878173828125
1699734431,-3.234324188232422,7.585625610351562,0.1981878662109375,-0.5780625343322754,0.1705733388662338,-0.6240249872207642,-15.2255859375,-121.8152313232422,-278.5377197265625
1699734431,-3.667074279785156,7.845036163330079,1.7926721191406252,-0.6779108643531799,0.7327210903167725,-0.8954711556434631,-15.529037475585938,-121.90911865234376,-278.2308959960937
1699734431,-4.02887191772461,8.402926025390625,3.272794189453125,-0.8545148968696594,1.529381275177002,-1.251073718070984,-16.387725830078125,-122.25477600097656,-277.1404113769531
1699734431,-4.275409240722657,9.322463836669924,3.980372772216797,-1.0094075202941897,2.1798133850097656,-1.608595609664917,-16.734054565429688,-122.51026916503906,-276.9073486328125
1699734431,-4.477339324951172,10.701546020507813,3.7416192626953126,-1.0029834508895874,2.287043333053589,-1.882346510887146,-17.262405395507812,-122.6482391357422,-276.88922119140625
1699734431,-4.635859680175781,12.318782958984375,3.054847412109375,-0.992468535900116,1.9072057008743288,-2.071093797683716,-17.619293212890625,-123.47059631347656,-276.76092529296875
1699734431,-4.786895599365234,14.318773956298829,3.10155029296875,-1.2747797966003418,1.3804340362548828,-2.243963718414306,-18.926483154296875,-123.57112121582033,-276.65777587890625
1699734431,-4.815935211181641,16.37340133666992,3.9351667785644535,-1.7139990329742432,0.6466234922409058,-2.353944540023804,-19.446121215820312,-124.29069519042967,-276.59051513671875
1699734431,-4.396357727050781,17.540823669433596,4.308041381835937,-1.8728631734848025,-0.369588166475296,-2.3481991291046143,-20.49774169921875,-125.07217407226562,-275.6541442871094
1699734431,-2.777623901367188,17.913099517822268,4.575086059570313,-1.7418277263641355,-1.3028391599655151,-2.3226890563964844,-21.341629028320312,-125.72819519042967,-274.40496826171875
1699734431,-0.568817138671875,17.802329864501953,4.036506042480469,-1.542316198348999,-1.89708411693573,-2.284813165664673,-22.594894409179688,-126.79803466796876,-273.4124755859375
1699734431,1.2265493774414062,16.81363586425781,3.161575469970704,-1.3751237392425537,-2.0773415565490723,-2.139068365097046,-23.249740600585938,-127.6519012451172,-272.058837890625
1699734431,2.1377046203613284,15.234419860839845,2.393672332763672,-1.2753523588180542,-1.8627272844314573,-1.825776100158692,-24.2498779296875,-128.26161193847656,-271.24188232421875
1699734431,2.1740789794921875,13.879287872314451,2.13111831665039,-1.1696017980575562,-1.303814172744751,-1.3878334760665894,-24.896530151367188,-129.2201385498047,-269.8780517578125
1699734431,2.352807312011719,13.400733032226563,2.721939697265625,-1.0416016578674316,-0.4769724011421203,-0.9399871826171876,-25.35751342773437,-129.94406127929688,-269.1203308105469
1699734431,2.9264144897460938,13.839470672607424,3.805386657714844,-0.9662262797355652,0.3832933306694031,-0.5792332887649536,-25.68296813964844,-130.20616149902344,-268.22320556640625
1699734431,3.687431945800781,14.762900390625,5.122797088623047,-0.8926721215248108,1.1475393772125244,-0.3501926362514496,-25.83892822265625,-130.37454223632812,-268.40869140625
1699734431,4.133204956054688,14.877112884521486,6.316265258789063,-0.7447460889816284,1.5439412593841553,-0.2126222550868988,-25.82807922363281,-131.02609252929688,-268.7070007324219
1699734431,3.4617013549804687,13.60071716308594,6.056405639648438,-0.5509004592895508,1.5452674627304075,-0.12317705899477,-25.83343505859375,-130.5218963623047,-268.69061279296875
1699734431,1.3482463073730468,11.609258422851562,4.378395080566406,-0.3999940156936645,1.3289693593978882,-0.049554768949747,-25.895767211914062,-130.90713500976562,-268.91131591796875
1699734431,-1.2385244750976565,10.290650482177735,2.655477905273438,-0.2470595836639404,0.9571794867515564,-0.1037349179387092,-25.785629272460938,-130.9754638671875,-269.34283447265625
1699734431,-2.663411407470704,9.815388793945312,1.7187258911132814,-0.0935296863317489,0.606698215007782,-0.3402398526668548,-25.66841125488281,-130.9248046875,-270.105224609375
1699734431,-3.4528697204589847,9.242530059814452,1.92320068359375,0.065384067595005,0.438812255859375,-0.6826685667037964,-25.966964721679688,-131.29920959472656,-270.28277587890625
1699734431,-4.132606201171876,8.45292205810547,2.588716735839844,0.1980867236852646,0.4400191903114319,-1.000921607017517,-26.029220581054688,-131.54454040527344,-270.0311889648437
1699734431,-4.779710540771485,7.607629852294922,3.094365234375,0.2713593244552612,0.5207952857017517,-1.1262547969818115,-26.417724609375,-132.37167358398438,-270.6136169433594
1699734431,-5.27622802734375,6.685996398925782,3.194806365966797,0.28392493724823,0.4816542565822601,-0.9719240665435792,-26.66758728027344,-132.41079711914062,-270.4870910644531
1699734431,-5.5899755859375,5.850733337402344,2.797233123779297,0.295654296875,0.1785143464803695,-0.6172568202018738,-26.711746215820312,-132.6339111328125,-270.751220703125
1699734431,-5.663472747802735,5.210814056396485,2.4327410888671874,0.3541218638420105,-0.329087346792221,-0.1608693152666092,-26.91241455078125,-133.14736938476562,-271.4603576660156
1699734431,-5.558540954589844,4.669988708496094,2.3070025634765625,0.4731979072093963,-0.9148663878440856,0.3156618177890777,-26.960525512695312,-132.96136474609375,-271.12750244140625
1699734431,-5.104085998535156,4.426594848632813,2.609972534179688,0.6402572393417358,-1.3517202138900757,0.6870399117469788,-26.82183837890625,-133.06307983398438,-271.2658996582031
1699734431,-4.053121490478516,5.0534912109375005,3.20738021850586,0.8069929480552673,-1.5940492153167725,0.86515212059021,-26.93354797363281,-132.8881378173828,-270.5816955566406
1699734431,-2.811303863525391,6.287225646972656,3.3950898742675784,0.9442520141601562,-1.6928868293762207,0.907229781150818,-26.621353149414062,-132.613525390625,-270.54571533203125
1699734431,-2.0088226318359377,7.193590850830079,3.2820748901367187,1.054779887199402,-1.7011066675186155,0.8886966109275818,-26.412109375,-132.58346557617188,-269.9148864746094
1699734431,-1.7104930114746095,7.601492614746094,3.0196705627441407,1.136672854423523,-1.6498596668243408,0.8762380480766296,-25.977020263671875,-132.50868225097656,-270.2912292480469
1699734431,-1.6437318420410156,7.635022888183594,2.844983825683594,1.2015961408615112,-1.5194934606552124,0.8818330764770508,-25.948532104492188,-131.90623474121094,-269.80548095703125
1699734431,-1.5149995422363285,7.534581756591797,2.9865893554687504,1.2534255981445312,-1.247471570968628,0.8930740356445312,-25.4459228515625,-132.04515075683594,-269.929443359375
1699734431,-1.2299922180175782,7.491172027587891,3.533402252197266,1.3037060499191284,-0.7755671143531799,0.8939582109451294,-25.479660034179688,-131.82334899902344,-269.15203857421875
1699734431,-0.7086264038085938,7.503745880126954,4.361480255126954,1.3589410781860352,-0.1822243928909301,0.8715612888336182,-25.00424194335937,-131.754150390625,-269.2354736328125
1699734431,-0.0073347473144531,7.391629028320313,4.860692138671875,1.379949927330017,0.3309992253780365,0.8496466279029846,-24.84912109375,-131.18016052246094,-269.4984130859375
1699734431,0.7403604125976563,7.145989837646485,4.4087818908691405,1.318002700805664,0.4929463267326355,0.8379870653152466,-24.7952880859375,-131.05972290039062,-270.10821533203125
1699734431,1.146016845703125,7.03417236328125,2.7925927734375,1.1637417078018188,0.1676329374313354,0.827193558216095,-24.67709350585937,-131.00128173828125,-270.199951171875
1699734431,0.9601034545898438,7.2633457946777344,0.9264234924316408,0.9656829833984376,-0.4845682680606842,0.8129352331161499,-23.72515869140625,-130.92408752441406,-270.8409423828125
1699734431,0.2775228881835938,7.530240783691407,-0.2531236267089843,0.8204088807106018,-1.1450090408325195,0.7791082859039307,-23.66815185546875,-131.0521697998047,-270.8314819335937
1699734431,-0.5298980712890625,7.729626159667969,-0.1570234680175781,0.8323166370391846,-1.51474130153656,0.7221145033836365,-23.67236328125,-130.8053436279297,-270.65313720703125
1699734431,-1.0629396057128906,7.882158966064454,0.836909637451172,0.9556548595428468,-1.594394326210022,0.6149982213973999,-23.22035217285156,-130.40602111816406,-269.8199462890625
1699734431,-1.580413513183594,8.188122711181641,2.2510189819335937,1.1455222368240356,-1.2799354791641235,0.4480448961257934,-22.977691650390625,-130.2223663330078,-269.7834777832031
1699734431,-2.2625450134277343,8.699010314941408,4.156556396484375,1.291787028312683,-0.5001972913742065,0.2498564422130584,-22.7318115234375,-130.40716552734375,-269.7713928222656
1699734431,-3.0035041809082035,8.859925689697265,5.315596160888672,1.2753348350524902,0.485211431980133,0.1079866513609886,-22.561676025390625,-129.99081420898438,-270.0660095214844
1699734431,-3.523822174072266,8.278534698486329,4.982688446044922,1.086768627166748,1.3286139965057373,0.0641749948263168,-22.7974853515625,-130.03114318847656,-270.55010986328125
1699734431,-3.2852183532714845,7.29807357788086,3.792812805175781,0.8390994668006897,1.7314445972442627,0.0126556074246764,-22.56536865234375,-129.9971466064453,-271.036376953125
1699734431,-2.348915405273438,6.740782470703126,2.4863296508789063,0.6324957013130188,1.6277674436569214,-0.0627696439623832,-22.84335327148437,-130.0786590576172,-271.66796875
1699734431,-1.6664845275878908,6.4779290771484375,1.3798306274414065,0.4929993152618408,1.0714714527130127,-0.1268444955348968,-22.441314697265625,-129.92120361328125,-272.44207763671875
1699734431,-1.0918295288085935,6.437064056396484,0.335302734375,0.4170550107955932,0.2248352468013763,-0.174372062087059,-22.587814331054688,-130.14739990234375,-272.59881591796875
1699734431,-0.4312532043457031,6.673272857666016,-0.1502874755859375,0.4420602321624756,-0.5906994938850403,-0.1962917447090149,-22.4779052734375,-130.5195770263672,-272.8939208984375
1699734431,0.0511935424804687,6.988068237304688,0.0077838134765625,0.5411553978919983,-1.2015581130981443,-0.1897220015525818,-22.47100830078125,-130.5160675048828,-272.2303161621094
1699734431,0.1368154907226562,7.335944824218751,0.3418890380859375,0.6528379917144775,-1.5687627792358398,-0.1372244358062744,-23.0340576171875,-130.4750213623047,-272.438232421875
1699734431,0.1061293029785156,7.592960357666016,1.01548828125,0.7311676740646362,-1.6814045906066897,-0.0655792728066444,-23.1495361328125,-130.9774627685547,-271.84588623046875
1699734431,0.1963916015625,7.749983825683594,2.4278013610839846,0.7461926937103271,-1.52716064453125,0.036490898579359,-23.22621154785156,-130.53648376464844,-271.362548828125
1699734431,0.2844085693359375,7.853119354248047,4.166435852050782,0.7370761632919312,-1.184049129486084,0.1460823714733123,-23.08345031738281,-131.04971313476562,-270.62408447265625
1699734431,-0.0026943969726562,7.789501647949219,5.070106658935547,0.727381706237793,-0.7903164625167847,0.2390482723712921,-23.15791320800781,-131.1859893798828,-270.69921875
1699734431,-0.8349636840820313,7.433392181396485,4.858895874023438,0.6985095739364624,-0.4021546244621277,0.2925780713558197,-23.338912963867188,-131.01121520996094,-270.2540283203125
1699734431,-1.5262261962890626,7.003037109375001,4.000730438232422,0.6543498635292053,-0.099241629242897,0.2393534630537033,-23.247085571289062,-131.1588897705078,-270.2375793457031
1699734431,-1.7619859313964843,6.892566833496094,2.8264224243164064,0.6219855546951294,0.0526586845517158,0.056272592395544,-22.91880798339844,-131.08465576171875,-270.5824584960937
1699734431,-1.7416282653808597,6.988367614746094,1.7163308715820311,0.6163942217826843,0.0555178523063659,-0.1845751702785492,-22.92793273925781,-130.67599487304688,-269.69207763671875
1699734431,-1.8064434814453123,7.074438629150391,1.0701246643066409,0.6591361165046692,0.0085356971248984,-0.3878691792488098,-23.10848999023437,-130.85818481445312,-270.2013244628906
1699734431,-1.7187258911132814,6.838379516601563,1.3013937377929687,0.7610228061676025,0.1150552183389663,-0.4968428015708923,-23.192153930664062,-131.08045959472656,-269.5810546875
1699734431,-1.159339141845703,6.741381225585938,2.5090823364257813,0.9122447967529296,0.5248448848724365,-0.5857798457145691,-23.204116821289062,-131.19281005859375,-269.9496459960937
1699734431,-0.2288740539550781,8.33032699584961,5.0055908203125,1.1145877838134766,1.440710186958313,-0.7659493684768677,-23.291061401367188,-131.36260986328125,-270.0367431640625
1699734431,-0.6111790466308594,12.013567657470704,5.439837799072266,1.1245572566986084,1.8838647603988647,-0.9937124848365784,-23.65391540527344,-131.72906494140625,-270.5650939941406
1699734431,-1.8253042602539065,14.676829376220704,0.9895921325683594,0.890853762626648,1.7728010416030884,-1.2068541049957275,-23.75595092773437,-132.4598388671875,-271.296142578125
1699734431,-2.727777557373047,16.75405975341797,-1.5250286865234377,0.4298464357852936,1.3701684474945068,-1.3842666149139404,-24.094558715820312,-132.50531005859375,-272.41314697265625
1699734431,-3.532504119873047,18.25334197998047,-3.23806640625,-0.1290099173784256,0.7630265355110168,-1.411371827125549,-24.0953369140625,-133.09255981445312,-273.1485595703125
1699734431,-4.539460144042969,17.87193511962891,-3.7913159179687503,-0.5221475958824158,0.3490168452262878,-1.1446809768676758,-24.38330078125,-133.87376403808594,-273.3785400390625
1699734431,-5.284610595703125,15.015574951171876,-1.4431489562988282,-0.5510479807853699,0.5022665858268738,-0.6223506331443787,-24.50225830078125,-134.41409301757812,-272.9877624511719
1699734431,-4.72821762084961,12.665911102294922,1.4174024963378906,-0.3311369121074676,0.926947057247162,-0.1981932520866394,-24.48968505859375,-134.53823852539062,-272.9906616210937
1699734431,-2.75711654663086,13.240416412353516,2.299069061279297,-0.1227285787463188,1.173975944519043,-0.0537846684455871,-24.566146850585938,-134.5565948486328,-272.88775634765625
1699734431,-1.409319305419922,13.826747131347656,0.942589874267578,-0.1206036433577537,0.8372088670730591,-0.0139115545898675,-24.47666931152344,-134.6307373046875,-272.852783203125
1699734431,-1.2115805053710935,13.080997924804688,-2.394271087646485,-0.2770984470844269,-0.1151236593723297,0.045127797871828,-24.35711669921875,-135.0065460205078,-273.24609375
1699734431,-1.127904510498047,12.493170318603516,-4.680616607666016,-0.352666437625885,-1.1475154161453247,0.1719435304403305,-24.448074340820312,-134.77626037597656,-272.8125
1699734431,-1.601369934082031,13.804293823242189,-4.19652328491211,-0.1979714035987854,-1.7900477647781372,0.3054589927196502,-24.41709899902344,-134.29640197753906,-272.3627624511719
1699734431,-2.4466621398925783,16.097225646972657,-2.482587432861328,0.0312260966747999,-1.6976416110992432,0.3065639138221741,-24.371795654296875,-134.62362670898438,-271.65997314453125
1699734431,-3.2780332946777344,18.13119598388672,0.869242401123047,0.1624352484941482,-0.5071635842323303,0.2842437028884887,-24.109695434570312,-134.80770874023438,-271.3974609375
1699734431,-5.018464050292969,17.753531341552737,3.7188665771484377,0.0161648541688919,0.8433179259300232,0.380905270576477,-24.051498413085938,-134.38400268554688,-271.420654296875
1699734431,-5.501210174560547,13.728850708007814,1.5837066650390623,-0.2222655564546585,1.1593565940856934,0.4244889616966247,-24.0035400390625,-134.4666748046875,-271.1490478515625
1699734431,-4.022135925292969,10.410401458740235,-2.1978794860839845,-0.339627593755722,0.6034757494926453,0.4013170599937439,-23.69886779785156,-134.30210876464844,-271.7904052734375
1699734431,-2.6816734313964847,8.741970977783204,-3.739822998046875,-0.2549540102481842,-0.1323543041944503,0.3462564647197723,-23.32456970214844,-134.20594787597656,-271.4568786621094
1699734431,-1.823657684326172,7.729626159667969,-3.410058746337891,0.0005459480453282,-0.6622560024261475,0.3087397217750549,-23.42999267578125,-134.0870361328125,-271.5519714355469
1699734431,-1.528920593261719,7.02264633178711,-2.635569305419922,0.3648498654365539,-0.8655102849006653,0.3238161504268646,-23.161880493164062,-134.01470947265625,-271.3046875
1699734431,-1.6061599731445313,6.71847885131836,-1.7824932861328129,0.7500010132789612,-0.70831698179245,0.3712609112262726,-23.045486450195312,-134.12928771972656,-271.55181884765625
1699734431,-1.7556990051269532,7.191046142578125,-1.0755134582519532,1.0417990684509275,-0.3116005063056946,0.41045942902565,-22.911666870117188,-134.2366485595703,-271.43072509765625
1699734432,-1.9642153930664064,8.784931640625,-0.6945556640625,1.183767318725586,0.2618859410285949,0.3839015960693359,-22.8670654296875,-133.77561950683594,-271.511474609375
1699734432,-2.049687652587891,10.306667175292969,0.3794609069824219,1.2112584114074707,0.9992241859436036,0.3200997114181518,-22.59588623046875,-133.91806030273438,-272.2835388183594
1699734432,-1.909728698730469,10.81501007080078,1.6351995849609375,1.1131749153137207,1.68038809299469,0.2794212698936462,-22.38409423828125,-134.21737670898438,-272.6820983886719
1699734432,-1.5540682983398435,10.51653076171875,1.7348922729492189,0.9184515476226808,1.9663947820663448,0.2802335321903229,-22.54403686523437,-133.809814453125,-273.964599609375
1699734432,-1.5209870910644532,9.789642333984377,0.8384065246582032,0.724075436592102,1.785821557044983,0.318519651889801,-22.27313232421875,-133.64158630371094,-274.8017272949219
1699734432,-1.6983682250976564,8.963510284423828,-0.0240998840332031,0.5905115008354187,1.3116382360458374,0.3523351550102234,-22.057586669921875,-134.15087890625,-275.68768310546875
1699734432,-1.858235778808594,8.31266372680664,-0.3707789611816406,0.5445312261581421,0.761893630027771,0.3618588745594024,-21.5447998046875,-133.81561279296875,-276.1009521484375
1699734432,-2.234403533935547,8.200397186279297,-0.3824546813964844,0.5451687574386597,0.3113099336624145,0.3658863604068756,-21.395416259765625,-133.71713256835938,-276.9533996582031
1699734432,-2.8892916870117187,8.631949768066407,-0.2800675964355469,0.5361548066139221,0.0573069639503955,0.3685167729854584,-21.5185546875,-133.8363800048828,-276.8525695800781
1699734432,-3.243604888916016,9.154812469482424,-0.0775387573242187,0.4850114285945892,0.0345747545361518,0.3348328471183777,-21.063552856445312,-133.71661376953125,-277.0879211425781
1699734432,-3.437002716064453,9.41482177734375,0.5077441406250001,0.3822903931140899,0.2475112676620483,0.2837691307067871,-20.9710693359375,-133.31118774414062,-277.81640625
1699734432,-3.5723213195800785,9.432934112548828,1.4856605529785156,0.2303386628627777,0.6059016585350037,0.2306425273418426,-20.765838623046875,-133.72232055664062,-277.0641174316406
1699734432,-3.4423915100097657,9.231902160644532,2.141895904541016,0.0095708686858415,0.8889069557189941,0.1664425134658813,-20.684478759765625,-133.70346069335938,-277.6116638183594
1699734432,-2.816393280029297,8.911717987060548,1.840422821044922,-0.2159834206104278,0.8966306447982788,0.0892353355884552,-20.571823120117188,-133.58993530273438,-277.9878234863281
1699734432,-2.076631622314453,8.590635681152344,1.0707234191894532,-0.3781768679618835,0.6633175015449524,0.0232059862464666,-20.160171508789062,-133.5027618408203,-278.39306640625
1699734432,-1.713486785888672,8.379873962402344,0.7905061340332031,-0.4732213616371155,0.3655287027359009,-0.0187656972557306,-20.48583984375,-133.674072265625,-278.08355712890625
1699734432,-1.7513580322265625,8.264613647460937,1.0256671142578129,-0.5525265336036682,0.1429129391908645,-0.0356919504702091,-20.373123168945312,-133.25332641601562,-278.4102783203125
1699734432,-2.0600161743164063,8.211923217773437,1.3271401977539063,-0.6723113059997559,0.0660453289747238,-0.0303890649229288,-19.772994995117188,-133.82615661621094,-278.281494140625
1699734432,-2.484533386230469,8.11717025756836,1.22385498046875,-0.8420763611793518,0.0870712548494339,-0.016602411866188,-19.85737609863281,-133.91143798828125,-277.93310546875
1699734432,-2.688559112548828,7.88245834350586,0.6318360900878907,-0.9859443306922911,0.1306533515453338,-0.0071655013598501,-20.09283447265625,-133.56613159179688,-277.94970703125
1699734432,-2.65173568725586,7.599546661376953,0.30416748046875,-1.0746678113937378,0.2134707421064376,-0.006868558935821,-19.73481750488281,-133.70787048339844,-276.93719482421875
1699734432,-2.5502467346191406,7.372019805908203,0.6192622375488281,-1.114928960800171,0.3848240971565246,-0.0199233740568161,-19.666305541992188,-133.52520751953125,-276.99176025390625
1699734432,-2.400558013916016,7.17113754272461,1.3036390686035155,-1.163128137588501,0.6145222783088684,-0.0487449020147323,-19.564208984375,-133.4513702392578,-276.3586730957031
1699734432,-2.054777069091797,7.090006256103516,1.6923806762695313,-1.203271508216858,0.7634531855583191,-0.0823960751295089,-19.602951049804688,-133.38270568847656,-276.2596740722656
1699734432,-1.6519647216796876,7.218139801025391,1.565145263671875,-1.178675651550293,0.7536242604255676,-0.0851354002952575,-19.57798767089844,-133.23745727539062,-276.4495849609375
1699734432,-1.5585589599609375,7.538323974609375,1.347946929931641,-1.1192538738250732,0.6026129126548767,-0.0461429953575134,-19.69882202148437,-133.46697998046875,-276.4866943359375
1699734432,-1.8956579589843752,7.899672546386719,0.8390052795410157,-1.0663679838180542,0.2931711673736572,0.0378895923495292,-19.346206665039062,-133.30238342285156,-276.15838623046875
1699734432,-2.2996678161621094,7.989635467529297,-0.1163081359863281,-0.9968739151954652,-0.1865368634462356,0.0894196256995201,-19.192916870117188,-133.21023559570312,-276.08502197265625
1699734432,-2.5605752563476565,7.770341491699219,-0.8068222045898438,-0.9245755076408386,-0.6722809076309204,0.0767363235354423,-19.34521484375,-133.27609252929688,-275.2764892578125
1699734432,-2.734663238525391,7.425458679199219,-0.8222401428222657,-0.8937762975692749,-0.9672347903251648,0.0256241373717784,-19.191482543945312,-133.19235229492188,-274.832275390625
1699734432,-2.8216323852539062,7.087611236572266,-0.3918850708007813,-0.93449866771698,-0.9510235786437988,-0.056486178189516,-18.9796142578125,-132.79212951660156,-274.04754638671875
1699734432,-2.9228219604492187,6.824159088134766,0.3809577941894531,-1.0332138538360596,-0.6677913665771484,-0.1621276587247848,-19.06787109375,-132.5045928955078,-273.36773681640625
1699734432,-3.1566357421875,6.674320678710938,0.6327342224121094,-1.117403507232666,-0.3883155286312103,-0.2634726464748382,-18.98324584960937,-132.80992126464844,-272.9947509765625
1699734432,-3.3423994445800784,6.602320404052735,0.1484912109375,-1.159251689910889,-0.1815966963768005,-0.3341031372547149,-19.28315734863281,-132.7417755126953,-272.7989501953125
1699734432,-3.423830108642578,6.5538212585449225,0.1487905883789062,-1.1991345882415771,0.1420945525169372,-0.3410870134830475,-19.02748107910156,-133.15879821777344,-272.0713195800781
1699734432,-3.435056762695313,6.598578186035157,0.8656498718261719,-1.228134036064148,0.5386320352554321,-0.3075442314147949,-19.039474487304688,-132.86940002441406,-271.0614624023437
1699734432,-3.103795623779297,6.827003173828126,1.3994398498535157,-1.2303897142410278,0.8303523063659668,-0.2698442637920379,-19.267135620117188,-133.243896484375,-271.4776611328125
1699734432,-2.767295379638672,7.096742248535157,1.4877561950683595,-1.2594685554504397,0.9711483120918274,-0.2232996672391891,-18.79815673828125,-132.93533325195312,-271.1112670898437
1699734432,-2.8021728515625,7.152875518798829,1.497036895751953,-1.29366135597229,0.9477508664131165,-0.1643114387989044,-18.86958312988281,-133.36566162109375,-270.8028259277344
1699734432,-3.035387878417969,7.156617736816407,1.121018829345703,-1.269530177116394,0.6531069874763489,-0.1010965257883071,-18.830596923828125,-133.24449157714844,-270.80841064453125
1699734432,-3.3006362915039062,7.2688842773437505,0.5303471374511719,-1.2222071886062622,0.2068106979131698,-0.0767890512943267,-18.90966796875,-132.9491424560547,-270.41864013671875
1699734432,-3.403472442626953,8.123906250000001,0.4421804809570313,-1.1669316291809082,-0.2567737400531769,-0.1586522310972213,-18.906982421875,-133.18438720703125,-270.1761474609375
1699734432,-3.426973571777344,9.999056854248048,0.5426216125488281,-1.1026674509048462,-0.6681665778160095,-0.3777893781661987,-18.72935485839844,-132.9317169189453,-269.96209716796875
1699734432,-3.4337095642089848,12.17343521118164,0.980760498046875,-1.0609087944030762,-0.8896721005439758,-0.7099345326423645,-18.9329833984375,-133.22760009765625,-269.0422668457031
1699734432,-3.622167663574219,14.381044464111328,2.359842681884765,-1.1035069227218628,-0.6132569909095764,-1.0834684371948242,-18.78231811523437,-133.3737335205078,-268.3204345703125
1699734432,-4.026177520751953,16.084951171875,4.698728942871094,-1.208890080451965,0.080921746790409,-1.415223479270935,-18.654373168945312,-133.49661254882812,-268.258544921875
1699734432,-4.417912902832032,16.525934143066408,5.699847106933594,-1.3055294752120972,0.6941007375717163,-1.6287504434585571,-19.378692626953125,-134.25308227539062,-268.29998779296875
1699734432,-4.196822662353516,15.822995910644533,5.059329071044922,-1.378395438194275,0.9860915541648864,-1.7786142826080322,-19.71446228027344,-134.4427947998047,-268.1407470703125
1699734432,-3.2549812316894533,14.870825958251954,4.498894500732422,-1.4442511796951294,1.1032637357711792,-1.8719905614852903,-19.9737548828125,-134.9015350341797,-268.2225952148437
1699734432,-2.436782684326172,14.39601333618164,4.737947387695312,-1.4579437971115112,1.1238834857940674,-1.875277638435364,-20.89007568359375,-135.0271759033203,-267.72509765625
1699734432,-1.8347346496582035,14.27716049194336,4.8562014770507815,-1.3664090633392334,0.9683130979537964,-1.772214651107788,-21.171890258789062,-135.6705780029297,-268.5933837890625
1699734432,-1.460812225341797,14.019246826171877,4.726121978759766,-1.1400548219680786,0.7233811020851135,-1.5554895401000977,-21.53231811523437,-136.3073272705078,-267.9970092773437
1699734432,-1.2954061889648438,13.439951477050782,4.851710815429688,-0.8547764420509338,0.3927323818206787,-1.3052773475646973,-21.886550903320312,-136.40521240234375,-267.9571838378906
1699734432,-1.6343014526367188,12.846136322021485,4.757257232666016,-0.5975598096847534,-0.0939062535762786,-1.0459538698196411,-22.24330139160156,-136.65525817871094,-267.78271484375
1699734432,-2.565365295410156,12.497810668945313,4.5840673828125,-0.3511468470096588,-0.5557298064231873,-0.744704008102417,-22.362136840820312,-137.36021423339844,-267.4916076660156
1699734432,-3.2859667968750004,12.50245101928711,4.404740295410156,-0.1382742524147033,-0.8941342234611511,-0.4843485653400421,-22.818191528320312,-137.1886749267578,-267.48291015625
1699734432,-3.5188824462890627,12.349469146728516,4.010310516357422,-0.0315294302999973,-1.0471490621566772,-0.3135360777378082,-22.707260131835938,-137.6058807373047,-267.78076171875
1699734432,-3.3627571105957035,11.64308807373047,3.498824157714844,-0.0212938375771045,-0.9987056255340576,-0.242702916264534,-22.765914916992188,-137.78001403808594,-267.0341186523437
1699734432,-3.044668579101563,10.600506134033203,3.018622741699219,-0.0584364123642444,-0.8371551036834717,-0.2181448489427566,-22.794097900390625,-137.5786895751953,-266.9270324707031
1699734432,-2.7394532775878906,9.394763488769533,2.6291326904296874,-0.0848107635974884,-0.6760322451591492,-0.1607691794633865,-23.0269775390625,-137.53236389160156,-266.73797607421875
1699734432,-2.6599685668945314,8.15354461669922,2.492616577148437,-0.0480524785816669,-0.5574893355369568,-0.0440928936004638,-22.639862060546875,-137.4208526611328,-266.6324462890625
1699734432,-2.712060241699219,7.205715637207032,2.7511289978027347,0.0613696165382862,-0.4707403481006622,0.0987603962421417,-22.814620971679688,-137.92552185058594,-266.5381774902344
1699734432,-2.602039031982422,6.709497528076172,3.2013926696777344,0.2217124253511428,-0.4279220402240753,0.2216484993696212,-22.81141662597656,-137.68954467773438,-266.3685302734375
1699734432,-2.179617462158203,6.817273406982422,3.502865753173828,0.3886156678199768,-0.4703299701213836,0.2754542231559753,-22.670318603515625,-137.78688049316406,-265.69439697265625
1699734432,-1.6902850341796876,7.334747314453125,3.405568084716797,0.526607871055603,-0.557842493057251,0.2999691367149353,-22.785369873046875,-137.4571533203125,-265.3793334960937
1699734432,-1.5277230834960938,7.5735008239746096,3.2097752380371096,0.6385948657989502,-0.587871789932251,0.3312234580516815,-22.50628662109375,-137.50628662109375,-265.877685546875
1699734432,-1.6893869018554688,7.478448486328125,3.036286010742188,0.7452134490013123,-0.5404778718948364,0.3618791103363037,-22.30023193359375,-137.3556365966797,-266.0384521484375
1699734432,-1.9333795166015624,7.27846435546875,3.0656250000000003,0.843261182308197,-0.4603907763957977,0.3735605478286743,-22.192886352539062,-137.05845642089844,-266.18609619140625
1699734432,-2.092199249267578,7.214547271728516,3.0455667114257814,0.929928421974182,-0.4472896158695221,0.3754218220710754,-22.286880493164062,-136.90957641601562,-266.4451904296875
1699734432,-2.232307891845703,7.283104705810548,2.844684448242188,1.01436185836792,-0.553809642791748,0.3819226026535034,-22.00019836425781,-136.6565399169922,-266.7855834960937
1699734432,-2.3677761840820315,7.405250701904297,2.600841522216797,1.10908305644989,-0.7693435549736023,0.3904082179069519,-22.14886474609375,-136.47860717773438,-266.7008056640625
1699734432,-2.414029998779297,7.54670654296875,2.483036499023437,1.2090226411819458,-1.0412179231643677,0.404030293226242,-21.7623291015625,-136.38711547851562,-266.7696228027344
1699734432,-2.2662872314453124,7.689060516357422,2.43139389038086,1.2882338762283323,-1.298508882522583,0.4242335557937622,-21.471908569335938,-136.32980346679688,-266.431884765625
1699734432,-1.9389179992675785,7.764204254150391,2.4695645141601563,1.3229721784591677,-1.461931824684143,0.4581417441368103,-21.388717651367188,-136.01919555664062,-266.95758056640625
1699734432,-1.5305671691894531,7.720495147705079,2.611619110107422,1.3209739923477173,-1.4722713232040403,0.5065447092056274,-21.28086853027344,-136.0820770263672,-266.7575988769531
1699734432,-1.124311981201172,7.658524017333985,2.7677444458007816,1.3001152276992798,-1.2959333658218384,0.562484622001648,-21.197830200195312,-135.99586486816406,-266.57623291015625
1699734432,-0.8006849670410157,7.702981567382813,2.8934829711914065,1.2595423460006714,-0.944202959537506,0.6222513318061829,-21.170333862304688,-135.98936462402344,-266.64013671875
1699734432,-0.6893165588378907,7.864046630859375,3.0196705627441407,1.2239798307418823,-0.4956113398075104,0.6821255683898926,-20.84053039550781,-135.861572265625,-266.90576171875
1699734432,-0.7081773376464844,8.077203369140625,3.046315155029297,1.21241557598114,-0.1078548282384872,0.7241324186325073,-20.89654541015625,-135.46531677246094,-266.74609375
1699734432,-0.8322692871093751,8.239465942382813,2.805166625976563,1.2235107421875,0.0999982357025146,0.7309583425521851,-20.724136352539062,-135.53408813476562,-266.83966064453125
1699734432,-1.0068063354492187,8.234226837158204,2.4111859130859377,1.2288986444473269,0.1337431520223617,0.723572313785553,-20.36883544921875,-135.0624237060547,-267.4963073730469
1699734432,-1.1514056396484376,8.215366058349609,2.0580702209472657,1.2099130153656006,0.0548414103686809,0.710414707660675,-20.523422241210938,-134.79959106445312,-267.44317626953125
1699734432,-1.311123504638672,8.32164505004883,1.7019607543945314,1.1492139101028442,-0.1800717711448669,0.6633936762809753,-19.855010986328125,-134.77597045898438,-267.75311279296875
1699734432,-1.6016693115234375,8.484356689453126,1.5178436279296876,1.1109720468521118,-0.4076111912727356,0.5997321605682373,-19.89271545410156,-134.20819091796875,-267.8321533203125
1699734432,-1.8456619262695315,8.539292449951173,1.9844233703613283,1.1427043676376345,-0.4124602675437927,0.5387401580810547,-19.630538940429688,-134.21363830566406,-268.5528259277344
1699734432,-1.9461030578613283,8.482410736083985,2.8074119567871096,1.197954535484314,-0.2045989483594894,0.4786962866783142,-19.379074096679688,-134.39808654785156,-268.65264892578125
1699734432,-1.832040252685547,8.46729217529297,3.4512231445312502,1.1993939876556396,0.1013982594013214,0.4132839739322662,-19.07850646972656,-133.73435974121094,-269.003173828125
1699734432,-1.450034637451172,8.5214794921875,3.862268371582032,1.1049444675445557,0.4264272153377533,0.3457808494567871,-19.2860107421875,-133.4464874267578,-269.3222045898437
1699734432,-0.997675323486328,8.505313110351564,4.192182312011719,0.9319106340408324,0.687095582485199,0.283963531255722,-19.09429931640625,-133.44778442382812,-270.119384765625
1699734432,-0.9069639587402344,8.512198791503907,4.279301147460938,0.7537584900856018,0.739109218120575,0.2470633238554,-18.93563842773437,-133.31814575195312,-270.8188171386719
1699734432,-1.2802876281738282,8.5789599609375,3.920497283935547,0.5678825974464417,0.5128284096717834,0.23026143014431,-19.011962890625,-133.5058135986328,-270.911376953125
1699734432,-1.9336788940429688,8.806786193847657,3.0371841430664066,0.3481470644474029,0.0689814612269401,0.2129860371351242,-18.45639038085937,-133.70887756347656,-271.44287109375
1699734432,-2.724185028076172,9.093589782714844,1.646575927734375,0.1213884800672531,-0.4757814407348633,0.15542633831501,-18.834884643554688,-133.3499298095703,-271.7425537109375
1699734432,-3.1754965209960937,9.281299438476562,0.49097900390625,-0.0149299474433064,-0.8985731601715088,0.0414622202515602,-18.43128967285156,-133.41160583496094,-271.239501953125
1699734432,-3.009192352294922,9.218130798339844,0.3218307495117187,-0.0027608990203589,-1.0519161224365234,-0.1097840219736099,-18.43052673339844,-133.3060302734375,-271.3368530273437
1699734432,-2.669548645019532,9.063502349853517,0.5243595886230469,0.1076167374849319,-0.9312666654586792,-0.2265135645866394,-18.43292236328125,-133.19972229003906,-271.0718078613281
1699734432,-2.399510192871094,8.663833465576172,0.9852511596679688,0.2595386207103729,-0.5843521356582642,-0.2585119903087616,-18.55628967285156,-133.11813354492188,-270.5697937011719
1699734432,-2.005828857421875,7.949967956542969,1.7113911437988285,0.4256855249404907,-0.116827018558979,-0.2252464294433593,-18.678878784179688,-133.2282257080078,-270.5142822265625
1699734432,-1.3548326110839843,7.340285797119141,2.460732879638672,0.5431730151176453,0.3542528748512268,-0.1861522942781448,-18.647491455078125,-133.16615295410156,-270.97314453125
1699734433,-0.929117889404297,6.796616363525391,2.7644512939453127,0.5268699526786804,0.6911576986312866,-0.1233613491058349,-18.972824096679688,-133.5295867919922,-271.4928283691406
1699734433,-0.9404942321777344,6.390211486816407,2.3631358337402344,0.3781347870826721,0.8169147968292236,-0.0518309734761714,-18.618927001953125,-133.59471130371094,-271.4032897949219
1699734433,-1.0743159484863285,6.3036914062500005,1.708696746826172,0.1821674108505249,0.7153199911117554,-0.0020562265999615,-18.724761962890625,-133.8385009765625,-271.6744079589844
1699734433,-1.2370275878906252,6.377338256835938,1.1716136169433595,0.0152647066861391,0.4578416049480438,0.0320876277983188,-18.80308532714844,-133.40704345703125,-272.2118530273437
1699734433,-1.3353730773925785,6.468348999023438,0.9107061767578124,-0.0597671940922737,0.1329852193593979,0.0503582470118999,-18.569732666015625,-133.2025146484375,-272.6053466796875
1699734433,-1.415606231689453,6.640940093994141,1.093176727294922,-0.0371931754052639,-0.1465004831552505,0.0537505783140659,-18.396224975585938,-133.17483520507812,-272.54522705078125
1699734433,-1.4483880615234377,6.9729496765136725,1.7883311462402345,0.0929845348000526,-0.2829329073429107,0.0655252113938331,-18.409439086914062,-133.0067901611328,-272.42852783203125
1699734433,-1.400936737060547,7.511529693603516,2.8806097412109377,0.3051431179046631,-0.2492750734090805,0.0780649706721305,-18.561004638671875,-133.26638793945312,-272.39324951171875
1699734433,-1.3133688354492188,8.38017333984375,3.977977752685547,0.5788220763206482,-0.0897663682699203,0.0754694566130638,-18.295654296875,-133.012451171875,-272.5028076171875
1699734433,-1.5524217224121095,9.335187377929689,4.543052673339844,0.8375188708305359,0.1307098120450973,0.0647254660725593,-17.896926879882812,-133.27151489257812,-272.857177734375
1699734433,-2.087259521484375,9.95130615234375,4.307592315673828,0.9951998591423036,0.2963072955608368,0.0536150261759758,-17.955398559570312,-133.11849975585938,-272.9839782714844
1699734433,-2.677033081054688,10.106683044433597,3.13029052734375,0.9852369427680968,0.2973214387893677,0.0004495415778364,-18.292266845703125,-132.85867309570312,-272.9654541015625
1699734433,-3.007545776367188,9.81089813232422,1.3569282531738285,0.8645182847976685,0.1126418560743331,-0.1150637418031692,-17.920928955078125,-132.8402099609375,-273.60662841796875
1699734433,-2.8562104797363284,9.618248748779298,0.2823129272460937,0.7741590738296509,-0.0325265191495418,-0.2856240272521972,-17.802093505859375,-133.14646911621094,-274.0428466796875
1699734433,-2.6993367004394533,10.386600952148438,0.7637118530273438,0.7950321435928345,-0.0914193987846374,-0.4736743569374084,-17.900299072265625,-132.76075744628906,-274.85333251953125
1699734433,-2.698288879394531,12.099788360595705,0.3567082214355468,0.8541511297225952,-0.3217905461788177,-0.6486057043075562,-17.939117431640625,-133.25018310546875,-274.412841796875
1699734433,-2.8831544494628907,13.526172180175784,-0.7665559387207032,0.905427634716034,-0.5585482120513916,-0.7389712929725647,-18.044937133789062,-133.33367919921875,-274.8490600585937
1699734433,-3.0850845336914063,14.720837860107425,-1.239272918701172,0.8146457672119141,-0.7720938324928284,-0.7137112021446228,-18.9088134765625,-133.3038330078125,-274.80517578125
1699734433,-2.889441375732422,14.935790863037113,-2.3580464172363285,0.531918466091156,-0.9377213716506958,-0.5749205350875854,-18.68621826171875,-133.59536743164062,-275.2943725585937
1699734433,-1.9525396728515625,12.85077667236328,-2.602937164306641,0.2892059683799743,-0.8346179127693176,-0.3715631663799286,-18.84710693359375,-133.79568481445312,-274.9921264648437
1699734433,-0.7367678833007812,9.814939727783203,-1.5063175964355469,0.204740896821022,-0.4857142269611358,-0.2176550924777984,-19.10409545898437,-133.69436645507812,-275.39654541015625
1699734433,0.4782554626464844,8.289312286376953,-0.6173162841796875,0.233902245759964,-0.021367073059082,-0.1272913813591003,-19.665267944335938,-134.21304321289062,-274.7574768066406
1699734433,1.2882211303710938,8.438402252197266,-0.6253994750976563,0.2914470136165619,0.3704883158206939,-0.0808948501944542,-19.47969055175781,-133.82562255859375,-275.2958374023437
1699734433,1.2738510131835938,10.117760009765624,-1.622476043701172,0.2792044878005981,0.5338261127471924,-0.0601552166044712,-19.62860107421875,-133.92611694335938,-275.5216064453125
1699734433,0.5593867492675781,12.131821746826173,-2.8156448364257813,0.1860095560550689,0.5331589579582214,-0.0262539740651845,-19.43028259277344,-133.86997985839844,-275.6039123535156
1699734433,-0.354462890625,13.83168685913086,-2.93150390625,0.1158033013343811,0.5811081528663635,0.0484141372144222,-19.38739013671875,-133.54257202148438,-275.63623046875
1699734433,-1.3407618713378906,15.054494018554688,-1.7928218078613285,0.1793324798345565,0.8019547462463379,0.1412173062562942,-19.340103149414062,-133.81982421875,-275.784423828125
1699734433,-2.368824005126953,16.031961364746095,-0.2118095397949219,0.3731056749820709,1.1333178281784058,0.2110813409090042,-19.21380615234375,-133.80380249023438,-275.8148193359375
1699734433,-3.2540830993652343,17.244589691162112,0.690963134765625,0.5641094446182251,1.4394731521606443,0.2550027370452881,-19.008270263671875,-133.43650817871094,-276.34185791015625
1699734433,-4.083208923339844,18.43581253051758,0.2788700866699219,0.5839425325393677,1.6196677684783936,0.2977304756641388,-18.727813720703125,-133.6250762939453,-276.7039794921875
1699734433,-4.961582336425781,18.757044525146487,-0.6483018493652344,0.3798101842403412,1.673584222793579,0.3742247223854065,-18.742111206054688,-133.0686798095703,-277.3623046875
1699734433,-5.642516326904297,16.634608154296878,-1.2253518676757813,0.0570611543953418,1.581078290939331,0.4836436212062835,-18.196807861328125,-133.7201690673828,-278.2581481933594
1699734433,-5.267246704101563,12.30216751098633,-1.0135423278808595,-0.1947524398565292,1.3489254713058472,0.5436038970947266,-17.615570068359375,-133.69686889648438,-278.6954345703125
1699734433,-4.4068359375,9.399254150390624,-1.2265493774414062,-0.3359391391277313,0.8570299744606018,0.5443623661994934,-17.270278930664062,-133.40989685058594,-279.0816650390625
1699734433,-3.5781591796875003,7.802075500488281,-1.9739451599121087,-0.3630793988704681,0.219352588057518,0.5024431347846985,-16.884246826171875,-132.698974609375,-278.8417663574219
1699734433,-2.891836395263672,6.68494857788086,-2.2803579711914064,-0.254448801279068,-0.3579802513122558,0.4357053935527801,-16.770614624023438,-132.35894775390625,-278.9379272460937
1699734433,-2.5268952941894534,5.859265594482422,-1.9025436401367188,-0.0199745073914527,-0.7144883275032043,0.3628759384155273,-16.725875854492188,-132.5968780517578,-278.9806213378906
1699734433,-2.4071443176269534,5.266947326660157,-1.064586181640625,0.2705289721488952,-0.7466081380844116,0.2913631498813629,-16.568939208984375,-132.54818725585938,-278.4457702636719
1699734433,-2.4159759521484374,4.866529998779297,-0.0576301574707031,0.5281549096107483,-0.435108333826065,0.2226280122995376,-16.516281127929688,-132.39808654785156,-278.586669921875
1699734433,-2.49037124633789,5.079686737060547,0.5755531311035157,0.6226393580436707,0.0267362724989652,0.1561634987592697,-16.475723266601562,-132.479736328125,-278.8818359375
1699734433,-2.615061950683594,6.6153433227539065,0.2821632385253906,0.534595251083374,0.4473953545093536,0.0516719818115234,-16.21807861328125,-132.83096313476562,-279.33038330078125
1699734433,-2.475402374267578,8.340505828857422,-0.0004490661621093,0.3968759775161743,0.7343834638595581,-0.0555186532437801,-16.626205444335938,-132.1929168701172,-279.61669921875
1699734433,-2.4400758361816406,9.31363220214844,0.1511856079101562,0.3243066966533661,0.8941038846969604,-0.1193887144327163,-16.229965209960938,-132.3129119873047,-279.9412536621094
1699734433,-2.6429040527343752,10.045460357666016,0.3321592712402343,0.3170565068721771,0.9216108322143556,-0.1273398399353027,-15.896392822265623,-132.3988037109375,-280.9950561523437
1699734433,-2.988984375,10.669662322998049,0.1625619506835937,0.3245221674442291,0.82674640417099,-0.0890398621559143,-15.833328247070312,-132.4846649169922,-281.43878173828125
1699734433,-3.2602203369140628,11.019784240722656,-0.0746946716308593,0.3236086964607239,0.6930463910102844,-0.0337726101279258,-16.298477172851562,-132.2626495361328,-281.05926513671875
1699734433,-3.353925476074219,11.065139923095703,-0.0152682495117187,0.297676682472229,0.617763340473175,-0.0110025834292173,-15.92431640625,-132.66513061523438,-281.0082397460937
1699734433,-3.240162048339844,10.838211822509766,0.3851490783691406,0.2362482249736786,0.6619750261306763,-0.022139124572277,-15.775054931640623,-132.77610778808594,-282.1316223144531
1699734433,-2.9395870971679687,10.36759048461914,0.8557704162597657,0.0851100981235504,0.7830950617790222,-0.0363755859434604,-15.88421630859375,-132.99668884277344,-282.12225341796875
1699734433,-2.506238250732422,9.720037078857423,0.839304656982422,-0.1734279841184616,0.8401628732681274,-0.0176405124366283,-15.531265258789062,-132.74151611328125,-282.327392578125
1699734433,-2.2049148559570315,9.031319274902344,0.3838018798828125,-0.477740466594696,0.7817533612251282,0.0248385034501552,-15.378448486328123,-132.4757843017578,-282.38800048828125
1699734433,-2.022444305419922,8.301736450195312,0.1850152587890625,-0.7021235227584839,0.6161398887634277,0.0615011788904666,-15.323593139648438,-132.69700622558594,-282.4063720703125
1699734433,-1.979483642578125,7.69564682006836,0.2624043273925781,-0.7896642684936523,0.4027735590934753,0.0708198472857475,-15.304458618164062,-132.6077880859375,-282.1211853027344
1699734433,-2.168989562988281,7.3551049804687505,0.7469467163085938,-0.7928571105003357,0.2884485721588135,0.0679830461740493,-14.959930419921877,-132.37387084960938,-282.6651611328125
1699734433,-2.5810826110839846,7.433242492675782,1.2545411682128906,-0.800898015499115,0.2516245245933532,0.0347819477319717,-14.964126586914062,-132.02407836914062,-282.5926818847656
1699734433,-2.981350250244141,7.817044372558594,1.1524534606933594,-0.8622934818267822,0.2220304012298584,-0.0178298633545637,-14.9224853515625,-132.2469482421875,-282.01934814453125
1699734433,-3.2822245788574222,8.120014343261719,0.6435118103027344,-0.9392292499542236,0.1868998408317566,-0.0601320452988147,-14.612213134765623,-131.65672302246094,-282.1971435546875
1699734433,-3.3663496398925785,8.132887573242188,0.1487905883789062,-1.016220211982727,0.1478682905435562,-0.0738438665866851,-14.574920654296877,-131.5879364013672,-281.3609619140625
1699734433,-3.2433055114746097,7.830965423583985,-0.262254638671875,-1.0624492168426514,0.0460250154137611,-0.059535764157772,-14.546127319335938,-131.36631774902344,-281.7203369140625
1699734433,-2.853665771484375,7.347021789550782,-0.7138655090332031,-1.0628340244293213,-0.1450354903936386,-0.0439911596477031,-14.381622314453123,-131.5147705078125,-281.1972045898437
1699734433,-2.265389099121094,6.820566558837891,-0.9416917419433596,-1.0581634044647217,-0.2706858217716217,-0.0302636306732893,-14.9068603515625,-131.22325134277344,-280.792724609375
1699734433,-1.783840484619141,6.3265937805175785,-0.3261717224121094,-1.082863450050354,-0.1494752466678619,-0.0557799078524112,-14.65032958984375,-131.17201232910156,-279.98699951171875
1699734433,-1.4663507080078126,5.910010070800782,0.8020321655273438,-1.130348563194275,0.1537056714296341,-0.1076865121722221,-14.755630493164062,-130.63031005859375,-279.81158447265625
1699734433,-0.9789642333984376,5.886658630371094,1.25259521484375,-1.1600431203842163,0.3264630734920501,-0.1755936592817306,-14.83819580078125,-130.5933837890625,-280.0632629394531
1699734433,-0.729283447265625,6.457272033691407,0.6141728210449219,-1.1586390733718872,0.265537679195404,-0.1864633560180664,-14.823135375976562,-130.6443328857422,-279.5263671875
1699734433,-1.2409194946289064,7.097191314697266,-0.0824784851074218,-1.112705945968628,0.1295737028121948,-0.1385341733694076,-14.969818115234377,-130.4120330810547,-279.4481811523437
1699734433,-1.96152099609375,7.7688446044921875,-0.13172607421875,-1.01556134223938,0.0417383909225463,-0.0858382061123848,-14.284912109375,-130.03216552734375,-279.481201171875
1699734433,-2.544558563232422,8.40696762084961,-0.0872685241699218,-0.8592715859413147,-0.0833910331130027,-0.0264393296092748,-14.87091064453125,-129.62527465820312,-279.60260009765625
1699734433,-3.0687684631347656,8.727750549316406,-0.5951623535156251,-0.6958938241004944,-0.3053393959999084,0.0614316686987876,-15.185745239257812,-129.4971466064453,-278.9478759765625
1699734433,-3.510799255371094,8.687184906005859,-0.9717791748046876,-0.5649185180664062,-0.4484888315200805,0.1629460453987121,-15.06390380859375,-129.60447692871094,-279.3080139160156
1699734433,-3.795956268310547,8.634793853759765,-0.3219804382324219,-0.4829605221748352,-0.30421182513237,0.2107497900724411,-15.38134765625,-129.8614959716797,-278.635009765625
1699734433,-4.119583282470703,8.408314819335938,0.8180488586425781,-0.4963293373584747,0.0699079781770706,0.1724162399768829,-15.021728515625,-129.6849365234375,-278.3165283203125
1699734433,-4.215084686279297,7.709118804931641,1.1319461059570313,-0.6292173266410828,0.3942708671092987,0.069042183458805,-15.121810913085938,-129.14109802246094,-278.5625
1699734433,-4.140390014648438,6.899602203369141,0.5840853881835938,-0.8340365290641785,0.5452617406845093,-0.0698512494564056,-15.339111328125,-129.22308349609375,-278.505859375
1699734433,-4.1570054626464845,6.291566619873048,0.3131488037109375,-1.0374016761779783,0.5933293700218201,-0.2134638130664825,-15.239425659179688,-129.05577087402344,-278.62164306640625
1699734433,-4.240082702636719,6.102659454345703,0.5526507568359376,-1.1667317152023315,0.5502783060073853,-0.349791020154953,-14.688995361328123,-128.90272521972656,-278.4760437011719
1699734433,-4.269122314453125,6.667434997558594,0.950673065185547,-1.209514021873474,0.4466853439807892,-0.5026016235351562,-14.91888427734375,-128.86636352539062,-278.4254455566406
1699734433,-4.16299301147461,8.059390411376954,1.5444882202148438,-1.220741629600525,0.4211389720439911,-0.645564079284668,-15.315658569335938,-129.00067138671875,-278.11297607421875
1699734433,-4.079167327880859,9.98094451904297,2.3893313598632813,-1.209980607032776,0.4118626415729522,-0.7859811186790466,-15.479080200195312,-128.69424438476562,-278.2767944335937
1699734433,-4.071383514404297,12.100686492919923,2.459235992431641,-1.1241775751113892,0.2171861082315445,-0.9007364511489868,-16.0091552734375,-128.95590209960938,-277.98614501953125
1699734433,-3.77978988647461,13.700260162353516,2.0589683532714846,-1.0976396799087524,0.0088496841490268,-1.025810718536377,-16.34857177734375,-128.9160919189453,-278.0973205566406
1699734433,-3.336411895751953,15.0263525390625,2.668650512695313,-1.2773675918579102,0.0618873350322246,-1.2228317260742188,-16.578704833984375,-128.66949462890625,-277.5090026855469
1699734433,-3.0765522766113285,15.95322509765625,3.920946350097657,-1.5477551221847534,0.3078371882438659,-1.461379051208496,-16.703887939453125,-128.88519287109375,-277.400146484375
1699734433,-3.0491592407226564,15.70608901977539,4.681365051269531,-1.7134746313095093,0.449055016040802,-1.6522983312606812,-17.567230224609375,-129.04931640625,-276.992919921875
1699734433,-2.94392807006836,14.957944793701172,4.836891632080079,-1.7460263967514038,0.4166185259819031,-1.7625333070755005,-17.968673706054688,-129.10145568847656,-276.9886169433594
1699734433,-2.446063385009766,14.502891082763671,4.5497886657714846,-1.6931344270706177,0.3100910186767578,-1.7745145559310913,-18.5703125,-129.49349975585938,-276.6908264160156
1699734433,-1.731449432373047,14.304104461669922,4.043840789794922,-1.5750781297683716,0.1824286580085754,-1.6792529821395874,-19.242721557617188,-130.1285858154297,-276.65985107421875
1699734433,-1.2448114013671876,14.003230133056642,3.404370574951172,-1.4319665431976318,0.0372493676841259,-1.4936591386795044,-19.664459228515625,-130.1796112060547,-276.54278564453125
1699734433,-1.050216064453125,13.557008056640626,2.940634918212891,-1.2836060523986816,-0.0311161074787378,-1.24716317653656,-20.001998901367188,-130.6508026123047,-276.19500732421875
1699734433,-0.9360035705566406,12.859009552001954,2.880460052490234,-1.1237388849258425,0.0292295236140489,-0.9743289351463318,-20.42323303222656,-130.671630859375,-275.7709655761719
1699734433,-0.9684860229492188,11.9894677734375,3.138673095703125,-0.9718455076217652,0.1560732275247573,-0.7058553695678711,-20.469970703125,-130.96499633789062,-275.2734069824219
1699734433,-1.1329939270019531,11.344758453369142,3.8113742065429688,-0.8104954957962036,0.3062542080879211,-0.4683930277824402,-21.010574340820312,-131.15557861328125,-275.207275390625
1699734433,-1.9330801391601564,11.172017669677736,4.47150146484375,-0.6161641478538513,0.4748783707618713,-0.2280257046222686,-21.379150390625,-131.07582092285156,-275.111083984375
1699734433,-2.925216979980469,11.157647552490236,4.619393920898438,-0.4250567555427551,0.5453450679779053,-0.0776929333806037,-21.38594055175781,-131.20664978027344,-275.31451416015625
1699734433,-3.541036376953125,10.961405639648438,3.9878572082519534,-0.2586957514286041,0.4334025681018829,-0.0461216904222965,-21.412261962890625,-130.65054321289062,-274.92645263671875
1699734433,-3.864214324951172,10.411449279785156,3.034190368652344,-0.1585012227296829,0.1740636676549911,-0.1020299643278122,-21.13414001464844,-131.44436645507812,-275.14849853515625
1699734433,-4.035757598876954,9.693392486572264,2.188149719238281,-0.1024717837572097,-0.1275984346866607,-0.2019618898630142,-21.209213256835938,-131.07098388671875,-274.8922119140625
1699734433,-4.157604217529297,8.869805145263673,1.7789007568359376,-0.0544179677963256,-0.370561271905899,-0.3135749697685241,-21.346160888671875,-130.79354858398438,-274.47882080078125
1699734433,-4.288432159423828,8.02047134399414,1.835333404541016,0.0168186612427234,-0.506281316280365,-0.3873405456542969,-21.137481689453125,-131.1177978515625,-274.81524658203125
1699734433,-4.410727844238282,7.340435485839844,2.255958709716797,0.1287654340267181,-0.5178855061531067,-0.4029413163661957,-21.58245849609375,-131.1329803466797,-274.4549560546875
1699734434,-4.495152282714844,6.904392242431641,2.9054580688476563,0.3022919595241546,-0.4614422023296356,-0.3326162993907928,-21.661941528320312,-131.45494079589844,-274.8549194335937
1699734434,-4.5021876525878906,6.690786437988281,3.423530731201172,0.5158396363258362,-0.4394013285636902,-0.1905555725097656,-22.090652465820312,-131.30613708496094,-274.4186706542969
1699734434,-4.319866790771485,6.677464141845704,3.509751434326172,0.7289000153541565,-0.526678204536438,-0.0156154446303844,-21.91717529296875,-131.40139770507812,-274.58843994140625
1699734434,-3.838467864990234,6.829098815917969,3.169808349609375,0.8902638554573059,-0.6892961263656616,0.1075088828802108,-22.0848388671875,-131.78880310058594,-274.6930236816406
1699734434,-3.277434539794922,7.045698394775391,2.703677673339844,0.981193780899048,-0.8877138495445251,0.1983282715082168,-21.95616149902344,-131.36231994628906,-274.9364929199219
1699734434,-2.879561920166016,7.060816955566406,2.39262451171875,1.0018787384033203,-1.0480282306671145,0.28299281001091,-22.103424072265625,-131.43527221679688,-275.2237854003906
1699734434,-2.51761459350586,6.9536398315429695,2.3276596069335938,0.9968693852424622,-1.141377568244934,0.3807476162910461,-21.95928955078125,-131.5874481201172,-275.04351806640625
1699734434,-2.176923065185547,6.8250572204589846,2.3423291015625,0.9846146106719972,-1.1768505573272705,0.4811836779117584,-22.199676513671875,-131.7694854736328,-274.7545166015625
1699734434,-1.7868342590332031,6.752158813476563,2.367027740478516,0.9922035336494446,-1.1515119075775146,0.5815907120704651,-22.108200073242188,-131.60118103027344,-274.71240234375
1699734434,-1.3555810546875,6.788233795166016,2.54590576171875,1.0205554962158203,-1.0652945041656494,0.6744394302368164,-22.323974609375,-131.49896240234375,-275.1442565917969
1699734434,-0.9512718200683594,6.9219058227539065,2.777025146484375,1.0607874393463137,-0.9198475480079652,0.7607511281967163,-22.01190185546875,-131.55532836914062,-275.1070556640625
1699734434,-0.6179150390625,7.138056335449219,2.837349700927734,1.0803416967391968,-0.7602898478507996,0.8301706910133362,-22.087890625,-131.1488037109375,-274.1694641113281
1699734434,-0.4978646850585937,7.396119689941407,2.71400619506836,1.0573832988739014,-0.6019526720046997,0.8789656758308411,-21.984390258789062,-131.36907958984375,-274.7515869140625
1699734434,-0.7801776123046875,7.648943939208984,2.685415649414063,1.0191006660461426,-0.41124427318573,0.9344603419303894,-21.5252685546875,-130.91384887695312,-275.30242919921875
1699734434,-1.229543151855469,7.849676513671875,2.8541148376464847,1.014125108718872,-0.1686886101961136,0.9677884578704834,-21.16729736328125,-130.36329650878906,-275.7841186523437
1699734434,-1.4922468566894531,7.8975769042968755,3.1114297485351563,1.0591309070587158,0.1478935927152633,0.9718806743621826,-21.237823486328125,-130.5299072265625,-276.2139892578125
1699734434,-1.6760646057128907,7.910300445556641,3.19301010131836,1.0874110460281372,0.3992379307746887,0.957802414894104,-20.52699279785156,-130.47073364257812,-276.7050170898437
1699734434,-1.979483642578125,8.222700805664063,2.6776318359375,1.057029128074646,0.3823481798171997,0.9055479764938354,-20.338287353515625,-130.09327697753906,-276.84722900390625
1699734434,-2.2686822509765627,8.286168823242187,2.0604652404785155,1.0038104057312012,0.170463353395462,0.8540536761283875,-19.851470947265625,-130.0811309814453,-277.18365478515625
1699734434,-2.421215057373047,8.067623291015625,1.7580940246582033,0.99508798122406,-0.1225320398807525,0.7950316071510315,-19.803253173828125,-130.23838806152344,-277.839599609375
1699734434,-2.509681091308594,7.966733093261719,1.6262182617187502,1.0663599967956543,-0.3754314184188843,0.7132565975189209,-19.6455078125,-129.6366729736328,-277.9496154785156
1699734434,-2.679128723144532,8.102650451660157,1.5459851074218751,1.1644363403320312,-0.5613983273506165,0.6033841371536255,-19.027374267578125,-129.69729614257812,-278.68328857421875
1699734434,-2.867137756347657,8.290360107421876,1.6730708312988285,1.2664388418197632,-0.6011201739311218,0.4989208579063415,-19.013442993164062,-129.57528686523438,-279.80633544921875
1699734434,-2.9795539855957034,8.31356185913086,2.1402493286132813,1.308138370513916,-0.4304943978786468,0.421781063079834,-19.319656372070312,-129.7298126220703,-279.299072265625
1699734434,-2.9762608337402345,8.274193725585938,2.7538233947753907,1.218544840812683,-0.0959851220250129,0.3752660155296325,-19.0966796875,-129.56265258789062,-279.88720703125
