timestamp,acc-x,acc-y,acc-z,gyr-x,gyr-y,gyr-z,mag-x,mag-y,mag-z
1700075988,0.947235107421875,0.1189727783203125,-0.2616729736328125,-0.0078880172222852,-0.419350117444992,-0.3496560156345367,136.39056396484375,-37.68618774414063,252.1600646972656
1700075988,0.945343017578125,0.11102294921875,-0.2827606201171875,0.0526701360940933,-0.3764202296733856,-0.3867074847221374,135.884033203125,-38.22653198242188,251.3768310546875
1700075988,0.950927734375,0.092681884765625,-0.3099822998046875,0.1791870594024658,-0.3893970251083374,-0.4334276020526886,135.4527130126953,-39.38691711425781,251.84820556640625
1700075988,0.972564697265625,0.0937957763671875,-0.2667083740234375,0.2357246428728103,-0.3797076344490051,-0.402085930109024,135.1449432373047,-40.748321533203125,251.72671508789065
1700075988,0.981475830078125,0.1212921142578125,-0.262847900390625,0.287623792886734,-0.3511204719543457,-0.3738191425800323,134.6162567138672,-42.27665710449219,251.97039794921875
1700075988,0.988525390625,0.103912353515625,-0.2511749267578125,0.3430361747741699,-0.3212685585021972,-0.3296255767345428,134.7355194091797,-43.49678039550781,251.9674224853516
1700075988,0.98455810546875,0.0881805419921875,-0.23974609375,0.3967950344085693,-0.2952111363410949,-0.2871904969215393,134.8928680419922,-45.43498229980469,252.2764587402344
1700075988,0.9786376953125,0.0416107177734375,-0.2286224365234375,0.4734586477279663,-0.2567729353904724,-0.2156854271888733,135.0537567138672,-47.43804931640625,252.5165405273437
1700075988,0.9832916259765624,-0.015625,-0.219024658203125,0.4823757112026214,-0.2240820974111557,-0.1054742261767387,135.0607452392578,-49.79014587402344,253.1848907470703
1700075988,0.9845123291015624,-0.0423431396484375,-0.2458343505859375,0.4309740364551544,-0.2411247342824936,-0.0252387765794992,135.80648803710938,-52.28721618652344,253.84385681152344
1700075988,0.9806060791015624,-0.0445709228515625,-0.269561767578125,0.3149238526821136,-0.2624236345291137,0.0208839755505323,136.2239990234375,-54.75016784667969,254.75616455078125
1700075988,0.986480712890625,-0.0278472900390625,-0.271728515625,0.2027754783630371,-0.283398687839508,0.0619110390543937,136.29925537109375,-57.68971252441406,255.65025329589844
1700075988,1.009368896484375,-0.025970458984375,-0.21636962890625,0.1598107069730758,-0.2548461258411407,0.1543751955032348,136.58567810058594,-60.918243408203125,256.6485595703125
1700075988,1.0223388671875,-0.01885986328125,-0.21990966796875,0.2211158722639084,-0.2620273530483246,0.2356442213058471,137.05255126953125,-64.22607421875,257.8380126953125
1700075988,1.0453338623046875,-0.0420074462890625,-0.2367401123046875,0.4349890053272247,-0.2914025485515594,0.2677395641803741,136.87240600585938,-67.76899719238281,258.6080017089844
1700075988,1.082733154296875,-0.041595458984375,-0.24993896484375,0.5851260423660278,-0.3634684979915619,0.2982820272445678,137.0478515625,-71.80029296875,259.64337158203125
1700075988,1.12872314453125,0.070709228515625,-0.2048187255859375,0.5637397766113281,-0.4302259385585785,0.3337976932525635,136.4786834716797,-75.29580688476562,261.71173095703125
1700075988,1.1883697509765625,0.1764068603515625,-0.113067626953125,0.4192619919776916,-0.3908630907535553,0.3298607170581817,136.3915557861328,-79.91548156738281,262.89630126953125
1700075988,1.198455810546875,0.212860107421875,-0.0709228515625,0.4055916965007782,-0.3400931358337402,0.2882618904113769,135.31442260742188,-84.05609130859375,263.78009033203125
1700075988,1.2104339599609375,0.17022705078125,-0.0408477783203125,0.4381592273712158,-0.3144703209400177,0.2903045415878296,134.2008514404297,-88.57354736328125,265.3917236328125
1700075988,1.2205963134765625,0.080780029296875,-0.119659423828125,0.459701269865036,-0.3471758067607879,0.3505825102329254,132.8534698486328,-92.64884948730467,267.0918273925781
1700075988,1.2514495849609375,0.0276641845703125,-0.155731201171875,0.4035581052303314,-0.4269960522651672,0.410569965839386,131.0606689453125,-97.0155029296875,268.806640625
1700075988,1.3094635009765625,-0.03167724609375,-0.1356658935546875,0.2694914042949676,-0.434405505657196,0.4636904299259186,129.1365966796875,-101.0162353515625,270.7153015136719
1700075988,1.3531036376953125,-0.11029052734375,-0.1461639404296875,0.275631308555603,-0.4250607490539551,0.4999933242797851,127.06428527832033,-104.9188232421875,272.369140625
1700075988,1.375030517578125,-0.192138671875,-0.103546142578125,0.3854619264602661,-0.4727300107479095,0.5616361498832703,124.42567443847656,-109.01437377929688,274.23583984375
1700075988,1.439453125,-0.2343292236328125,-0.009490966796875,0.3744106292724609,-0.5448427796363831,0.6801462769508362,121.49839782714844,-112.7983856201172,276.2958679199219
1700075988,1.5145111083984375,-0.2369232177734375,0.0527801513671875,0.1792901307344436,-0.5420515537261963,0.8254643678665161,118.2111358642578,-116.03282165527344,279.1269226074219
1700075988,1.5345611572265625,-0.2451324462890625,0.07476806640625,0.1522065848112106,-0.4995408356189728,0.8916218280792236,114.92672729492188,-119.10838317871094,280.67047119140625
1700075988,1.517486572265625,-0.3416595458984375,0.1593017578125,0.2044063955545425,-0.4770991802215576,0.9258410334587096,111.34994506835938,-122.15960693359376,282.97186279296875
1700075988,1.485809326171875,-0.4375457763671875,0.2162628173828125,0.1650243699550628,-0.4836939573287964,0.9911428093910216,107.61463928222656,-125.02037048339844,283.83331298828125
1700075988,1.4464263916015625,-0.5249176025390625,0.192779541015625,-0.0360256433486938,-0.350682646036148,1.0628308057785034,103.73594665527344,-127.28744506835938,284.30450439453125
1700075988,1.3719482421875,-0.6024322509765625,-0.0168609619140625,-0.4739603698253631,0.1277678161859512,1.2523714303970337,99.5645751953125,-129.682861328125,285.2818908691406
1700075988,1.246978759765625,-0.531890869140625,-0.4604644775390625,-1.2862194776535034,0.717434823513031,1.7442631721496582,95.3311767578125,-131.90643310546875,284.387939453125
1700075988,1.037506103515625,-0.2960662841796875,-0.9621124267578124,-2.3226072788238525,0.9663088321685792,2.5259997844696045,91.40707397460938,-134.03396606445312,283.59490966796875
1700075988,0.9419708251953124,-0.09991455078125,-1.3909149169921875,-2.7092413902282715,1.0196069478988647,3.300125360488892,87.24111938476562,-135.78497314453125,282.09771728515625
1700075988,1.2224578857421875,-0.0061187744140625,-1.6170806884765625,-2.3094828128814697,1.093103289604187,4.0041279792785645,83.553955078125,-137.14036560058594,280.6712646484375
1700075988,1.4877166748046875,0.1990509033203125,-1.4413909912109375,-1.4207327365875244,0.9305867552757264,4.547154903411865,80.20613098144531,-137.78512573242188,279.050537109375
1700075988,1.5956268310546875,0.5108489990234375,-0.85577392578125,-0.6653356552124023,0.3032147288322449,5.09183406829834,77.50393676757812,-138.38925170898438,277.8425598144531
1700075988,1.6597137451171875,0.9073638916015624,-0.2916717529296875,-0.5793699026107788,0.1355415880680084,5.228251934051514,75.81517028808594,-138.83935546875,277.0794372558594
1700075988,1.7846527099609375,1.172882080078125,-0.485137939453125,-1.0985504388809204,0.6611180305480957,4.417804718017578,74.45541381835938,-138.60443115234375,278.2896728515625
1700075988,2.105697631835937,1.4938201904296875,-0.431243896484375,-0.8856486082077026,1.4091768264770508,3.451854944229126,73.66664123535156,-138.25643920898438,278.2269592285156
1700075988,2.08184814453125,1.4936981201171875,-0.1347503662109375,0.2308100461959839,1.869057893753052,3.054593086242676,73.66116333007812,-137.91319274902344,278.6341857910156
1700075988,1.687896728515625,0.9378814697265624,-0.3235626220703125,0.6539551615715027,1.954531192779541,2.85890793800354,73.51454162597656,-137.504150390625,278.6061096191406
1700075988,1.581268310546875,0.6528778076171875,-0.666351318359375,0.5698970556259155,1.7421369552612305,2.72143292427063,73.50985717773438,-137.05372619628906,278.3280639648437
1700075988,1.6194000244140625,0.5072021484375,-0.7476348876953125,0.1980989724397659,1.425533652305603,2.4872117042541504,73.57893371582031,-137.3075408935547,277.6842041015625
1700075988,1.6556243896484375,0.2635345458984375,-0.7117156982421875,-0.1927244514226913,1.1832733154296875,2.0803024768829346,73.51069641113281,-137.07481384277344,277.5827941894531
1700075988,1.6082763671875,-0.0138397216796875,-0.5960540771484375,-0.4385781586170196,1.0332183837890625,1.6782231330871582,73.92579650878906,-136.6681365966797,278.3406982421875
1700075988,1.380401611328125,-0.14849853515625,-0.46490478515625,-0.5398480296134949,0.927477240562439,1.5100953578948977,73.18061828613281,-137.0409698486328,278.2716369628906
1700075988,1.011993408203125,-0.1681671142578125,-0.3522186279296875,-0.5141293406486511,0.8949795365333557,1.3789056539535522,71.87545776367188,-136.98611450195312,278.6154479980469
1700075988,0.7292327880859375,-0.27490234375,-0.2081146240234375,-0.449425995349884,0.913495659828186,1.1027764081954956,73.00962829589844,-136.22337341308594,279.1791381835937
1700075988,0.567108154296875,-0.4421844482421875,-0.0833587646484375,-0.3820400536060333,0.9254274368286132,0.6922157406806946,75.22288513183594,-134.6398162841797,280.57275390625
1700075988,0.4130859375,-0.53033447265625,-0.051605224609375,-0.3989769518375397,0.8312761783599854,0.3448252975940704,76.96089172363281,-133.48690795898438,280.8098449707031
1700075988,0.2097320556640625,-0.4872283935546875,-0.1286468505859375,-0.4657655656337738,0.7031421661376953,0.0248459614813327,77.88070678710938,-132.59613037109375,280.4748840332031
1700075988,0.0797119140625,-0.449859619140625,-0.191680908203125,-0.4814691543579101,0.6183151602745056,-0.4000440835952759,78.800537109375,-131.9266815185547,280.76031494140625
1700075988,0.074676513671875,-0.438507080078125,-0.1244049072265625,-0.5992271900177002,0.5354887247085571,-0.9165995717048644,79.79612731933594,-131.47897338867188,280.74615478515625
1700075988,0.1226348876953125,-0.3829345703125,-0.0551910400390625,-0.7395957708358765,0.4291100800037384,-1.338119387626648,80.80160522460938,-131.14474487304688,282.40850830078125
1700075988,0.130096435546875,-0.3564453125,-0.031005859375,-0.7915138602256775,0.2625024616718292,-1.6654058694839478,81.18617248535156,-130.75555419921875,282.56158447265625
1700075988,0.120025634765625,-0.3625030517578125,-0.001220703125,-0.9213642477989196,0.1405786871910095,-1.929077744483948,81.36105346679688,-130.3831024169922,281.0327453613281
1700075988,0.062957763671875,-0.3497467041015625,-0.058258056640625,-1.0588505268096924,0.0405274517834186,-2.263513803482056,81.93051147460938,-130.24212646484375,281.2582397460937
1700075988,0.0186767578125,-0.3713531494140625,-0.063140869140625,-1.1645958423614502,-0.0892888680100441,-2.5555131435394287,82.59092712402344,-130.51870727539062,280.3302001953125
1700075988,-0.02349853515625,-0.3345184326171875,-0.045867919921875,-1.3292683362960815,-0.1962920129299163,-2.800640344619751,82.96429443359375,-130.27130126953125,280.05487060546875
1700075989,-0.0316619873046875,-0.2451629638671875,-0.087738037109375,-1.4713985919952393,-0.3649952709674835,-3.054601192474365,83.21888732910156,-129.9551239013672,279.4639892578125
1700075989,-0.024078369140625,-0.1007232666015625,-0.1041107177734375,-1.6262071132659912,-0.5278978943824768,-3.344467163085937,83.38990783691406,-129.9897003173828,278.7093505859375
1700075989,-0.014007568359375,0.010589599609375,-0.112579345703125,-1.5652353763580322,-0.6928823590278625,-3.472318410873413,84.08119201660156,-129.9553680419922,279.33642578125
1700075989,-0.0241851806640625,0.133697509765625,-0.044952392578125,-1.147066354751587,-0.7087595462799072,-3.459637403488159,84.25582885742188,-129.52098083496094,279.4955139160156
1700075989,-0.0066070556640625,0.3262939453125,-0.02716064453125,-0.8369539976119995,-0.7370237112045288,-3.450684070587158,84.66923522949219,-128.91537475585938,279.9039306640625
1700075989,0.043212890625,0.5730743408203125,-0.1612396240234375,-0.4122770428657532,-0.6651945114135742,-3.4234564304351807,84.67825317382812,-128.90643310546875,279.5050354003906
1700075989,0.0962677001953125,0.8019256591796875,-0.3857879638671875,-0.2148758172988891,-0.5694016814231873,-3.3640315532684326,85.16874694824219,-128.75929260253906,279.8197631835937
1700075989,0.1433868408203125,0.9765625,-0.508880615234375,0.1051647663116455,-0.4872423708438873,-3.1213295459747314,85.20164489746094,-128.79898071289062,280.2405090332031
1700075989,0.1857757568359375,1.1542205810546875,-0.5802459716796875,0.5462827682495117,-0.4335783421993255,-2.694896459579468,85.45915222167969,-128.60577392578125,279.83258056640625
1700075989,0.2003631591796875,1.3780059814453125,-0.7264251708984375,0.8915685415267944,-0.4137715995311737,-2.2402477264404297,85.74981689453125,-128.58761596679688,279.76983642578125
1700075989,0.2568817138671875,1.6092071533203125,-0.8501129150390625,0.9693469405174256,-0.3700989484786987,-1.7588557004928589,85.86470031738281,-128.4873809814453,278.98797607421875
1700075989,0.326202392578125,1.8853607177734373,-0.899383544921875,0.7788896560668945,-0.2738927900791168,-1.2998231649398804,86.11210632324219,-128.33840942382812,279.44677734375
1700075989,0.316680908203125,2.1256256103515625,-0.8460845947265625,0.7139362096786499,-0.2254339158535003,-1.0526384115219116,86.42863464355469,-128.4448699951172,278.86187744140625
1700075989,0.2476043701171875,2.116180419921875,-0.60821533203125,0.7728469371795654,0.0122374910861253,-1.0140774250030518,86.48876953125,-128.0417022705078,279.03125
1700075989,0.2080535888671875,1.7999420166015625,-0.5543060302734375,0.8709924221038818,0.4923580288887024,-1.0146867036819458,86.84144592285156,-128.07188415527344,279.5408935546875
1700075989,0.0848388671875,1.441680908203125,-1.04144287109375,1.0737344026565552,0.1008501797914505,-0.4601404368877411,86.77589416503906,-127.94093322753906,278.5669250488281
1700075989,0.295867919921875,1.457672119140625,-0.6121368408203125,-0.0343507826328277,-0.5966048240661621,-0.2434640526771545,87.1514892578125,-127.82054138183594,279.08453369140625
1700075989,1.58770751953125,1.178253173828125,0.1756591796875,-0.2679347693920135,-0.5736547708511353,-0.6040424704551697,87.38714599609375,-127.51144409179688,278.97137451171875
1700075989,2.21624755859375,0.4704132080078125,0.5514068603515625,-0.5052093863487244,-0.23589588701725,-0.2367976307868957,87.4368896484375,-127.64974975585938,278.9293212890625
1700075989,1.644622802734375,0.4919586181640625,0.2054595947265625,-0.6457997560501099,-0.16579669713974,0.3566694259643554,87.650390625,-127.5408935546875,278.554931640625
1700075989,1.3478546142578125,0.510589599609375,-0.3936309814453125,-0.7853145599365234,-0.3535402119159698,0.3606082499027252,88.1324462890625,-127.13128662109376,278.62139892578125
1700075989,1.70709228515625,0.11712646484375,-0.5408172607421875,-0.6762346625328064,-0.3787569105625152,0.2509374022483825,88.42727661132812,-126.99177551269533,278.42633056640625
1700075989,1.66497802734375,-0.12237548828125,-0.3975830078125,-0.3558696806430816,-0.1670505106449127,0.4800678193569183,88.31990051269531,-126.82757568359376,277.79595947265625
1700075989,1.02288818359375,-0.1070709228515625,-0.419952392578125,0.0368541553616523,-0.1082947850227356,0.5888012051582336,89.41557312011719,-126.62039184570312,277.3212280273437
1700075989,0.7470550537109375,0.008331298828125,-0.3255767822265625,0.0879048183560371,-0.0141264712437987,0.5801840424537659,89.32981872558594,-126.712890625,277.27410888671875
1700075989,0.655853271484375,0.376312255859375,-0.2850341796875,-0.0358605273067951,0.1582602113485336,0.2566573619842529,89.5013427734375,-126.42135620117188,278.28228759765625
1700075989,0.7576904296875,0.54583740234375,-0.212127685546875,-0.0061039649881422,0.2482092678546905,-0.0920747965574264,89.56759643554688,-125.85987854003906,278.0531616210937
1700075989,0.9450225830078124,0.582550048828125,-0.2623748779296875,0.055189486593008,0.1800512671470642,-0.2505515217781067,89.78848266601562,-125.3016357421875,277.32379150390625
1700075989,1.1259613037109375,0.469268798828125,-0.4085845947265625,0.1532308310270309,0.0861945375800132,-0.2985523343086242,90.17170715332033,-125.27629089355467,277.5999450683594
1700075989,1.140380859375,0.23260498046875,-0.4782562255859375,0.2469679713249206,0.0170823149383068,-0.2266680300235748,90.17927551269533,-125.30111694335938,277.4271850585937
1700075989,1.018585205078125,0.0798492431640625,-0.533721923828125,0.2411934435367584,-0.0973907336592674,-0.1093983948230743,90.96656799316406,-124.9457550048828,277.0862731933594
1700075989,0.962249755859375,0.0472412109375,-0.5369415283203125,0.1728522032499313,-0.1879970729351043,-0.0095234643667936,91.49424743652344,-124.42990112304688,277.464111328125
1700075989,0.955047607421875,0.1152801513671875,-0.50628662109375,0.0947294384241104,-0.2579860091209411,-0.0020266654901206,91.42965698242188,-123.8846435546875,277.21441650390625
1700075989,0.93231201171875,0.199859619140625,-0.4789276123046875,0.0604561530053615,-0.3024309575557709,-0.0580941960215568,92.1271514892578,-123.856689453125,277.42578125
1700075989,0.9152984619140624,0.245208740234375,-0.4571990966796875,0.0734182894229888,-0.3515729606151581,-0.120773822069168,92.4127960205078,-123.65087890625,277.2572937011719
1700075989,0.90594482421875,0.2531280517578125,-0.441680908203125,0.097285009920597,-0.3953324258327484,-0.1730644553899765,92.9094696044922,-122.77407836914062,277.145751953125
1700075989,0.886932373046875,0.247283935546875,-0.4505767822265625,0.1129973903298378,-0.4420077800750732,-0.2181528359651565,93.34164428710938,-122.6520538330078,276.600830078125
1700075989,0.902984619140625,0.241851806640625,-0.443145751953125,0.1350486278533935,-0.4796172082424164,-0.2607873976230621,93.75746154785156,-121.99343872070312,276.8363952636719
1700075989,0.960540771484375,0.2360992431640625,-0.421142578125,0.1460746526718139,-0.5006684064865112,-0.2858570516109466,94.49668884277344,-121.38528442382812,276.56036376953125
1700075989,1.0246429443359375,0.2209625244140625,-0.3922882080078125,0.1092093139886856,-0.5089641809463501,-0.2801693379878998,94.4360809326172,-121.1324462890625,276.998046875
1700075989,1.0338897705078125,0.2078704833984375,-0.389617919921875,0.036798495799303,-0.5220528244972229,-0.2629480063915252,94.97584533691406,-120.3498077392578,276.3564453125
1700075989,0.9999237060546876,0.1987762451171875,-0.400726318359375,-0.0050770500674843,-0.5459426641464233,-0.2618105709552765,95.91734313964844,-119.7960205078125,276.5418395996094
1700075989,0.9637451171875,0.2058563232421875,-0.389190673828125,0.011159710586071,-0.5567404627799988,-0.288142055273056,96.08702087402344,-119.36488342285156,276.386474609375
1700075989,0.9433135986328124,0.2061614990234375,-0.3743438720703125,0.0674594640731811,-0.5555668473243713,-0.3410510718822479,96.46818542480467,-118.10877990722656,276.23291015625
1700075989,0.948150634765625,0.20867919921875,-0.3424072265625,0.089562103152275,-0.5311693549156189,-0.3729962110519409,97.04696655273438,-117.54890441894533,276.0362548828125
1700075989,0.9704437255859376,0.209320068359375,-0.3137969970703125,0.142486035823822,-0.4779732227325439,-0.3806227147579193,97.61125183105467,-116.40248107910156,276.68194580078125
1700075989,0.961883544921875,0.2037506103515625,-0.3206634521484375,0.1951908022165298,-0.4882833957672119,-0.3789457082748413,98.7135009765625,-115.4948272705078,276.4459533691406
1700075989,0.936492919921875,0.2000579833984375,-0.324005126953125,0.1956299543380737,-0.4665879607200622,-0.4203083217144012,99.12820434570312,-114.99861145019533,276.4139099121094
1700075989,0.949798583984375,0.1831207275390625,-0.3358306884765625,0.1834390610456466,-0.4574692845344543,-0.4497346580028534,99.5438995361328,-113.6269073486328,276.76080322265625
1700075989,0.9539947509765624,0.17706298828125,-0.3349151611328125,0.2103846669197082,-0.449869155883789,-0.4477934837341308,99.95745849609376,-112.60113525390624,277.0615234375
1700075989,0.9707489013671876,0.17901611328125,-0.3336029052734375,0.2634159326553345,-0.4486062824726105,-0.4463812112808227,100.45426940917967,-111.44790649414062,276.650634765625
1700075989,1.00146484375,0.1768035888671875,-0.3054656982421875,0.3543921709060669,-0.4353088438510895,-0.4420972466468811,100.8363037109375,-110.42941284179688,276.9322204589844
1700075989,1.0251617431640625,0.1754913330078125,-0.2662811279296875,0.4857499301433563,-0.4018563628196716,-0.4234165251255035,101.06144714355467,-109.6728973388672,276.8602905273437
1700075989,1.0407867431640625,0.1800079345703125,-0.2580718994140625,0.5408022403717041,-0.4100551605224609,-0.4015738070011139,101.594970703125,-108.15707397460938,277.7714538574219
1700075989,1.0312652587890625,0.1710968017578125,-0.2314605712890625,0.4861659109592438,-0.3742891848087311,-0.3681106567382812,102.02505493164062,-106.6086883544922,277.89776611328125
1700075989,1.01373291015625,0.129791259765625,-0.2114105224609375,0.4512244462966919,-0.328641265630722,-0.3064480721950531,102.62400817871094,-104.37882995605467,278.0277709960937
1700075989,0.9539031982421876,0.100067138671875,-0.2642974853515625,0.3755765557289123,-0.37265345454216,-0.282017320394516,102.9064483642578,-102.06259155273438,278.91015625
1700075989,0.9423065185546876,0.0687103271484375,-0.3352813720703125,0.3564774394035339,-0.4356457591056824,-0.2690455913543701,103.72584533691406,-99.61026000976562,279.9667358398437
1700075989,0.9763336181640624,0.046234130859375,-0.336669921875,0.3387964367866516,-0.4940960109233856,-0.2503198385238647,104.0813446044922,-97.2404327392578,280.8298034667969
1700075989,1.009521484375,0.0408172607421875,-0.2874298095703125,0.3750969171524048,-0.4887060225009918,-0.2176042348146438,104.58631896972656,-94.79093933105467,281.25543212890625
1700075989,1.0284881591796875,0.0409393310546875,-0.256134033203125,0.4808182716369629,-0.4937370121479034,-0.1962307691574096,104.9696044921875,-92.10360717773438,282.10302734375
1700075989,1.0243377685546875,0.0539093017578125,-0.2699127197265625,0.6006930470466614,-0.5319363474845886,-0.2159711718559265,105.37117004394533,-89.66685485839844,282.50732421875
1700075989,1.0529632568359375,0.1005706787109375,-0.2811737060546875,0.7019570469856262,-0.543192446231842,-0.2539683580398559,105.59376525878906,-87.25128173828125,283.58355712890625
1700075989,1.0870361328125,0.1467437744140625,-0.2302093505859375,0.7465341091156006,-0.5244027972221375,-0.2330383062362671,105.66262817382812,-85.31149291992188,283.77716064453125
1700075989,1.0808868408203125,0.19439697265625,-0.1318359375,0.7470102906227112,-0.5074539184570312,-0.1948030441999435,106.15707397460938,-83.55438232421875,283.1571655273437
1700075989,1.099029541015625,0.1554107666015625,-0.090728759765625,0.7250160574913025,-0.4716484844684601,-0.1586112082004547,105.85496520996094,-81.65533447265625,282.9327697753906
1700075989,1.1389923095703125,0.0442352294921875,-0.13720703125,0.548946738243103,-0.4618440568447113,-0.0842067524790763,105.53858947753906,-79.964111328125,283.116943359375
1700075989,1.1875762939453125,-0.07855224609375,-0.16351318359375,0.3919134438037872,-0.4591966271400451,0.0268808826804161,105.33297729492188,-78.36268615722656,283.55963134765625
1700075989,1.1998748779296875,-0.1639404296875,-0.1836090087890625,0.2489144802093505,-0.5026133060455322,0.1241038367152214,105.40373229980467,-77.2271728515625,283.3175048828125
1700075989,1.1998443603515625,-0.1910400390625,-0.2125091552734375,0.162913292646408,-0.5620942115783691,0.1987583637237548,105.09754943847656,-75.81205749511719,283.666259765625
1700075989,1.233367919921875,-0.2080841064453125,-0.194610595703125,0.109318770468235,-0.5710744261741638,0.2852503955364227,104.51986694335938,-74.37576293945312,284.1041564941406
1700075989,1.278839111328125,-0.228759765625,-0.1504058837890625,0.1556021124124527,-0.5531318783760071,0.353528767824173,104.6794891357422,-72.90867614746094,284.0433349609375
1700075989,1.316192626953125,-0.2646331787109375,-0.08050537109375,0.1292908787727356,-0.5508428812026978,0.4359309673309326,104.14599609375,-71.77981567382812,285.1259765625
1700075989,1.3575592041015625,-0.30615234375,-0.0256500244140625,0.0174682065844535,-0.526842474937439,0.549242377281189,104.2434539794922,-70.64704895019531,284.8241271972656
1700075989,1.3825836181640625,-0.3769989013671875,0.028717041015625,-0.0616159588098526,-0.4640379846096039,0.6685311794281006,103.54417419433594,-69.63778686523438,284.4950866699219
1700075989,1.33001708984375,-0.4412689208984375,0.0813140869140625,-0.1192488968372345,-0.4245704710483551,0.7661970257759094,103.1961669921875,-68.6275634765625,285.014892578125
1700075989,1.2324066162109375,-0.4862213134765625,0.1361236572265625,-0.2289381027221679,-0.3702254593372345,0.8524280786514282,102.71168518066406,-67.73213195800781,285.6197509765625
1700075989,1.1538543701171875,-0.503448486328125,0.1248779296875,-0.4633468687534332,-0.2293794006109237,1.005767583847046,102.27789306640624,-66.40882873535156,286.2056884765625
1700075989,1.098175048828125,-0.45343017578125,-0.0090789794921875,-0.8556845784187317,0.0236012004315853,1.2663027048110962,102.20018005371094,-66.15205383300781,286.7025756835937
1700075989,1.0403289794921875,-0.334747314453125,-0.2845306396484375,-1.3051984310150146,0.4584898054599762,1.6521226167678833,101.96084594726562,-65.77880859375,287.40802001953125
1700075989,1.0391693115234375,-0.15191650390625,-0.6842803955078125,-1.562641143798828,0.7912086248397827,1.975022315979004,101.3112335205078,-65.47412109375,287.7119140625
1700075989,1.1761474609375,-0.0322418212890625,-1.019805908203125,-1.6520360708236694,0.7191382050514221,2.30130386352539,101.29519653320312,-65.7139892578125,288.2830810546875
1700075989,1.492706298828125,0.1599884033203125,-1.2197265625,-1.5181230306625366,0.3468844592571258,2.690010070800781,100.332275390625,-65.60643005371094,288.7466735839844
1700075989,1.566162109375,0.400421142578125,-1.0922393798828125,-1.1303949356079102,0.2343347370624542,3.10983943939209,100.47956848144533,-65.60134887695312,289.2601623535156
1700075989,1.3341217041015625,0.57122802734375,-0.7692413330078125,-0.5761820673942566,0.2356687188148498,3.56875228881836,100.27513122558594,-65.86541748046875,289.5053405761719
1700075989,1.2220306396484375,0.73797607421875,-0.4231414794921875,-0.2020926475524902,0.4735673069953918,3.738922595977783,99.6854248046875,-65.72770690917969,290.7008056640625
1700075989,1.368133544921875,0.841827392578125,-0.2382659912109375,0.1172483265399932,1.2033932209014893,3.551626682281494,99.23605346679688,-66.74198913574219,290.25994873046875
1700075989,1.6474609375,0.976165771484375,-0.2644500732421875,0.8887197375297546,1.6990584135055542,3.277149438858032,98.88438415527344,-66.90480041503906,290.89410400390625
1700075989,1.90594482421875,1.0389862060546875,-0.3465423583984375,1.2503128051757812,1.7567092180252075,2.930830478668213,98.24290466308594,-66.96408081054688,291.6085205078125
1700075989,1.976806640625,0.9051055908203124,-0.4963531494140625,1.1326134204864502,1.7181476354599,2.69945764541626,97.8321533203125,-67.60287475585938,292.4220275878906
1700075989,1.8273773193359373,0.687347412109375,-0.6418304443359375,1.0130600929260254,1.622273564338684,2.6560070514678955,97.58563232421876,-67.38786315917969,292.91766357421875
1700075989,1.6732940673828125,0.539154052734375,-0.6253814697265625,0.8702981472015381,1.4644157886505127,2.6928915977478027,96.96969604492188,-67.90409851074219,293.169921875
1700075989,1.60809326171875,0.45098876953125,-0.597503662109375,0.5934510827064514,1.3208794593811035,2.628840208053589,96.44322204589844,-68.37113952636719,293.8397216796875
1700075989,1.5651397705078125,0.3476715087890625,-0.614715576171875,0.3639960587024688,1.207147479057312,2.4497056007385254,95.69123840332033,-68.11346435546875,294.2030029296875
1700075989,1.4611053466796875,0.2395477294921875,-0.57537841796875,0.1399555057287216,1.1739139556884766,2.191203355789185,95.75765991210938,-68.58877563476562,294.456298828125
1700075989,1.3283843994140625,0.16058349609375,-0.53997802734375,-0.0849604308605194,1.1204160451889038,1.9607475996017456,94.9669189453125,-69.062255859375,294.7536315917969
1700075989,1.1702423095703125,0.12158203125,-0.4545135498046875,-0.1910799443721771,1.0612521171569824,1.7743792533874512,94.8325653076172,-69.55645751953125,294.6751403808594
1700075989,0.9929351806640624,0.079864501953125,-0.32354736328125,-0.2683843076229095,1.0134084224700928,1.5778864622116089,94.26612854003906,-69.76600646972656,295.4815673828125
1700075989,0.84814453125,0.0257415771484375,-0.2258758544921875,-0.3910564482212066,0.990456223487854,1.2741894721984863,94.20671081542967,-69.96791076660156,295.4489440917969
1700075989,0.772491455078125,-0.0306396484375,-0.19696044921875,-0.5399825572967529,0.9017404913902284,0.9286834001541138,94.14190673828124,-69.92204284667969,296.1893310546875
1700075990,0.6836395263671875,-0.067138671875,-0.1734771728515625,-0.6690547466278076,0.8113730549812317,0.5948343276977539,94.08558654785156,-70.48580932617188,296.1735534667969
1700075990,0.5679168701171875,-0.1071014404296875,-0.1370391845703125,-0.7264304161071777,0.6919089555740356,0.2975512444972992,93.8718719482422,-70.56173706054688,295.9744873046875
1700075990,0.4341278076171875,-0.14068603515625,-0.0881500244140625,-0.6583949327468872,0.5856421589851379,0.0103066992014646,93.79843139648438,-70.40859985351562,295.70574951171875
1700075990,0.3170623779296875,-0.18438720703125,-0.0537872314453125,-0.5721479058265686,0.5012476444244385,-0.2621527910232544,94.00180053710938,-70.82548522949219,295.7602233886719
1700075990,0.2220611572265625,-0.21929931640625,-0.0500946044921875,-0.5425839424133301,0.4098594188690185,-0.5081239342689514,93.68881225585938,-70.86338806152344,296.10040283203125
1700075990,0.1645660400390625,-0.20684814453125,-0.1072540283203125,-0.5407090783119202,0.3216280937194824,-0.7822825312614441,93.4541015625,-70.92793273925781,295.775634765625
1700075990,0.13421630859375,-0.1739654541015625,-0.1504974365234375,-0.6304959058761597,0.1867898553609848,-1.1525143384933472,93.17124938964844,-70.88533020019531,296.5980834960937
1700075990,0.141510009765625,-0.193145751953125,-0.1406402587890625,-0.6985447406768799,0.0828607976436615,-1.5268690586090088,93.03855895996094,-69.67903137207031,297.2577514648437
1700075990,0.1446075439453125,-0.2317657470703125,-0.1208343505859375,-0.7764009237289429,0.0250073485076427,-1.785305380821228,92.79457092285156,-68.99050903320312,296.4559936523437
1700075990,0.090667724609375,-0.2190704345703125,-0.1193389892578125,-0.8636705875396729,-0.0373433753848075,-1.9822485446929927,93.21763610839844,-68.89100646972656,296.4839782714844
1700075990,0.028106689453125,-0.2205657958984375,-0.17431640625,-0.8675441741943359,-0.1263166517019271,-2.179759740829468,92.93252563476562,-68.84117126464844,296.40069580078125
1700075990,0.0059814453125,-0.1965789794921875,-0.2134857177734375,-0.9116879105567932,-0.1932370960712433,-2.4164280891418457,92.80322265625,-68.58116149902344,296.4986572265625
1700075990,0.0101776123046875,-0.143341064453125,-0.212432861328125,-1.064267635345459,-0.2133772522211074,-2.69941782951355,92.98736572265624,-68.65020751953125,296.41796875
1700075990,0.0392913818359375,-0.1265411376953125,-0.21759033203125,-1.240248203277588,-0.3028815686702728,-2.957249641418457,93.02890014648438,-68.613037109375,296.5699462890625
1700075990,0.0457305908203125,-0.0838470458984375,-0.23095703125,-1.3054174184799194,-0.4176230728626251,-3.110437631607056,92.96014404296876,-68.99504089355469,296.1099853515625
1700075990,0.0674591064453125,0.025665283203125,-0.208099365234375,-1.183366298675537,-0.4385653734207153,-3.1485435962677,93.11297607421876,-69.03146362304688,296.0911865234375
1700075990,0.1305389404296875,0.1243743896484375,-0.154083251953125,-1.0742381811141968,-0.41684091091156,-3.1436972618103027,93.0008544921875,-69.07838439941406,296.69793701171875
1700075990,0.1448516845703125,0.260498046875,-0.1861572265625,-0.8516578674316406,-0.4312304854393005,-3.168085813522339,92.7652587890625,-69.00381469726562,296.0088195800781
1700075990,0.1601104736328125,0.42388916015625,-0.3018646240234375,-0.6033202409744263,-0.3769581913948059,-3.1563942432403564,92.4702606201172,-68.99856567382812,296.20068359375
1700075990,0.186676025390625,0.5870513916015625,-0.413116455078125,-0.4061717391014099,-0.2957395017147064,-3.0824134349823,92.55810546875,-69.18098449707031,296.1932373046875
1700075990,0.230987548828125,0.7972869873046875,-0.49981689453125,-0.1876673698425293,-0.2524112164974212,-2.946093797683716,92.73538208007812,-69.53652954101562,296.656982421875
1700075990,0.3270721435546875,1.012969970703125,-0.52252197265625,0.0326607413589954,-0.2179871946573257,-2.7556941509246826,92.19309997558594,-69.26473999023438,296.77069091796875
1700075990,0.417236328125,1.16796875,-0.5492706298828125,0.2220226824283599,-0.1403160989284515,-2.4441871643066406,92.3002471923828,-69.14353942871094,296.3843994140625
1700075990,0.438812255859375,1.2864837646484375,-0.6440887451171875,0.5496982932090759,-0.0495164208114147,-2.1548328399658203,92.56715393066406,-69.18809509277344,296.8407592773437
1700075990,0.455230712890625,1.3465576171875,-0.7261199951171875,0.7155303955078125,-0.0133967651054263,-1.64296293258667,92.31071472167967,-69.14262390136719,297.24481201171875
1700075990,0.3968505859375,1.5814208984375,-0.7677154541015625,0.752776026725769,0.0368509590625762,-1.201016187667847,91.95840454101562,-69.87619018554688,297.2745361328125
1700075990,0.3971405029296875,1.7156982421875,-0.694427490234375,0.9566958546638488,0.119594044983387,-0.9038273096084596,92.44456481933594,-69.88069152832031,297.25518798828125
1700075990,0.3783721923828125,1.7509765625,-0.5752410888671875,1.2030305862426758,0.2100935876369476,-0.7121111750602722,92.29090881347656,-70.38481140136719,297.60113525390625
1700075990,0.367095947265625,1.6746978759765625,-0.4971466064453125,0.8984288573265076,0.8315464854240417,-0.8740635514259338,92.4669189453125,-70.90953063964844,297.6884155273437
1700075990,0.4489593505859375,1.337066650390625,-1.0003204345703125,1.1154497861862185,0.5720043778419495,-0.8538895845413208,91.97892761230467,-71.00094604492188,297.39178466796875
1700075990,0.587677001953125,1.0373992919921875,-0.6828765869140625,0.5597016215324402,-0.0263394620269536,-0.3877360224723816,91.51457214355467,-71.34512329101562,297.7461242675781
1700075990,1.1168975830078125,0.94110107421875,-0.099700927734375,-0.4441524147987366,-0.2887463271617889,-0.4996524155139923,91.59854125976562,-71.38668823242188,297.8392333984375
1700075990,1.886566162109375,0.3931732177734375,0.083984375,-0.5875881314277649,-0.3008916676044464,-0.3593794703483581,91.6042022705078,-71.54397583007812,297.8045654296875
1700075990,1.9568023681640625,0.238861083984375,0.112457275390625,-0.8036898374557495,-0.2234480082988739,0.19590824842453,91.64906311035156,-72.00865173339844,298.8370666503906
1700075990,1.4406280517578125,0.2334136962890625,-0.36553955078125,-0.7387294769287109,-0.4479495584964752,0.6142882108688354,91.46640014648438,-72.33218383789062,298.7908935546875
1700075990,1.179046630859375,0.1182098388671875,-0.51068115234375,-0.2729947865009308,-0.5560842752456665,0.7252501249313354,91.43524169921876,-72.53744506835938,298.4685363769531
1700075990,1.339080810546875,0.119659423828125,-0.3822479248046875,-0.2360796481370926,-0.5057380199432373,0.7636662125587463,91.4431610107422,-72.6888427734375,298.89434814453125
1700075990,1.7825164794921875,0.27557373046875,-0.2772064208984375,-0.2747849524021148,-0.4099529087543487,0.7380341291427612,91.48838806152344,-72.78868103027344,298.7024230957031
1700075990,1.545440673828125,0.3184051513671875,-0.2847137451171875,-0.2023847997188568,-0.3199625611305237,0.6517053246498108,91.10212707519533,-73.052001953125,299.0391845703125
1700075990,0.696868896484375,0.2971038818359375,-0.458343505859375,-0.090567447245121,-0.3336693048477173,0.4737630486488342,90.99595642089844,-73.30007934570312,298.47296142578125
1700075990,0.391448974609375,0.4111785888671875,-0.4490966796875,-0.1831493079662323,-0.2760363817214966,0.1578895002603531,90.6595458984375,-73.67575073242188,299.6890869140625
1700075990,0.6397705078125,0.4927520751953125,-0.386138916015625,-0.1560857445001602,-0.2143852710723877,-0.1338163912296295,90.53387451171876,-74.08245849609375,298.6322021484375
1700075990,0.9454193115234376,0.4781341552734375,-0.335418701171875,-0.0157613866031169,-0.2303695529699325,-0.2611314654350281,90.6206512451172,-73.97833251953125,299.52056884765625
1700075990,1.2126922607421875,0.402984619140625,-0.2433319091796875,0.0421117655932903,-0.1936432421207428,-0.3012253642082214,90.60494995117188,-74.53404235839844,298.88067626953125
1700075990,1.20953369140625,0.2908477783203125,-0.3333892822265625,0.0898169726133346,-0.1582940369844436,-0.324835866689682,90.66920471191406,-74.51808166503906,299.23785400390625
1700075990,0.99066162109375,0.18798828125,-0.428558349609375,0.0862984061241149,-0.164617970585823,-0.3301422297954559,91.14962768554688,-74.41522216796875,299.1882019042969
1700075990,0.849884033203125,0.1547698974609375,-0.453643798828125,0.0437000766396522,-0.1795553863048553,-0.3566537201404571,90.3154754638672,-74.59275817871094,299.47930908203125
1700075990,0.9201202392578124,0.1678009033203125,-0.4210205078125,-0.005870406050235,-0.1947939842939376,-0.3953990042209625,90.8097686767578,-74.700927734375,299.2491455078125
1700075990,1.022674560546875,0.2124176025390625,-0.4100189208984375,0.0242957528680562,-0.2304619699716568,-0.4322265088558197,90.66404724121094,-74.8741455078125,299.7186889648437
1700075990,1.03399658203125,0.2421875,-0.4339599609375,0.0838938355445861,-0.2896896004676819,-0.4810382723808288,90.60951232910156,-74.73298645019531,299.0792236328125
1700075990,0.9939727783203124,0.2469024658203125,-0.4595947265625,0.107106477022171,-0.3684781491756439,-0.5343129634857178,90.65513610839844,-74.73995971679688,299.70245361328125
1700075990,0.9645538330078124,0.23370361328125,-0.46881103515625,0.1185271814465522,-0.4369906485080719,-0.5931626558303833,90.29786682128906,-74.95689392089844,298.7982177734375
1700075990,0.9623870849609376,0.18585205078125,-0.460784912109375,0.1830702126026153,-0.4788153171539306,-0.6119808554649353,90.65228271484376,-75.49908447265625,299.59149169921875
1700075990,0.92510986328125,0.13787841796875,-0.461700439453125,0.2380075007677078,-0.5302995443344116,-0.5643957257270813,90.84176635742188,-75.01087951660156,299.3035888671875
1700075990,0.8896026611328125,0.11163330078125,-0.4514923095703125,0.2200812399387359,-0.5848938226699829,-0.5072352290153503,90.45173645019533,-75.54339599609375,299.3568115234375
1700075990,0.893707275390625,0.0986480712890625,-0.43408203125,0.1534444093704223,-0.616124153137207,-0.469032734632492,90.48289489746094,-75.11637878417969,299.35089111328125
1700075990,0.9019012451171876,0.0972747802734375,-0.4391937255859375,0.0900084525346756,-0.6474229693412781,-0.4496800601482391,90.79647827148438,-74.88919067382812,299.4931030273437
1700075990,0.904388427734375,0.105133056640625,-0.4206085205078125,0.0369010269641876,-0.6663117408752441,-0.4307045042514801,90.50753784179688,-74.89016723632812,299.8580322265625
1700075990,0.92095947265625,0.115478515625,-0.3759307861328125,0.0198730397969484,-0.6538792848587036,-0.4278088510036468,90.35740661621094,-74.51260375976562,299.71044921875
1700075990,0.93878173828125,0.123382568359375,-0.342254638671875,0.0117586553096771,-0.6399253606796265,-0.4348625242710113,90.98519897460938,-74.41838073730469,299.6307983398437
1700075990,0.94659423828125,0.131988525390625,-0.324127197265625,0.0102374572306871,-0.6131014823913574,-0.437840461730957,91.14347839355467,-73.86448669433594,299.5501708984375
1700075990,0.9411773681640624,0.14111328125,-0.3394775390625,0.0076991985552012,-0.6006608009338379,-0.4552697837352752,90.44548034667967,-73.50755310058594,300.1202392578125
1700075990,0.9246063232421876,0.145843505859375,-0.355987548828125,-0.0215721372514963,-0.6145406365394592,-0.4932959973812103,90.65191650390624,-73.1982421875,299.7745056152344
1700075990,0.92462158203125,0.1457672119140625,-0.3395843505859375,-0.0425099097192287,-0.5945522785186768,-0.5232938528060913,90.7242431640625,-72.70973205566406,299.4579772949219
1700075990,0.9191436767578124,0.1442108154296875,-0.3106231689453125,-0.0585727654397487,-0.5515931248664856,-0.5421854853630066,90.80030822753906,-72.61982727050781,299.7938232421875
1700075990,0.922119140625,0.1334991455078125,-0.2950592041015625,-0.0680818483233451,-0.5280819535255432,-0.5336370468139648,91.1103057861328,-71.52438354492188,300.1400756835937
1700075990,0.9352874755859376,0.1138916015625,-0.285675048828125,-0.069799855351448,-0.5056333541870117,-0.5192985534667969,91.18025207519533,-70.87049865722656,300.1810607910156
1700075990,0.939788818359375,0.0885467529296875,-0.29681396484375,-0.041086982935667,-0.4960832595825195,-0.4998353719711303,91.09368896484376,-70.33523559570312,299.85723876953125
1700075990,0.93743896484375,0.0608978271484375,-0.3008880615234375,0.0322351679205894,-0.488614946603775,-0.4718953669071197,91.44921875,-69.17745971679688,299.4151611328125
1700075990,0.9398651123046876,0.0413055419921875,-0.30316162109375,0.1060731709003448,-0.4957256019115448,-0.4314014613628387,91.73013305664062,-66.96537780761719,298.81549072265625
1700075990,0.936065673828125,0.0441131591796875,-0.305755615234375,0.112729474902153,-0.4995285868644714,-0.4053871631622314,91.97959899902344,-64.71202087402344,298.49334716796875
1700075990,0.9603271484375,0.067352294921875,-0.3064727783203125,0.078114241361618,-0.4977802336215973,-0.4089763164520263,92.1820068359375,-62.22320556640625,297.9787902832031
1700075990,0.9610595703125,0.0889892578125,-0.26190185546875,0.038436871021986,-0.4294088780879974,-0.4342904686927795,92.0509796142578,-59.8223876953125,297.2669677734375
1700075990,0.9374237060546876,0.081512451171875,-0.25830078125,0.0847500413656234,-0.3778040111064911,-0.4088996052742004,91.35325622558594,-57.25177001953125,296.72906494140625
1700075990,0.9095001220703124,0.052459716796875,-0.268768310546875,0.1683863550424575,-0.385760486125946,-0.3583648204803467,91.19577026367188,-55.04975891113281,296.372314453125
1700075990,0.92626953125,0.0070953369140625,-0.2812652587890625,0.1861056834459304,-0.4021112322807312,-0.3108718693256378,90.38314819335938,-53.11262512207031,295.337646484375
1700075990,0.9460296630859376,-0.0224456787109375,-0.276885986328125,0.1587813943624496,-0.3867301344871521,-0.2608614265918731,90.07342529296876,-50.89414978027344,295.279296875
1700075990,0.9412689208984376,-0.037506103515625,-0.2734832763671875,0.1353943049907684,-0.3709189593791961,-0.2411449700593948,90.05813598632812,-49.41883850097656,294.53778076171875
1700075990,0.9537506103515624,-0.048248291015625,-0.2562103271484375,0.1095310226082801,-0.3542145490646362,-0.2057180106639862,89.77090454101562,-48.385101318359375,293.5723876953125
1700075990,0.971954345703125,-0.0270538330078125,-0.23126220703125,0.1101222410798072,-0.3057231605052948,-0.1517887264490127,89.37747192382812,-47.71705627441406,293.10076904296875
1700075990,0.977630615234375,-0.00335693359375,-0.217620849609375,0.1669000387191772,-0.2687667608261108,-0.1042081639170646,89.22395324707031,-46.80751037597656,293.0282592773437
1700075990,0.9781494140625,-0.013519287109375,-0.1609344482421875,0.1942051649093628,-0.1984792649745941,-0.0286665316671133,89.71304321289062,-46.3212890625,292.3974609375
1700075990,0.9504547119140624,-0.0165557861328125,-0.156005859375,0.1848859637975692,-0.1272386461496353,0.0621488578617572,89.22792053222656,-45.83137512207031,291.7839660644531
1700075990,0.906158447265625,-0.054107666015625,-0.19427490234375,0.1778845191001892,-0.0745224356651306,0.1363003104925155,89.26010131835938,-45.02684020996094,291.4982604980469
1700075990,0.88836669921875,-0.1197052001953125,-0.2252044677734375,0.166579395532608,-0.0587546601891517,0.1900040209293365,89.24221801757812,-44.99903869628906,291.1449584960937
1700075990,0.90081787109375,-0.1756744384765625,-0.2355804443359375,0.1202012449502945,-0.0323752500116825,0.2855289578437805,88.76771545410156,-44.37969970703125,290.92633056640625
1700075990,0.9048004150390624,-0.1561431884765625,-0.256622314453125,0.0438012778759002,-0.0255136154592037,0.4031775593757629,89.06083679199219,-44.33079528808594,290.5702819824219
1700075990,0.91754150390625,-0.07122802734375,-0.24200439453125,0.0234440732747316,-0.004471180960536,0.4699669778347015,88.87753295898438,-43.96504211425781,290.328857421875
1700075990,0.9546966552734376,-0.0024261474609375,-0.2052459716796875,0.0701236948370933,0.0383588410913944,0.5075521469116211,88.95506286621094,-43.47442626953125,289.506103515625
1700075990,0.9612274169921876,0.0677337646484375,-0.1836395263671875,0.1062215119600296,0.0670967474579811,0.5338647365570068,89.20606994628906,-43.56898498535156,289.07281494140625
1700075990,0.9654083251953124,0.1021728515625,-0.170196533203125,0.154886245727539,0.1202907264232635,0.5512596964836121,89.13702392578125,-43.19659423828125,288.7242431640625
1700075990,0.962249755859375,0.0338592529296875,-0.1690216064453125,0.1580234616994857,0.1619675904512405,0.6142096519470215,89.39743041992188,-43.53692626953125,287.99920654296875
1700075990,0.93951416015625,-0.0673980712890625,-0.204498291015625,0.0828520059585571,0.177284762263298,0.7205488681793213,89.57798767089844,-43.29252624511719,287.2901306152344
1700075990,0.9312896728515624,-0.1128082275390625,-0.28643798828125,0.0421804748475551,0.1576189249753952,0.8115764856338501,90.0206298828125,-43.40304565429688,287.2216186523437
1700075990,0.95257568359375,-0.083343505859375,-0.3220672607421875,-0.0023398532066494,0.1293782293796539,0.8350687623023987,90.43040466308594,-43.88156127929688,286.5802001953125
1700075990,0.97509765625,0.022979736328125,-0.287200927734375,-0.0173957683145999,0.1372478753328323,0.8288590908050537,90.95968627929688,-44.13706970214844,285.851318359375
1700075990,0.96234130859375,0.15643310546875,-0.221588134765625,0.0204663928598165,0.1659082770347595,0.8122532367706299,91.26556396484376,-44.543060302734375,285.34088134765625
1700075990,0.963623046875,0.2494354248046875,-0.1599578857421875,0.0524757243692874,0.1940954327583313,0.7829768061637878,92.54156494140624,-44.9853515625,285.28826904296875
1700075990,1.01275634765625,0.2533416748046875,-0.150299072265625,0.0819396078586578,0.2065635621547699,0.7643072605133057,93.02627563476562,-45.30506896972656,284.63336181640625
1700075990,1.0464935302734375,0.19134521484375,-0.197845458984375,0.085648588836193,0.1858321875333786,0.7716138958930969,93.61735534667967,-45.898956298828125,284.5325622558594
1700075991,1.0381927490234375,0.1235198974609375,-0.2738189697265625,0.0945928171277046,0.153484895825386,0.7874325513839722,93.92634582519533,-46.889739990234375,284.5379638671875
1700075991,1.0330047607421875,0.059967041015625,-0.3015899658203125,0.0978631824254989,0.1141164526343345,0.8185443878173828,94.73974609375,-47.8768310546875,284.6571044921875
1700075991,1.046356201171875,0.04595947265625,-0.3323211669921875,0.0857519209384918,0.0273490659892559,0.8422699570655823,95.3223876953125,-48.26222229003906,284.803955078125
1700075991,1.1027679443359375,0.0924072265625,-0.3183135986328125,0.1301319003105163,-0.0776833444833755,0.8531209826469421,95.70375061035156,-49.5006103515625,285.05487060546875
1700075991,1.2041778564453125,0.1898345947265625,-0.2216949462890625,0.1079009026288986,-0.11729546636343,0.8276643753051758,96.44017028808594,-51.243194580078125,285.6620788574219
1700075991,1.27349853515625,0.2758941650390625,-0.2016143798828125,0.1550878584384918,-0.1494941562414169,0.7729843854904175,96.81776428222656,-51.94285583496094,285.64501953125
1700075991,1.3224029541015625,0.276031494140625,-0.15069580078125,0.0377436503767967,-0.2087811678647995,0.7776840329170227,96.88311767578124,-52.68882751464844,286.08563232421875
1700075991,1.341064453125,0.220123291015625,-0.11907958984375,-0.1375517398118972,-0.2383638322353363,0.8242440819740295,97.02413940429688,-53.56324768066406,285.8441162109375
1700075991,1.3376922607421875,0.100189208984375,-0.160308837890625,-0.2781040668487549,-0.3085346519947052,0.8714411854743958,97.44032287597656,-54.52438354492188,285.7723388671875
1700075991,1.3445587158203125,0.055877685546875,-0.2323455810546875,-0.2937639653682709,-0.4251006841659546,0.880105197429657,97.89393615722656,-54.56172180175781,286.3436584472656
1700075991,1.40679931640625,0.0688934326171875,-0.252105712890625,-0.1179295629262924,-0.5355246663093567,0.8335241675376892,97.71629333496094,-54.80592346191406,286.20703125
1700075991,1.508819580078125,0.07647705078125,-0.2782135009765625,0.1082774698734283,-0.6896167993545532,0.748894989490509,98.19544982910156,-55.08201599121094,285.695068359375
1700075991,1.6537933349609375,0.0566864013671875,-0.2210693359375,0.3767001330852508,-0.8055652379989624,0.6652517914772034,98.04544067382812,-55.47406005859375,285.82452392578125
1700075991,1.7621307373046875,0.003936767578125,-0.0820465087890625,0.5362194776535034,-0.8495582342147827,0.5858680009841919,97.82911682128906,-56.08757019042969,286.64190673828125
1700075991,1.7689208984375,-0.101043701171875,0.0531005859375,0.5000508427619934,-0.8526735901832581,0.588699221611023,97.93516540527344,-56.03126525878906,286.69561767578125
1700075991,1.6960601806640625,-0.230743408203125,0.1821136474609375,0.366453617811203,-0.8391841650009155,0.6346840262413025,98.30793762207033,-55.96949768066406,286.226806640625
1700075991,1.569183349609375,-0.349029541015625,0.2820587158203125,0.3308141529560089,-0.819951057434082,0.6511961221694946,98.15512084960938,-55.83566284179688,286.94122314453125
1700075991,1.4440460205078125,-0.4746856689453125,0.3358001708984375,0.3041662871837616,-0.7831874489784241,0.633079469203949,98.1265106201172,-55.6392822265625,286.132568359375
1700075991,1.341278076171875,-0.5485992431640625,0.311279296875,0.2259710878133773,-0.7134478092193604,0.5940346121788025,97.82080078125,-55.79518127441406,286.92547607421875
1700075991,1.2640533447265625,-0.5613861083984375,0.150146484375,0.036146018654108,-0.4885113537311554,0.6727467179298401,98.17823791503906,-55.53887939453125,286.56695556640625
1700075991,1.19183349609375,-0.4420013427734375,-0.2206268310546875,-0.446098655462265,-0.1927034109830856,1.0843260288238523,97.60980224609376,-55.114593505859375,286.7235107421875
1700075991,1.026702880859375,-0.1180572509765625,-0.7471771240234375,-1.2742080688476562,0.0430571883916854,1.6813169717788696,97.40867614746094,-54.73112487792969,286.136474609375
1700075991,0.9173736572265624,0.1456298828125,-1.2282867431640625,-2.141955614089966,0.1002533659338951,2.089409589767456,97.36361694335938,-54.53242492675781,286.2968139648437
1700075991,0.9748077392578124,0.1383056640625,-1.3714141845703125,-2.574403047561645,0.0513502731919288,2.328798770904541,97.5446319580078,-54.452392578125,286.35662841796875
1700075991,1.01776123046875,0.1131439208984375,-1.17578125,-2.795936107635498,0.0164998807013034,2.943480968475342,97.48863220214844,-54.52122497558594,286.3635559082031
1700075991,0.96575927734375,0.405975341796875,-0.852630615234375,-2.745732069015503,0.0742433369159698,3.5975470542907715,97.6851806640625,-54.81925964355469,286.2391357421875
1700075991,0.97747802734375,0.68682861328125,-0.578216552734375,-2.5217442512512207,0.0874813795089721,4.040561676025391,97.5710906982422,-55.14566040039063,286.6514892578125
1700075991,1.1544952392578125,0.9549560546875,-0.251007080078125,-2.2977406978607178,0.4125984907150268,4.035944938659668,97.78742980957033,-54.66703796386719,286.2575378417969
1700075991,1.3151092529296875,1.1071929931640625,-0.2378692626953125,-1.5457463264465332,0.7859422564506531,3.777401447296143,97.73138427734376,-54.85893249511719,286.84478759765625
1700075991,1.3369140625,1.2145233154296875,-0.3583984375,-0.7348236441612244,0.706080436706543,3.5940330028533936,97.61688232421876,-55.21466064453125,286.45281982421875
1700075991,1.3848876953125,1.2743377685546875,-0.386566162109375,-0.4644696712493896,0.6104844212532043,3.329277515411377,97.41485595703124,-55.11390686035156,287.016357421875
1700075991,1.4578704833984375,0.9152374267578124,-0.416778564453125,-0.1891076117753982,0.7224285006523132,3.0721657276153564,97.76431274414062,-55.316802978515625,286.79656982421875
1700075991,1.348388671875,0.3875274658203125,-0.3929595947265625,-0.0980860888957977,0.8343555927276611,2.931550979614258,97.48411560058594,-55.26580810546875,287.26300048828125
1700075991,1.1995849609375,0.1844329833984375,-0.4234619140625,-0.1274631470441818,0.7700527310371399,2.990558862686157,97.32443237304688,-55.31217956542969,287.487548828125
1700075991,1.0637054443359375,0.1777191162109375,-0.4227752685546875,-0.0491153486073017,0.6034254431724548,3.118809223175049,97.43148803710938,-55.5047607421875,287.8583374023437
1700075991,0.9793701171875,0.1753692626953125,-0.3922271728515625,0.128679946064949,0.4590629339218139,3.104017496109009,97.67880249023438,-55.61030578613281,287.60479736328125
1700075991,0.9476470947265624,0.1491546630859375,-0.34326171875,0.2791586816310882,0.3631401360034942,2.930509328842163,97.51174926757812,-55.84869384765625,287.75006103515625
1700075991,0.914093017578125,0.160186767578125,-0.2885589599609375,0.3504666686058044,0.2845973670482635,2.698180913925171,97.56997680664062,-55.737335205078125,288.3467102050781
1700075991,0.82684326171875,0.1739654541015625,-0.2618408203125,0.3132785558700561,0.1894748508930206,2.464951276779175,97.16795349121094,-56.54057312011719,288.05938720703125
1700075991,0.725921630859375,0.1563720703125,-0.2679595947265625,0.2056831270456314,0.03414998203516,2.252685070037842,97.38197326660156,-56.41693115234375,288.7056884765625
1700075991,0.627532958984375,0.10211181640625,-0.2601318359375,0.0595352314412593,-0.1605095118284225,2.009104490280152,97.16099548339844,-56.64436340332031,288.516357421875
1700075991,0.5569610595703125,-0.00042724609375,-0.2473297119140625,-0.1280250698328018,-0.3703879117965698,1.758187770843506,96.9830322265625,-56.60615539550781,288.775146484375
1700075991,0.4801177978515625,-0.0959014892578125,-0.210906982421875,-0.3526027798652649,-0.5716832280158997,1.538120985031128,97.37077331542967,-57.02069091796875,289.4154663085937
1700075991,0.388031005859375,-0.157196044921875,-0.166229248046875,-0.6010826230049133,-0.7494558691978455,1.3413724899291992,97.34490966796876,-57.09968566894531,289.1961975097656
1700075991,0.30645751953125,-0.180267333984375,-0.1600494384765625,-0.829516589641571,-0.9073376655578612,1.1352888345718384,97.29164123535156,-57.61831665039063,289.0946655273437
1700075991,0.253021240234375,-0.1708831787109375,-0.1855621337890625,-1.0433330535888672,-1.039805889129639,0.877709150314331,97.2292938232422,-57.55859375,289.037353515625
1700075991,0.2471771240234375,-0.1380462646484375,-0.2203369140625,-1.2385212182998655,-1.1733996868133545,0.6145566701889038,97.35140991210938,-57.87901306152344,289.0470275878906
1700075991,0.25994873046875,-0.0899658203125,-0.224212646484375,-1.3917114734649658,-1.3195114135742188,0.3869591653347015,96.75276184082033,-57.950469970703125,289.8677062988281
1700075991,0.2840728759765625,-0.0424652099609375,-0.2292022705078125,-1.5225802659988403,-1.463001728057861,0.180363118648529,96.89100646972656,-58.07841491699219,290.091064453125
1700075991,0.3059234619140625,-0.0104522705078125,-0.2486724853515625,-1.6778215169906616,-1.5977962017059326,-0.019675699993968,97.27311706542967,-58.53094482421875,290.6879272460937
1700075991,0.3252410888671875,0.0085601806640625,-0.2706298828125,-1.8074346780776973,-1.749286651611328,-0.237260490655899,96.69734191894533,-58.878662109375,290.3930053710937
1700075991,0.34344482421875,-9.1552734375e-05,-0.262969970703125,-1.88699209690094,-1.921003341674805,-0.464178591966629,97.07093811035156,-58.94889831542969,290.71099853515625
1700075991,0.36126708984375,-0.028656005859375,-0.23681640625,-1.9837076663970947,-2.0960068702697754,-0.6906846761703491,96.93472290039062,-59.18077087402344,290.4899597167969
1700075991,0.3758087158203125,-0.05718994140625,-0.23541259765625,-2.1106345653533936,-2.2384488582611084,-0.8921360373497009,96.84947204589844,-59.35118103027344,290.77154541015625
1700075991,0.3807220458984375,-0.071807861328125,-0.2480621337890625,-2.2599964141845703,-2.348629236221313,-1.073543667793274,96.692138671875,-59.01609802246094,290.8819580078125
1700075991,0.381439208984375,-0.0749969482421875,-0.265045166015625,-2.4262611865997314,-2.454118013381958,-1.2349025011062622,96.68829345703124,-59.42669677734375,291.32647705078125
1700075991,0.4014434814453125,-0.060272216796875,-0.29034423828125,-2.542241096496582,-2.559073209762573,-1.3910582065582275,96.26583862304688,-59.21882629394531,290.8350830078125
1700075991,0.4447784423828125,-0.0297698974609375,-0.3174591064453125,-2.6064019203186035,-2.662194013595581,-1.5587133169174194,96.47503662109376,-59.420989990234375,291.4691162109375
1700075991,0.5053558349609375,0.02459716796875,-0.3415985107421875,-2.6379270553588867,-2.7653377056121826,-1.724629521369934,96.25326538085938,-59.09454345703125,291.6493530273437
1700075991,0.57379150390625,0.1135101318359375,-0.36920166015625,-2.6103720664978027,-2.8725647926330566,-1.862950086593628,96.01002502441406,-59.14450073242188,291.7833557128906
1700075991,0.6471099853515625,0.211669921875,-0.3954620361328125,-2.582087993621826,-2.9850785732269287,-1.9813097715377808,95.85597229003906,-59.12368774414063,292.17340087890625
1700075991,0.7299652099609375,0.2903594970703125,-0.4252471923828125,-2.59568190574646,-3.092259168624878,-2.1238646507263184,96.38148498535156,-59.568267822265625,292.1308288574219
1700075991,0.8253021240234375,0.3184356689453125,-0.4544219970703125,-2.676448345184326,-3.1705756187438965,-2.258033275604248,96.0189208984375,-59.15373229980469,291.8950500488281
1700075991,0.8998260498046875,0.2871551513671875,-0.49957275390625,-2.8954412937164307,-3.221886396408081,-2.3294661045074463,95.9897918701172,-59.389739990234375,292.4359741210937
1700075991,0.918182373046875,0.22283935546875,-0.5555267333984375,-3.298388957977295,-3.2575042247772217,-2.307745218276977,95.79476928710938,-59.51322937011719,292.84344482421875
1700075991,0.9063720703125,0.1572113037109375,-0.6035614013671875,-3.801649570465088,-3.2888827323913574,-2.229517936706543,95.6259307861328,-58.94866943359375,292.781982421875
1700075991,0.9061279296875,0.088287353515625,-0.643463134765625,-4.249541759490967,-3.327943086624145,-2.137869358062744,95.5247802734375,-58.87841796875,293.24822998046875
1700075991,0.9481964111328124,0.046966552734375,-0.6839447021484375,-4.580924987792969,-3.374656438827514,-2.038655996322632,95.27096557617188,-59.140533447265625,293.20379638671875
1700075991,1.02044677734375,0.094207763671875,-0.728485107421875,-4.814724445343018,-3.4358363151550293,-1.8580701351165767,95.0630340576172,-58.61994934082031,293.57965087890625
1700075991,1.0498504638671875,0.2821502685546875,-0.765228271484375,-5.007959842681885,-3.4219508171081543,-1.7525269985198977,94.7275390625,-58.51556396484375,293.9278869628906
1700075991,1.090057373046875,0.4336090087890625,-0.81011962890625,-5.207352638244629,-3.339506864547729,-1.7397067546844482,94.66329956054688,-58.20484924316406,293.7223815917969
1700075991,1.1356201171875,0.5201263427734375,-0.848968505859375,-5.370043754577637,-3.2385623455047607,-1.7154501676559448,94.90924072265624,-57.84544372558594,293.82525634765625
1700075991,1.168548583984375,0.5767822265625,-0.8652496337890625,-5.492929458618164,-3.1679978370666504,-1.661055326461792,94.43049621582033,-57.77525329589844,294.1815490722656
1700075991,1.1953582763671875,0.570648193359375,-0.866851806640625,-5.552688121795654,-3.110476493835449,-1.5642255544662476,94.4878387451172,-57.23908996582031,293.98443603515625
1700075991,1.1956634521484375,0.515655517578125,-0.871826171875,-5.532932281494141,-3.0514028072357178,-1.4159923791885376,94.32341003417967,-56.84605407714844,294.134521484375
1700075991,1.1662139892578125,0.4765625,-0.868499755859375,-5.42726469039917,-2.965938806533813,-1.2551230192184448,94.63142395019533,-55.84794616699219,293.8937683105469
1700075991,1.128143310546875,0.469879150390625,-0.8702392578125,-5.235109329223633,-2.823516845703125,-1.0867369174957275,94.74601745605467,-53.900482177734375,292.338134765625
1700075991,1.08319091796875,0.4920806884765625,-0.8717041015625,-5.009941577911377,-2.637500524520874,-0.9393890500068665,94.44705200195312,-52.1300048828125,291.6412048339844
1700075991,1.059417724609375,0.5098114013671875,-0.8827056884765625,-4.796555519104004,-2.4258649349212646,-0.8264539837837219,94.00355529785156,-49.97355651855469,290.5963134765625
1700075991,1.0460205078125,0.5032501220703125,-0.8946533203125,-4.594976425170898,-2.1979897022247314,-0.732534646987915,93.71060180664062,-48.498382568359375,289.6710205078125
1700075991,1.013092041015625,0.4816436767578125,-0.926483154296875,-4.387954235076904,-1.98005759716034,-0.6175287365913391,92.8354034423828,-46.62992858886719,290.11163330078125
1700075991,0.9613189697265624,0.47344970703125,-0.9681549072265624,-4.159045696258545,-1.7602826356887815,-0.527352511882782,91.99928283691406,-44.80281066894531,289.7487487792969
1700075991,0.9282379150390624,0.475006103515625,-0.9977874755859376,-3.881588935852051,-1.548363447189331,-0.5595381259918213,90.72021484375,-43.46366882324219,288.69970703125
1700075991,0.9390106201171876,0.451324462890625,-0.9598236083984376,-3.494792938232422,-1.3868345022201538,-0.6953990459442139,90.31088256835938,-41.80441284179688,288.48272705078125
1700075991,0.9748077392578124,0.426422119140625,-0.865142822265625,-3.0832958221435547,-1.2072029113769531,-0.8388049006462097,90.23234558105467,-40.59616088867188,287.70562744140625
1700075991,0.9608612060546876,0.4029693603515625,-0.8054656982421875,-2.7172298431396484,-0.9627659916877748,-0.9518534541130066,89.46951293945312,-39.95184326171875,287.4324951171875
1700075991,0.8758544921875,0.3367462158203125,-0.743927001953125,-2.337392807006836,-0.6918996572494507,-0.9790845513343812,89.68644714355469,-39.42698669433594,287.404296875
1700075991,0.8113861083984375,0.2811737060546875,-0.649566650390625,-2.082947492599488,-0.4734980463981628,-0.8861799240112305,89.18292236328125,-39.00901794433594,287.1192932128906
1700075991,0.820068359375,0.260009765625,-0.6111907958984375,-2.073870182037353,-0.308129608631134,-0.7505999803543091,89.27328491210938,-37.75494384765625,286.4364013671875
1700075991,0.87530517578125,0.1947479248046875,-0.64471435546875,-2.210545301437378,-0.1467292606830597,-0.6426157355308533,89.24781799316406,-37.36683654785156,286.3220520019531
1700075991,0.9293212890625,0.099151611328125,-0.6758880615234375,-2.351518392562866,-0.0136375147849321,-0.524823009967804,88.83184814453125,-36.59385681152344,285.7388916015625
1700075991,0.9242706298828124,0.065399169921875,-0.662109375,-2.421649932861328,0.0898212343454361,-0.3792754113674164,89.79598999023438,-35.992218017578125,285.84307861328125
1700075991,0.8740081787109375,0.106689453125,-0.6529998779296875,-2.3539137840271,0.1938008964061737,-0.3127041161060333,89.83438110351562,-35.64384460449219,285.38720703125
1700075991,0.82965087890625,0.16522216796875,-0.631378173828125,-2.127134323120117,0.4126456081867218,-0.3698539435863495,90.00166320800781,-35.077667236328125,284.4945373535156
1700075991,0.8249969482421875,0.199798583984375,-0.6497344970703125,-1.431435227394104,0.6703109741210938,-0.1603862196207046,90.11671447753906,-34.81072998046875,285.2622375488281
1700075991,0.6678314208984375,0.500274658203125,-0.78912353515625,-0.4135508239269256,0.8432478904724121,0.3802541196346283,90.30134582519533,-34.705108642578125,285.01434326171875
1700075991,0.5503997802734375,0.95166015625,-0.9212493896484376,-0.177897036075592,0.962660312652588,0.2968210279941559,90.99781799316406,-34.28904724121094,284.54547119140625
1700075991,0.9064483642578124,0.945587158203125,-0.9146575927734376,-0.3686816394329071,0.669921875,-0.5203763246536255,91.52384948730467,-34.102264404296875,284.5518798828125
1700075991,1.6086273193359375,0.295013427734375,0.0299835205078125,-0.1870127618312835,0.5165075659751892,-0.9511684775352478,92.4859619140625,-34.2554931640625,283.7405700683594
1700075992,1.758331298828125,-0.3735504150390625,0.648590087890625,-0.4873172044754028,0.7356873154640198,-0.7005820870399475,93.00798034667967,-34.23561096191406,283.6439819335937
1700075992,1.4082183837890625,-0.53863525390625,0.2866363525390625,-1.283314228057861,0.7807728052139282,-0.0302489828318357,94.3475341796875,-34.517303466796875,283.5160522460937
1700075992,1.2075958251953125,-0.43389892578125,-0.07562255859375,-1.716475009918213,0.6144315004348755,0.6190224885940552,94.92112731933594,-34.74066162109375,283.7645263671875
1700075992,1.215484619140625,-0.193084716796875,0.025543212890625,-2.107900857925415,0.479498952627182,0.8563913702964783,96.09445190429688,-35.19378662109375,283.29058837890625
1700075992,1.16693115234375,0.3206634521484375,0.1823272705078125,-2.2435193061828613,0.5465965270996094,0.5004804134368896,97.10212707519533,-35.33604431152344,282.8323669433594
1700075992,1.0337677001953125,0.7324981689453125,0.217315673828125,-1.6934535503387451,0.768993616104126,-0.0575703531503677,98.52197265625,-36.004730224609375,282.5228271484375
1700075992,0.9793243408203124,0.88922119140625,0.2749786376953125,-0.521223247051239,0.9097432494163512,-0.3913842737674713,99.64884948730467,-36.52183532714844,282.9925231933594
1700075992,0.950775146484375,0.661468505859375,0.153045654296875,0.0790282413363456,0.8502506613731384,-0.5999311208724976,100.60197448730467,-37.212982177734375,282.01611328125
1700075992,1.046844482421875,0.33709716796875,-0.1492156982421875,0.1580375730991363,0.6819831132888794,-0.6525673866271973,101.96632385253906,-37.95249938964844,282.0413818359375
1700075992,1.059600830078125,0.0834808349609375,-0.303314208984375,0.0381705537438392,0.5437698364257812,-0.6259626746177673,102.81761169433594,-38.76412963867188,281.9132080078125
1700075992,1.0076904296875,-0.1141204833984375,-0.3404541015625,-0.1533757001161575,0.4326054751873016,-0.5096682906150818,103.83131408691406,-39.37428283691406,281.86688232421875
1700075992,0.9740447998046876,-0.2132720947265625,-0.3347320556640625,-0.3565690517425537,0.326062798500061,-0.3604396879673004,105.00975036621094,-40.63163757324219,281.3952331542969
1700075992,0.986663818359375,-0.2072601318359375,-0.2808990478515625,-0.5325297117233276,0.268160879611969,-0.2866948843002319,105.7809600830078,-41.57965087890625,281.8733215332031
1700075992,1.021820068359375,-0.10968017578125,-0.1968841552734375,-0.6593449115753174,0.2719470858573913,-0.2634087204933166,106.94593811035156,-42.34381103515625,282.2391967773437
1700075992,1.0146484375,0.0002899169921875,-0.1248016357421875,-0.6971052885055542,0.3141126632690429,-0.2553971409797668,107.30624389648438,-43.20747375488281,282.1322937011719
1700075992,1.000457763671875,0.0698699951171875,-0.06817626953125,-0.640703558921814,0.3561975359916687,-0.2644311189651489,107.85130310058594,-44.23072814941406,282.5142822265625
1700075992,0.99041748046875,0.0678253173828125,-0.077301025390625,-0.5188612937927246,0.3661268651485443,-0.2652532458305359,108.18052673339844,-44.48951721191406,282.51617431640625
1700075992,0.9844818115234376,0.0532073974609375,-0.1198577880859375,-0.4195986092090606,0.3458791077136993,-0.279999166727066,108.15719604492188,-44.9508056640625,283.0746459960937
1700075992,1.0058135986328125,0.0148468017578125,-0.1483917236328125,-0.3380568623542785,0.3528858721256256,-0.3055247664451599,108.73692321777344,-45.66050720214844,282.9415283203125
1700075992,1.0192108154296875,-0.05230712890625,-0.168060302734375,-0.2808407247066498,0.3122242093086242,-0.2629549205303192,108.4367218017578,-46.1087646484375,282.9404296875
1700075992,0.996307373046875,-0.0257415771484375,-0.1971282958984375,-0.3069942891597748,0.2725052833557129,-0.2648766636848449,108.5574188232422,-46.591644287109375,282.380859375
1700075992,1.003326416015625,-0.0109405517578125,-0.2111968994140625,-0.3577714562416076,0.2524034976959228,-0.2772600948810577,108.66725158691406,-46.433135986328125,282.6335754394531
1700075992,0.980560302734375,0.0065155029296875,-0.1984100341796875,-0.4155223667621612,0.2318699806928634,-0.2610449194908142,108.28675842285156,-46.89178466796875,282.48748779296875
1700075992,0.9591522216796876,0.022491455078125,-0.1619110107421875,-0.4173319935798645,0.2278129160404205,-0.2323855757713318,108.22625732421876,-46.84765625,283.3584899902344
1700075992,0.95733642578125,-0.0035400390625,-0.1252899169921875,-0.3945827186107635,0.2484111487865448,-0.1911862045526504,108.220947265625,-46.66835021972656,283.0360717773437
1700075992,0.964111328125,-0.022491455078125,-0.1050262451171875,-0.3972568213939667,0.2868208587169647,-0.1637516468763351,108.03041076660156,-46.0966796875,282.68719482421875
1700075992,0.9772796630859376,-0.0423126220703125,-0.096588134765625,-0.3981678783893585,0.3342834413051605,-0.1532683819532394,107.968505859375,-45.95558166503906,282.67510986328125
1700075992,0.98577880859375,-0.0802154541015625,-0.1091156005859375,-0.4060021042823791,0.3664954304695129,-0.1329745650291443,107.84547424316406,-45.69136047363281,282.77557373046875
1700075992,0.9802703857421876,-0.1283111572265625,-0.1538543701171875,-0.4502907395362854,0.3666592240333557,-0.0866235718131065,107.52589416503906,-45.34829711914063,282.7974548339844
1700075992,0.976104736328125,-0.1325836181640625,-0.2130889892578125,-0.5110110640525818,0.3146522045135498,-0.0351699702441692,107.7926025390625,-45.15382385253906,282.810302734375
1700075992,0.9852752685546876,-0.084716796875,-0.2565765380859375,-0.5111775398254395,0.2593404948711395,-0.0277711767703294,107.43644714355467,-45.0166015625,282.3118896484375
1700075992,0.997344970703125,-0.021331787109375,-0.252410888671875,-0.4574730098247528,0.2094086110591888,-0.0421764813363552,107.52531433105467,-44.85317993164063,282.680419921875
1700075992,0.994720458984375,0.0294342041015625,-0.22100830078125,-0.3982853293418884,0.1908807307481765,-0.0620055794715881,107.3031005859375,-45.057647705078125,281.9442138671875
1700075992,0.9823760986328124,0.0340576171875,-0.201873779296875,-0.37660613656044,0.188186690211296,-0.0797222629189491,107.487060546875,-45.23094177246094,282.259521484375
1700075992,0.96881103515625,-0.00408935546875,-0.2061004638671875,-0.4227214157581329,0.1787164807319641,-0.0680371075868606,107.42919921875,-45.1251220703125,281.4642944335937
1700075992,0.9634552001953124,-0.04388427734375,-0.2005157470703125,-0.5194301009178162,0.1754413247108459,-0.022218219935894,107.28416442871094,-45.03607177734375,282.31353759765625
1700075992,0.96221923828125,-0.066131591796875,-0.2093048095703125,-0.5990554690361023,0.1641924083232879,0.0188615713268518,107.53457641601562,-45.24163818359375,282.12567138671875
1700075992,0.96551513671875,-0.080413818359375,-0.220001220703125,-0.6416931748390198,0.1636307388544082,0.0526757277548313,107.59786987304688,-45.213287353515625,282.5692749023437
1700075992,0.9701690673828124,-0.0989227294921875,-0.20123291015625,-0.6383274793624878,0.1702572256326675,0.0860818848013877,107.54750061035156,-45.48728942871094,282.576416015625
1700075992,0.9677886962890624,-0.1079254150390625,-0.1828155517578125,-0.6072955131530762,0.1834385395050048,0.1179026663303375,107.6358642578125,-45.490081787109375,282.54345703125
1700075992,0.967193603515625,-0.1060028076171875,-0.1755828857421875,-0.60005784034729,0.1927303075790405,0.1583478301763534,107.41340637207033,-45.459228515625,282.7225341796875
1700075992,0.9649810791015624,-0.092681884765625,-0.188140869140625,-0.6270534992218018,0.1785934418439865,0.1824888437986374,107.31961059570312,-45.53089904785156,282.3872985839844
1700075992,0.9766845703125,-0.0911102294921875,-0.2164459228515625,-0.6801233887672424,0.1612868905067443,0.197194829583168,107.1749267578125,-46.03826904296875,283.7024841308594
1700075992,0.992706298828125,-0.0852508544921875,-0.2359619140625,-0.7041267156600952,0.1315111517906189,0.2257487028837204,107.4739227294922,-45.91168212890625,282.81475830078125
1700075992,0.9930267333984376,-0.0626373291015625,-0.2416839599609375,-0.6827269196510315,0.1055863499641418,0.2254581600427627,107.18283081054688,-45.96842956542969,283.6632080078125
1700075992,0.9889373779296876,-0.025299072265625,-0.232177734375,-0.6345340609550476,0.0836445614695549,0.2079619914293289,107.29548645019533,-46.4395751953125,283.812255859375
1700075992,0.9898223876953124,0.0301971435546875,-0.201934814453125,-0.5702528357505798,0.0813049748539924,0.1654752492904663,107.22555541992188,-46.73951721191406,284.24468994140625
1700075992,0.995697021484375,0.046661376953125,-0.183135986328125,-0.50001060962677,0.0909866318106651,0.1193154752254486,107.292236328125,-46.568145751953125,284.43243408203125
1700075992,0.9848785400390624,0.023956298828125,-0.1769561767578125,-0.4831141829490661,0.0939991995692253,0.1121001690626144,107.44557189941406,-46.774444580078125,285.241943359375
1700075992,0.97601318359375,0.001129150390625,-0.1835479736328125,-0.5411120057106018,0.0843580216169357,0.0977348163723945,106.69989013671876,-47.15666198730469,284.63916015625
1700075992,0.991607666015625,-0.0379791259765625,-0.2269134521484375,-0.6551059484481812,0.0679625421762466,0.0914843752980232,106.83576965332033,-47.03038024902344,285.2723388671875
1700075992,0.9958038330078124,-0.04632568359375,-0.2557525634765625,-0.7195144891738892,0.0410275943577289,0.0951789766550064,106.94645690917967,-47.825592041015625,285.0157470703125
1700075992,0.9911041259765624,-0.0525360107421875,-0.2519989013671875,-0.6988214254379272,0.0120689133182168,0.1104343682527542,106.94313049316406,-47.83863830566406,286.2919311523437
1700075992,0.978485107421875,-0.044281005859375,-0.230804443359375,-0.6715240478515625,-0.0123986126855015,0.1171750947833061,107.38246154785156,-48.18617248535156,285.8389892578125
1700075992,0.975341796875,-0.0256500244140625,-0.21514892578125,-0.6262689828872681,-0.0221007745712995,0.11399607360363,107.0207061767578,-48.18153381347656,286.60162353515625
1700075992,0.983062744140625,-0.0150146484375,-0.204803466796875,-0.5868624448776245,-0.0256028324365615,0.0923594906926155,106.98793029785156,-48.83270263671875,286.7352600097656
1700075992,0.99493408203125,-0.0153961181640625,-0.200103759765625,-0.5586225390434265,-0.0465501919388771,0.0950631350278854,107.00041198730467,-49.11537170410156,286.8109130859375
1700075992,0.9922637939453124,-0.0065155029296875,-0.19842529296875,-0.5411471128463745,-0.0585288219153881,0.0965174809098243,106.90843200683594,-49.81280517578125,287.7755126953125
1700075992,0.9923553466796876,-0.0175933837890625,-0.207183837890625,-0.5396789312362671,-0.069597989320755,0.0888220146298408,106.77215576171876,-49.81254577636719,288.122802734375
1700075992,0.9916534423828124,-0.0338897705078125,-0.2068634033203125,-0.577494204044342,-0.0738467946648597,0.0822450742125511,107.07273864746094,-49.99090576171875,288.0610656738281
1700075992,0.988616943359375,-0.0407562255859375,-0.212646484375,-0.5903828740119934,-0.0818977952003479,0.0978013947606086,106.93612670898438,-50.43904113769531,288.15924072265625
1700075992,0.9836578369140624,-0.051971435546875,-0.2126007080078125,-0.5749682188034058,-0.0905357599258422,0.1131502538919448,106.87229919433594,-50.693115234375,288.56085205078125
1700075992,0.9798431396484376,-0.0563507080078125,-0.2031097412109375,-0.5348966717720032,-0.0989737212657928,0.1358433216810226,107.02906799316406,-50.69337463378906,289.4150695800781
1700075992,0.9763946533203124,-0.039459228515625,-0.181976318359375,-0.5015259385108948,-0.1026286408305168,0.1488017290830612,106.58560180664062,-50.784912109375,289.270263671875
1700075992,0.9791717529296876,-0.0258636474609375,-0.177642822265625,-0.4502414762973785,-0.1037905737757682,0.156232476234436,107.05322265625,-51.51266479492188,290.0547180175781
1700075992,0.988311767578125,-0.04022216796875,-0.1787567138671875,-0.4278770387172699,-0.10822394490242,0.161124974489212,106.76994323730467,-51.881866455078125,290.2010192871094
1700075992,0.995208740234375,-0.037445068359375,-0.1847381591796875,-0.4195762276649475,-0.113449327647686,0.168034017086029,106.69929504394533,-51.81236267089844,290.5367126464844
1700075992,0.9885711669921876,-0.0557403564453125,-0.2008209228515625,-0.375935822725296,-0.1211117804050445,0.1983940452337265,106.59538269042967,-52.33818054199219,290.3663024902344
1700075992,0.96826171875,-0.0683746337890625,-0.185943603515625,-0.3224267661571502,-0.1211759597063064,0.2325328439474105,106.38201904296876,-52.33213806152344,290.7218322753906
1700075992,0.9705352783203124,-0.0589599609375,-0.176116943359375,-0.2869049906730652,-0.1305883675813675,0.2334002405405044,106.15585327148438,-52.86338806152344,291.38116455078125
1700075992,0.9742584228515624,-0.0176239013671875,-0.191314697265625,-0.2168034166097641,-0.1352385133504867,0.2171110063791275,106.52902221679688,-53.13751220703125,292.0576171875
1700075992,0.98895263671875,0.00860595703125,-0.180389404296875,-0.1179053336381912,-0.1357852667570114,0.2256400436162948,106.22735595703124,-53.248565673828125,292.4702453613281
1700075992,0.98529052734375,0.0221099853515625,-0.15301513671875,-0.0094731301069259,-0.1355903148651123,0.2458435893058776,106.12319946289062,-53.970001220703125,292.80828857421875
1700075992,0.9848175048828124,0.010986328125,-0.1468505859375,0.0609285980463027,-0.1161420494318008,0.2429412752389907,105.8568115234375,-53.7119140625,292.5448608398437
1700075992,0.9871978759765624,-0.0347137451171875,-0.1663665771484375,0.082278624176979,-0.1125584989786148,0.2770981788635254,105.59950256347656,-53.75457763671875,293.2222900390625
1700075992,0.973602294921875,-0.0771026611328125,-0.1742401123046875,0.1200257390737533,-0.0992078110575676,0.3505929112434387,105.30950927734376,-53.74952697753906,293.6914367675781
1700075992,0.962890625,-0.115936279296875,-0.169342041015625,0.1742128133773803,-0.0933291465044021,0.4341751635074615,105.42706298828124,-53.39349365234375,294.1822814941406
1700075992,0.96051025390625,-0.1025390625,-0.163970947265625,0.2336646914482116,-0.0761405751109123,0.4718064069747925,105.30569458007812,-53.40692138671875,294.00311279296875
1700075992,0.9695281982421876,-0.0361480712890625,-0.15155029296875,0.3243999183177948,-0.0620276853442192,0.4921958446502685,105.27281188964844,-53.00924682617188,294.73846435546875
1700075992,0.991607666015625,0.036956787109375,-0.082550048828125,0.4851560294628143,-0.0379524417221546,0.5141517519950867,104.88703918457033,-53.244049072265625,295.1407165527344
1700075992,1.0282135009765625,0.0276947021484375,0.005218505859375,0.7007074952125549,0.0192677043378353,0.526317834854126,104.93739318847656,-52.73089599609375,295.70245361328125
1700075992,1.0219268798828125,0.01904296875,-0.0465850830078125,0.857528805732727,0.0427866131067276,0.5409583449363708,104.8396453857422,-52.19657897949219,295.7933959960937
1700075992,1.0181427001953125,0.0401153564453125,-0.114715576171875,0.9085965156555176,0.0463560484349727,0.5674655437469482,104.66339111328124,-51.79656982421875,296.5747375488281
1700075992,1.0565643310546875,0.011810302734375,-0.097686767578125,0.8762513399124146,0.0800343826413154,0.5959129333496094,104.14842224121094,-50.85932922363281,296.8766174316406
1700075992,1.0589599609375,-0.0270233154296875,-0.1549835205078125,0.7836231589317322,0.0731607601046562,0.6414601802825928,104.41300964355467,-49.515899658203125,296.81951904296875
1700075992,1.04180908203125,-0.0433197021484375,-0.200103759765625,0.6249861121177673,0.04433523863554,0.6880473494529724,103.96348571777344,-48.12879943847656,297.11114501953125
1700075992,1.0440673828125,-0.0292816162109375,-0.19384765625,0.4609140753746032,0.0354938134551048,0.7027565240859985,104.34605407714844,-46.736663818359375,296.4356689453125
1700075992,1.0572357177734375,-0.002899169921875,-0.1935882568359375,0.2756217122077942,0.0220134239643812,0.7087928652763367,104.0190887451172,-44.780853271484375,295.76690673828125
1700075992,1.063751220703125,0.034027099609375,-0.1932220458984375,0.0673457533121109,-0.0188527833670377,0.7076210975646973,103.5799560546875,-42.87033081054688,295.5056457519531
1700075992,1.0657806396484375,0.052764892578125,-0.17498779296875,-0.1151865124702453,-0.0850557684898376,0.7010467648506165,102.61026000976562,-40.99777221679688,295.3771057128906
1700075992,1.075927734375,0.048797607421875,-0.1367950439453125,-0.2712730467319488,-0.1070047467947006,0.6737501621246338,101.38528442382812,-39.10865783691406,295.6177978515625
1700075992,1.08441162109375,0.049285888671875,-0.16314697265625,-0.356918454170227,-0.1193839162588119,0.6406774520874023,100.57496643066406,-37.534423828125,296.055908203125
1700075992,1.0490570068359375,0.052154541015625,-0.2257232666015625,-0.308691531419754,-0.1032691299915313,0.4981738328933716,99.71192932128906,-35.54768371582031,295.4239501953125
1700075992,1.0713043212890625,0.0005950927734375,-0.2493896484375,-0.2820327579975128,-0.1045375913381576,0.4226716160774231,99.04441833496094,-34.74394226074219,295.58203125
1700075992,1.004241943359375,0.040313720703125,-0.2138671875,-0.8043409585952759,-0.1346398293972015,0.538485050201416,98.62388610839844,-33.468353271484375,295.4864501953125
1700075992,0.8978729248046875,0.2164459228515625,-0.1816864013671875,-1.2871752977371216,-0.1375274956226349,0.5283397436141968,98.16094970703124,-33.00209045410156,295.616943359375
1700075992,0.906494140625,0.2134552001953125,-0.171142578125,-1.5580499172210691,-0.178222194314003,0.502399206161499,97.71237182617188,-32.49824523925781,296.08026123046875
1700075992,0.884246826171875,0.23211669921875,-0.152862548828125,-1.8011972904205322,-0.2146992534399032,0.49391970038414,97.10292053222656,-31.481170654296875,295.6036682128906
1700075992,0.875213623046875,0.2564697265625,-0.1620941162109375,-2.0478556156158447,-0.2579497992992401,0.4546791017055511,96.464111328125,-30.50006103515625,296.4072265625
1700075992,0.88116455078125,0.2442169189453125,-0.1661834716796875,-2.2768356800079346,-0.3080971240997314,0.3604442179203033,95.96481323242188,-29.90438842773437,295.8865966796875
1700075993,0.8778228759765625,0.17156982421875,-0.1307525634765625,-2.5437827110290527,-0.2923759222030639,0.2727694809436798,95.48355102539062,-29.19659423828125,296.0073547363281
1700075993,0.8131256103515625,0.042388916015625,-0.1490631103515625,-2.8834714889526367,-0.2561902403831482,0.2124091982841491,95.0519561767578,-28.28939819335937,296.1963195800781
1700075993,0.7638397216796875,-0.0750274658203125,-0.2315521240234375,-3.227573871612549,-0.2802870571613312,0.1533101946115493,94.27024841308594,-27.447509765625,296.2640380859375
1700075993,0.7753448486328125,-0.14410400390625,-0.298614501953125,-3.5029056072235107,-0.3321020305156708,0.1375059336423874,94.27809143066406,-26.78656005859375,296.03887939453125
1700075993,0.7983551025390625,-0.1242218017578125,-0.3224639892578125,-3.618804454803467,-0.4031277596950531,0.1091251522302627,94.02049255371094,-26.090499877929688,295.3379821777344
1700075993,0.84234619140625,-0.0312042236328125,-0.3059539794921875,-3.5438265800476074,-0.4922118186950683,0.0423570424318313,94.30120849609376,-25.608184814453125,295.12335205078125
1700075993,0.8966217041015625,0.0985870361328125,-0.2555999755859375,-3.246166229248047,-0.5844408273696899,-0.096782736480236,94.0381317138672,-24.569503784179688,294.8489990234375
1700075993,0.9474945068359376,0.1962890625,-0.178985595703125,-2.830284118652344,-0.6589552760124207,-0.2566605508327484,93.98448181152344,-24.6290283203125,293.5278015136719
1700075993,0.9812469482421876,0.23309326171875,-0.12310791015625,-2.392342090606689,-0.7103736996650696,-0.3838933408260345,94.7124481201172,-24.20712280273437,293.75787353515625
1700075993,0.9760589599609376,0.221710205078125,-0.123260498046875,-2.014391660690308,-0.7452432513237,-0.4514974057674408,95.35720825195312,-23.571060180664062,293.0400695800781
1700075993,0.954315185546875,0.1889801025390625,-0.1587677001953125,-1.6545186042785645,-0.7881694436073303,-0.4460038542747497,96.08682250976562,-23.365386962890625,293.15948486328125
1700075993,0.9565887451171876,0.213226318359375,-0.16668701171875,-1.576254963874817,-0.4790515303611755,-0.4912504255771637,96.81306457519533,-22.98475646972656,292.46368408203125
1700075993,0.985565185546875,0.2105255126953125,-0.4946136474609375,-1.3271687030792236,-0.2032053172588348,-0.2626209855079651,97.51513671875,-23.34437561035156,292.81463623046875
1700075993,0.780242919921875,0.33856201171875,-0.7746124267578125,-0.5649078488349915,-0.2569875717163086,-0.0578891336917877,98.25634765625,-23.153549194335938,291.7147216796875
1700075993,0.9792633056640624,0.43658447265625,-0.5361328125,0.0322538092732429,-0.5238105058670044,-0.219892680644989,99.61587524414062,-23.338836669921875,291.5618896484375
1700075993,1.4429931640625,0.3766021728515625,-0.029388427734375,-0.0743847489356994,-0.3639345467090606,-0.5503084063529968,101.0268096923828,-23.04310607910156,291.04376220703125
1700075993,1.410614013671875,0.1727142333984375,0.2272491455078125,0.0021057615522295,-0.2380245476961136,-0.6645188927650452,102.25274658203124,-23.434600830078125,290.7401733398437
1700075993,1.076416015625,-0.1606597900390625,0.2747344970703125,0.0021718079224228,-0.2880794703960418,-0.4645631611347198,103.568603515625,-23.45845031738281,290.1452941894531
1700075993,0.89385986328125,-0.34344482421875,0.1448974609375,-0.1140554621815681,-0.2303197532892227,-0.2003360241651535,105.56526184082033,-23.7362060546875,289.571533203125
1700075993,0.86468505859375,-0.3851776123046875,-0.0516510009765625,-0.4378923773765564,-0.1252151727676391,-0.0141874579712748,107.39112854003906,-23.957565307617188,288.7801513671875
1700075993,0.9291839599609376,-0.2238616943359375,-0.2102508544921875,-0.695544421672821,-0.0865442156791687,0.0867404863238334,108.64665222167967,-24.471343994140625,288.638916015625
1700075993,1.02215576171875,0.008270263671875,-0.206146240234375,-0.7309668660163879,-0.090500608086586,0.119023323059082,110.90257263183594,-24.798355102539062,287.36572265625
1700075993,1.06939697265625,0.182403564453125,-0.1249542236328125,-0.6656329035758972,-0.1079738736152648,0.0865354239940643,112.23655700683594,-25.242416381835938,287.400634765625
1700075993,1.059539794921875,0.2471160888671875,-0.0458984375,-0.5592915415763855,-0.0929331332445144,0.0009211873984895,114.30393981933594,-25.782135009765625,287.095703125
1700075993,1.0434722900390625,0.1328887939453125,-0.02227783203125,-0.4316073358058929,-0.0710150524973869,-0.0829851627349853,115.76261901855467,-26.608917236328125,286.7264404296875
1700075993,0.9864349365234376,0.023162841796875,-0.058319091796875,-0.2839323878288269,-0.0699380710721015,-0.0830408260226249,117.54319763183594,-27.319305419921875,286.275634765625
1700075993,0.9106292724609376,0.0790252685546875,-0.1154632568359375,-0.0574763417243957,-0.0588662475347518,-0.082083947956562,119.37535095214844,-28.1837158203125,286.2567749023437
1700075993,0.9266357421875,0.179656982421875,-0.1068115234375,0.2091401666402816,-0.0283448230475187,-0.1574868261814117,120.52505493164062,-28.477264404296875,285.50213623046875
1700075993,1.0120086669921875,0.2046356201171875,-0.0395660400390625,0.4408476948738098,-0.0130066126585006,-0.2448246628046035,121.73741149902344,-29.409881591796875,285.37066650390625
1700075993,1.0680999755859375,0.1454315185546875,-0.011688232421875,0.604619026184082,-0.0096968356519937,-0.2613522410392761,123.09788513183594,-30.06674194335937,285.5043334960937
1700075993,1.0464630126953125,0.047943115234375,-0.04315185546875,0.6651790738105774,-0.0054213968105614,-0.2246829122304916,123.900634765625,-30.412994384765625,285.2613525390625
1700075993,1.001312255859375,-0.0276031494140625,-0.096160888671875,0.6167764067649841,0.0045497445389628,-0.1858540177345276,124.07635498046876,-30.602264404296875,285.3929443359375
1700075993,0.9792938232421876,-0.061920166015625,-0.1479339599609375,0.5194908380508423,0.0063652214594185,-0.1668856590986251,124.68447875976562,-30.89472961425781,284.6626281738281
1700075993,0.9765167236328124,-0.063873291015625,-0.170867919921875,0.4024188220500946,0.0029060414526611,-0.1458352357149124,125.05255126953124,-31.02183532714844,285.19647216796875
1700075993,0.9764251708984376,-0.0490264892578125,-0.1627349853515625,0.2698844671249389,-0.0141973113641142,-0.1407009214162826,125.35885620117188,-31.42010498046875,285.39813232421875
1700075993,0.983123779296875,-0.0521240234375,-0.1482696533203125,0.1593997776508331,-0.0334194749593734,-0.1472488343715667,125.45809936523438,-31.620758056640625,285.1677551269531
1700075993,0.9794769287109376,-0.06182861328125,-0.151336669921875,0.0800807178020477,-0.0493979081511497,-0.1421393007040023,125.47401428222656,-31.7686767578125,285.5966491699219
1700075993,0.9681549072265624,-0.0298004150390625,-0.1865997314453125,0.0100747384130954,-0.0687220692634582,-0.1191314533352851,125.35699462890624,-31.5804443359375,284.9703063964844
1700075993,0.9712677001953124,0.0397491455078125,-0.209930419921875,-0.0350607819855213,-0.0960519611835479,-0.1244306117296218,125.16259765625,-31.033920288085938,284.54180908203125
1700075993,1.007904052734375,0.0754547119140625,-0.1770477294921875,-0.0577471852302551,-0.1185839027166366,-0.1581941694021225,125.05718994140624,-30.571319580078125,284.6800537109375
1700075993,1.02850341796875,0.05810546875,-0.1262054443359375,-0.0733839347958564,-0.1114913746714592,-0.1680683642625808,124.63430786132812,-30.331756591796875,284.2972717285156
1700075993,1.006927490234375,0.00762939453125,-0.0966339111328125,-0.1154767945408821,-0.1032329127192497,-0.1355698108673095,124.37962341308594,-29.23741149902344,284.82098388671875
1700075993,0.9860687255859376,-0.0416412353515625,-0.08575439453125,-0.1887129247188568,-0.0842443034052848,-0.0940689742565155,123.936767578125,-28.34150695800781,284.90167236328125
1700075993,0.9791259765625,-0.06903076171875,-0.0918121337890625,-0.2690146863460541,-0.0714225172996521,-0.0678125992417335,123.54719543457033,-27.99647521972656,284.3099975585937
1700075993,0.981170654296875,-0.0745391845703125,-0.09515380859375,-0.3299305140972137,-0.0615818724036216,-0.061865497380495,123.3125457763672,-27.592300415039062,284.91998291015625
1700075993,0.9834747314453124,-0.05615234375,-0.094573974609375,-0.3576596081256866,-0.0547982677817344,-0.0513782352209091,123.02825927734376,-26.95611572265625,285.1673583984375
1700075993,0.9836883544921876,-0.0026092529296875,-0.1014862060546875,-0.3283922672271728,-0.0595576018095016,-0.0506916716694831,122.9416961669922,-27.27061462402344,284.956298828125
1700075993,0.9989013671875,0.0559539794921875,-0.099945068359375,-0.2330609411001205,-0.0670988783240318,-0.0713996142148971,123.00895690917967,-27.03868103027344,284.8866577148437
1700075993,1.0214385986328125,0.0833740234375,-0.0858154296875,-0.1211647763848304,-0.0678842440247535,-0.104126937687397,123.30148315429688,-27.18157958984375,284.75933837890625
1700075993,1.023101806640625,0.0736236572265625,-0.0797271728515625,-0.0227993223816156,-0.0677433609962463,-0.1280210763216018,123.07662963867188,-27.384307861328125,285.5072631835937
1700075993,1.0096435546875,0.035003662109375,-0.082244873046875,0.030059365555644,-0.060417003929615,-0.131874680519104,122.74917602539062,-28.07289123535156,285.34796142578125
1700075993,0.9942779541015624,-0.02117919921875,-0.0940093994140625,0.0286878366023302,-0.0537564381957054,-0.111672468483448,123.2833251953125,-28.342330932617188,285.2893371582031
1700075993,0.980682373046875,-0.0571136474609375,-0.1070556640625,0.006213154643774,-0.046722762286663,-0.0744135156273841,123.28750610351562,-28.307373046875,285.9595031738281
1700075993,0.9805908203125,-0.061981201171875,-0.1084747314453125,-0.0140449786558747,-0.043605800718069,-0.0481036119163036,123.18318176269533,-28.83241271972656,286.1273193359375
1700075993,0.985809326171875,-0.039337158203125,-0.1063232421875,-0.0046709179878234,-0.042294193059206,-0.0369958356022834,123.358642578125,-29.26719665527344,286.0361633300781
1700075993,0.980255126953125,-0.0104522705078125,-0.10052490234375,0.0417495779693126,-0.0402957573533058,-0.0362363010644912,123.51747131347656,-29.759765625,286.3203125
1700075993,0.97296142578125,0.0027008056640625,-0.08868408203125,0.0927360653877258,-0.0342375971376895,-0.0408483631908893,123.5118408203125,-29.874755859375,286.88397216796875
1700075993,0.9808349609375,-0.01025390625,-0.077392578125,0.121077686548233,-0.0230320822447538,-0.0297831948846578,123.54473876953124,-30.537124633789062,287.2794189453125
1700075993,0.9813079833984376,-0.030303955078125,-0.08062744140625,0.1160309985280036,-0.0151805505156517,-0.0166623331606388,123.69189453125,-31.216827392578125,287.5302734375
1700075993,0.985504150390625,-0.04852294921875,-0.0890350341796875,0.098353736102581,-0.0070358053781092,0.0115980664268136,123.69776916503906,-31.64398193359375,287.97271728515625
1700075993,0.988739013671875,-0.0414276123046875,-0.107025146484375,0.0957305207848548,-0.0096406433731317,0.0310388766229152,123.66305541992188,-32.20487976074219,288.7017822265625
1700075993,0.9951324462890624,-0.011962890625,-0.1028594970703125,0.1093267574906349,-0.0077649787999689,0.0301584340631961,123.77218627929688,-32.84321594238281,289.1600952148437
1700075993,1.0027313232421875,0.0015869140625,-0.07708740234375,0.1329684406518936,0.0050916974432766,0.0343718230724334,123.69032287597656,-33.21061706542969,289.3607177734375
1700075993,0.9905242919921876,-0.008697509765625,-0.0691070556640625,0.1376904845237732,0.0171970967203378,0.0463368706405162,123.80247497558594,-33.319976806640625,289.87451171875
1700075993,0.9784698486328124,-0.0274505615234375,-0.0823974609375,0.1143833026289939,0.0271780919283628,0.0725652799010276,123.60198974609376,-34.13142395019531,290.3597717285156
1700075993,0.9727935791015624,-0.0327606201171875,-0.0990142822265625,0.0854909345507621,0.0286063440144062,0.0942103862762451,123.35049438476562,-33.90087890625,290.94696044921875
1700075993,0.98199462890625,-0.0284881591796875,-0.09912109375,0.062789611518383,0.0316791012883186,0.1050257533788681,123.46090698242188,-34.46559143066406,290.8677978515625
1700075993,0.9955291748046876,-0.0248565673828125,-0.095916748046875,0.047851413488388,0.0360943563282489,0.1142584010958671,123.43861389160156,-34.86907958984375,290.87841796875
1700075993,0.9938201904296876,-0.0211639404296875,-0.0996856689453125,0.0413647517561912,0.0320215821266174,0.1214278936386108,123.18963623046876,-35.38511657714844,292.12091064453125
1700075993,0.991943359375,-0.0189208984375,-0.1023712158203125,0.0309744272381067,0.0324847064912319,0.1181058660149574,123.19465637207033,-36.128326416015625,291.8887939453125
1700075993,0.9919281005859376,-0.0181884765625,-0.10748291015625,0.020485833287239,0.0235759001225233,0.1144376322627067,123.25205993652344,-36.020538330078125,292.0092468261719
1700075993,0.9913330078125,-0.0047454833984375,-0.1134185791015625,0.0105072353035211,0.0145230162888765,0.0984003394842147,123.20704650878906,-36.82304382324219,292.71923828125
1700075993,1.0042572021484375,0.0155029296875,-0.113677978515625,0.0122223114594817,0.0044581317342817,0.0801414400339126,123.0980224609375,-37.06617736816406,292.695068359375
1700075993,1.00494384765625,0.0453338623046875,-0.1128692626953125,0.0198506694287061,-0.0081407511606812,0.0488192029297351,123.18118286132812,-37.75868225097656,293.263671875
1700075993,1.0097808837890625,0.0634918212890625,-0.106964111328125,0.0290012918412685,-0.0167211890220642,0.0227567106485366,123.13682556152344,-37.84202575683594,293.2636108398437
1700075993,1.01495361328125,0.0503387451171875,-0.097900390625,0.0277975425124168,-0.0184037741273641,0.0073516559787094,122.93313598632812,-38.54067993164063,293.72418212890625
1700075993,1.0083770751953125,0.0183868408203125,-0.0957489013671875,0.0064230118878185,-0.0177028309553861,0.0164476819336414,122.7122039794922,-38.54116821289063,294.1837158203125
1700075993,1.0025482177734375,-0.0136260986328125,-0.09625244140625,-0.0345987230539321,-0.0114598488435149,0.0319094620645046,122.69898986816406,-39.1922607421875,294.5243530273437
1700075993,0.999908447265625,-0.036041259765625,-0.09710693359375,-0.0687521696090698,-0.0030415961518883,0.0562358424067497,122.94410705566406,-39.39881896972656,294.7706298828125
1700075993,0.9900970458984376,-0.0268096923828125,-0.1007080078125,-0.0766159445047378,-0.0006713828770443,0.0690182149410247,122.5933837890625,-39.74948120117188,295.43756103515625
1700075993,0.99951171875,-0.0048828125,-0.0943145751953125,-0.0444505549967289,-0.000421578384703,0.063662864267826,122.68887329101562,-40.25563049316406,295.0968322753906
1700075993,1.0124359130859375,0.011474609375,-0.07958984375,0.0204815734177827,0.014725150540471,0.0471139810979366,122.45899963378906,-40.73974609375,295.50701904296875
1700075993,1.0145416259765625,0.01080322265625,-0.074310302734375,0.0609722733497619,0.0199393536895513,0.0651624947786331,122.33894348144533,-41.01850891113281,295.3016967773437
1700075993,0.9966583251953124,0.0132904052734375,-0.07415771484375,0.0738124400377273,0.030793597921729,0.0763408467173576,122.12713623046876,-40.68548583984375,296.10528564453125
1700075993,0.989837646484375,-0.00555419921875,-0.07525634765625,0.0753373652696609,0.0479659289121627,0.0941762998700141,122.21563720703124,-41.2000732421875,296.49090576171875
1700075993,0.980316162109375,-0.0187835693359375,-0.0868682861328125,0.0700539201498031,0.0566861815750598,0.1184432879090309,122.47543334960938,-41.297882080078125,296.37646484375
1700075993,0.9810791015625,-0.0115814208984375,-0.095428466796875,0.0733077675104141,0.0648833885788917,0.1302797049283981,121.94749450683594,-41.65521240234375,296.3539733886719
1700075993,0.995880126953125,-0.0024566650390625,-0.092987060546875,0.0840323194861412,0.0698690935969352,0.1349551528692245,122.28854370117188,-41.46432495117188,296.7522277832031
1700075993,1.003265380859375,0.0078277587890625,-0.0885009765625,0.0985390916466713,0.0781366154551506,0.1396545618772506,122.10147094726562,-41.605224609375,297.0894470214844
1700075993,1.004852294921875,0.010955810546875,-0.0861968994140625,0.1141774356365203,0.0831524133682251,0.1415374279022216,121.8806610107422,-41.55619812011719,296.8610534667969
1700075993,0.998809814453125,0.011993408203125,-0.0875091552734375,0.1222396269440651,0.0891751497983932,0.1448770314455032,121.92822265625,-41.35975646972656,297.0611572265625
1700075993,0.992919921875,0.0107421875,-0.0903472900390625,0.1294772922992706,0.091508075594902,0.1435587555170059,121.60397338867188,-40.78855895996094,296.4872436523437
1700075993,0.990447998046875,0.012847900390625,-0.0934600830078125,0.1331585794687271,0.0896183028817176,0.138730987906456,122.02069091796876,-40.88301086425781,297.27215576171875
1700075993,0.99310302734375,0.0157012939453125,-0.0981597900390625,0.1320975869894027,0.0881442427635192,0.1318299323320388,121.81011962890624,-40.582366943359375,297.2896423339844
1700075993,0.99615478515625,0.0216522216796875,-0.1040191650390625,0.1288165748119354,0.0853276774287223,0.1232793256640434,121.58474731445312,-40.37767028808594,297.8545837402344
1700075993,0.99493408203125,0.028228759765625,-0.1098480224609375,0.125261515378952,0.076588787138462,0.1084457859396934,121.46255493164062,-39.856201171875,297.7799377441406
1700075993,0.99188232421875,0.0353240966796875,-0.1150970458984375,0.1227371022105217,0.068053089082241,0.0917570814490318,121.49066162109376,-39.65226745605469,296.9556884765625
1700075993,0.9868927001953124,0.0438079833984375,-0.118621826171875,0.1182155907154083,0.0588931441307067,0.0698714926838874,121.36514282226562,-39.12451171875,297.3414001464844
1700075993,0.98468017578125,0.0478515625,-0.1214141845703125,0.1084758788347244,0.0487339831888675,0.0482442267239093,120.9866943359375,-38.447021484375,297.0150451660156
1700075994,0.9898834228515624,0.0467376708984375,-0.1245574951171875,0.1035556867718696,0.0387902744114398,0.0220102276653051,120.94613647460938,-37.85638427734375,297.1914978027344
1700075994,0.9973602294921876,0.0443878173828125,-0.12481689453125,0.0938191711902618,0.022589998319745,-0.0001091896047,121.1631317138672,-37.17909240722656,297.0664978027344
1700075994,1.0006103515625,0.0482177734375,-0.1241455078125,0.092794120311737,0.0141541687771677,-0.027891818434,120.74191284179688,-36.57115173339844,296.9202880859375
1700075994,1.0006866455078125,0.0579071044921875,-0.1199951171875,0.0920510962605476,-0.0002045307774096,-0.0536320693790912,120.38253784179688,-36.07591247558594,296.8804626464844
1700075994,1.0029449462890625,0.068115234375,-0.1154937744140625,0.0979878157377243,-0.012999421916902,-0.0857628434896469,120.62156677246094,-35.41705322265625,297.05780029296875
1700075994,1.0048828125,0.0734405517578125,-0.114501953125,0.1055985987186431,-0.0268427990376949,-0.1182885617017746,120.37806701660156,-34.83241271972656,296.9999389648437
1700075994,1.0060272216796875,0.071441650390625,-0.110382080078125,0.1032161340117454,-0.038526352494955,-0.1392652094364166,120.41464233398438,-34.35423278808594,296.8182983398437
1700075994,1.0010986328125,0.0672607421875,-0.1068878173828125,0.0909746438264846,-0.0446851812303066,-0.1569392830133438,119.98812866210938,-33.366455078125,296.53857421875
1700075994,0.9956207275390624,0.053619384765625,-0.1064910888671875,0.0641054809093475,-0.0518810413777828,-0.1677573025226593,120.14295959472656,-33.17900085449219,296.5448608398437
1700075994,0.9948577880859376,0.0318603515625,-0.11181640625,0.0318862944841384,-0.0528019629418849,-0.1704127490520477,120.21377563476562,-32.517486572265625,296.7923583984375
1700075994,0.992401123046875,0.0167694091796875,-0.1190948486328125,0.0035531895700842,-0.0584185682237148,-0.169851616024971,120.07925415039062,-32.478668212890625,296.844482421875
1700075994,0.9909515380859376,0.009735107421875,-0.1181640625,-0.0147752175107598,-0.0610170140862464,-0.1741715371608734,120.0345458984375,-31.744888305664062,296.8969116210937
1700075994,0.9931793212890624,0.0113372802734375,-0.1143341064453125,-0.0160655193030834,-0.0652357265353202,-0.1740104109048843,119.4449462890625,-31.2308349609375,296.8275756835937
1700075994,1.0006103515625,0.0157318115234375,-0.1088714599609375,-0.0100102899596095,-0.0746699795126915,-0.1800810843706131,118.8419189453125,-30.601730346679688,297.2833557128906
1700075994,1.0093231201171875,0.011932373046875,-0.103729248046875,0.0052530854009091,-0.079936645925045,-0.1797631084918975,118.95979309082033,-30.210769653320312,297.56854248046875
1700075994,1.00732421875,0.0034942626953125,-0.107208251953125,0.0149475242942571,-0.0764907822012901,-0.1720455288887024,118.66349792480467,-29.890045166015625,297.75018310546875
1700075994,0.9976348876953124,-0.0018310546875,-0.110443115234375,0.0203177891671657,-0.0760817155241966,-0.1683703660964965,118.77662658691406,-29.428054809570312,297.877685546875
1700075994,1.0013427734375,-0.0113983154296875,-0.1097869873046875,0.008569786325097,-0.0726574286818504,-0.1473846584558487,118.55197143554688,-28.93565368652344,298.30792236328125
1700075994,0.9946441650390624,-0.0038604736328125,-0.10992431640625,-0.0071873390115797,-0.0681667998433113,-0.1263523399829864,118.14787292480467,-28.357650756835938,298.67071533203125
1700075994,0.9986419677734376,-0.005126953125,-0.103668212890625,-0.0042165829800069,-0.0625741630792617,-0.1233637481927871,118.17535400390624,-28.366363525390625,299.5882263183594
1700075994,1.0052947998046875,-0.017120361328125,-0.10400390625,-0.0009584716754034,-0.055601742118597,-0.1039564907550811,118.13063049316406,-28.41156005859375,299.9442749023437
1700075994,1.0070648193359375,-0.01885986328125,-0.098724365234375,-0.0113216303288936,-0.0513870231807231,-0.079190157353878,118.06204223632812,-28.33198547363281,300.6796264648437
1700075994,0.9943084716796876,-0.006988525390625,-0.0974884033203125,-0.025699770078063,-0.0450391136109828,-0.0602833144366741,118.1787567138672,-27.92108154296875,302.14013671875
1700075994,0.979400634765625,0.0052337646484375,-0.1010589599609375,-0.015632489696145,-0.0308537855744361,-0.0575455836951732,118.431396484375,-28.23091125488281,302.739501953125
1700075994,0.972259521484375,-0.0015869140625,-0.0918731689453125,-0.0011891013709828,-0.0303094368427991,-0.056049421429634,118.6370086669922,-27.996078491210938,303.8336181640625
1700075994,0.9745330810546876,-0.0156097412109375,-0.0781402587890625,0.0049212551675736,-0.0201793033629655,-0.0535471141338348,119.07496643066406,-27.89741516113281,304.5888061523437
1700075994,0.9761505126953124,-0.027984619140625,-0.07489013671875,0.0055478969588875,-0.0151355434209108,-0.0448108799755573,119.22605895996094,-27.611572265625,305.22509765625
1700075994,0.9737091064453124,-0.031982421875,-0.0731964111328125,0.0045614624395966,-0.0100443782284855,-0.0335888527333736,119.55076599121094,-26.49497985839844,305.6636962890625
1700075994,0.9707183837890624,-0.02667236328125,-0.072601318359375,0.0069338059984147,-0.0037244306877255,-0.0258755385875701,120.14401245117188,-24.91845703125,305.6398620605469
1700075994,0.971435546875,-0.0171966552734375,-0.0784149169921875,0.011722968891263,0.0046860980801284,-0.0196006000041961,119.69082641601562,-22.99847412109375,304.7981872558594
1700075994,0.97674560546875,-0.0099029541015625,-0.087310791015625,0.0183012429624795,0.0122835645452141,-0.011396731249988,120.5455322265625,-21.136962890625,303.8453674316406
1700075994,0.9925689697265624,-0.010162353515625,-0.0900726318359375,0.0303099695593118,0.0185124315321445,-0.0105027081444859,120.3310546875,-18.289566040039062,302.49139404296875
1700075994,1.00323486328125,-0.01422119140625,-0.082977294921875,0.0378592312335968,0.0242837686091661,-0.0130849089473485,119.28556823730467,-15.386306762695312,301.21319580078125
1700075994,1.003326416015625,-0.0126953125,-0.0782623291015625,0.047092143446207,0.0244693905115127,-0.0089926961809396,118.37130737304688,-11.918838500976562,300.9346923828125
1700075994,0.99871826171875,-0.00665283203125,-0.0727081298828125,0.0517718493938446,0.0242819041013717,-0.0027611653786152,117.4480438232422,-9.151397705078123,299.3597412109375
1700075994,0.99395751953125,0.0079345703125,-0.076995849609375,0.0628798976540565,0.024556741118431,-0.0056672068312764,116.57412719726562,-7.4792938232421875,298.434326171875
1700075994,0.9911041259765624,0.0182037353515625,-0.08770751953125,0.070775106549263,0.0286417640745639,-0.0100030992180109,115.49226379394533,-5.2995147705078125,298.48046875
1700075994,0.9904022216796876,0.0213775634765625,-0.09759521484375,0.0776567086577415,0.033094834536314,-0.0121967447921633,114.86433410644533,-4.115692138671875,298.1602783203125
1700075994,0.99212646484375,0.01470947265625,-0.103607177734375,0.0722952336072921,0.0312889479100704,-0.01278583612293,114.1780242919922,-3.393463134765625,298.60064697265625
1700075994,0.992584228515625,-0.0013427734375,-0.1064910888671875,0.0539031773805618,0.0328405052423477,-0.0106646288186311,113.221923828125,-2.288421630859375,298.11541748046875
1700075994,0.9909515380859376,-0.0168609619140625,-0.106597900390625,0.0266529154032468,0.0271738301962614,-0.0006093312404118,112.370849609375,-1.481475830078125,298.7548828125
1700075994,0.9882049560546876,-0.025360107421875,-0.1072998046875,0.0038855520542711,0.0278143212199211,0.0056243296712636,111.60104370117188,-0.33294677734375,298.77978515625
1700075994,0.9897308349609376,-0.026214599609375,-0.108795166015625,-0.0102089615538716,0.0251359790563583,0.0106462528929114,110.66926574707033,0.527496337890625,299.1369323730469
1700075994,0.9931793212890624,-0.0181884765625,-0.1069793701171875,-0.014954182319343,0.0247269179672002,0.018819760531187,109.7684326171875,1.465057373046875,300.38397216796875
1700075994,0.9992218017578124,-0.0118865966796875,-0.1063385009765625,-0.0195894129574298,0.0207063443958759,0.0186099037528038,108.876220703125,2.098663330078125,300.91619873046875
1700075994,1.00067138671875,-0.0089874267578125,-0.1073150634765625,-0.0189627725630998,0.0157949421554803,0.0227678958326578,108.25428771972656,2.6407623291015625,301.65460205078125
1700075994,0.9955596923828124,-0.00689697265625,-0.1049041748046875,-0.0204328373074531,0.0198690462857484,0.0207955595105886,107.28384399414062,3.0638427734375,302.93634033203125
1700075994,0.99090576171875,-0.00701904296875,-0.10113525390625,-0.0192416049540042,0.0198709107935428,0.0222115628421306,106.67414855957033,4.0895538330078125,303.2105712890625
1700075994,0.993408203125,-0.0046234130859375,-0.100189208984375,-0.02355432882905,0.0189143028110265,0.0281647928059101,106.10044860839844,4.732940673828125,303.6718139648437
1700075994,0.995452880859375,-0.0012359619140625,-0.09716796875,-0.0280398894101381,0.0218411162495613,0.0247511528432369,105.84005737304688,5.0955963134765625,304.8569641113281
1700075994,0.99169921875,3.0517578125e-05,-0.0948638916015625,-0.0294324569404125,0.0227061118930578,0.0234150439500808,105.2997589111328,5.8329010009765625,305.10009765625
1700075994,0.985748291015625,-0.0015869140625,-0.0923614501953125,-0.0333153456449508,0.0265061762183904,0.0263807401061058,104.40890502929688,6.800537109375,305.4800720214844
1700075994,0.9878997802734376,-0.0045318603515625,-0.093719482421875,-0.0374533645808696,0.0299190171062946,0.0279333647340536,104.29969787597656,7.479385375976562,305.53887939453125
1700075994,0.992919921875,-0.008056640625,-0.09454345703125,-0.0424257554113864,0.0304103698581457,0.0367417708039283,103.73016357421876,8.050125122070312,305.5508728027344
1700075994,0.994781494140625,-0.0085296630859375,-0.0963897705078125,-0.0438777096569538,0.0323310419917106,0.0441597364842891,103.78433227539062,8.949462890625,305.1114196777344
1700075994,0.993438720703125,-0.008453369140625,-0.0958099365234375,-0.036290630698204,0.0351667739450931,0.0511127188801765,103.79734802246094,10.047744750976562,304.2782592773437
1700075994,0.9933013916015624,-0.0061492919921875,-0.0979156494140625,-0.0259178839623928,0.0362461544573307,0.0539548434317112,103.49595642089844,10.732498168945312,304.50079345703125
1700075994,0.99493408203125,-0.0057525634765625,-0.09808349609375,-0.0153989298269152,0.0360549390316009,0.0568361170589923,103.74246215820312,11.860015869140623,303.4722900390625
1700075994,0.99530029296875,-0.0056610107421875,-0.10003662109375,-0.0074254255741834,0.0391545929014682,0.0620950609445571,103.86563110351562,12.203262329101562,303.11383056640625
1700075994,0.9947967529296876,-0.0047454833984375,-0.10089111328125,0.0005155879771336,0.0401716530323028,0.0686195418238639,104.16496276855467,13.32940673828125,302.380615234375
1700075994,0.9948272705078124,-0.0070648193359375,-0.1024932861328125,0.0069050439633429,0.041831336915493,0.0736883357167244,104.60960388183594,13.948944091796877,301.5834350585937
1700075994,0.9955291748046876,-0.0059051513671875,-0.101409912109375,0.010441455990076,0.0466170348227024,0.0784503370523452,105.53579711914062,14.05255126953125,300.68798828125
1700075994,0.995147705078125,-0.002197265625,-0.098358154296875,0.0135387117043137,0.0478812381625175,0.0863332897424697,106.2510223388672,15.020523071289062,299.510498046875
1700075994,0.9935150146484376,0.0022735595703125,-0.096649169921875,0.0185478515923023,0.0515803694725036,0.0895804837346077,107.31100463867188,15.497360229492188,298.11700439453125
1700075994,0.99151611328125,0.0052642822265625,-0.0949249267578125,0.0178860556334257,0.0535564348101615,0.0934844091534614,108.97653198242188,15.911407470703123,297.08514404296875
1700075994,0.993682861328125,0.003814697265625,-0.0974273681640625,0.0150244897231459,0.0605533570051193,0.0976027250289917,110.22769165039062,15.731185913085938,295.5751953125
1700075994,0.9963531494140624,-0.001983642578125,-0.1005401611328125,0.0077343522571027,0.0614388585090637,0.1024275720119476,111.62548828125,15.84918212890625,294.71746826171875
1700075994,0.9969635009765624,-0.002716064453125,-0.101715087890625,0.0121504059061408,0.0641156062483787,0.1052276194095611,113.72695922851562,15.39190673828125,293.3563537597656
1700075994,0.99578857421875,0.0034332275390625,-0.101226806640625,0.0189795494079589,0.0674109980463981,0.1076231300830841,115.4076690673828,14.891342163085938,292.6527099609375
1700075994,0.9965057373046876,0.0135650634765625,-0.1001739501953125,0.030809311196208,0.0696616321802139,0.1001372560858726,117.70329284667967,13.870819091796877,291.9842529296875
1700075994,0.9972991943359376,0.0226287841796875,-0.0979156494140625,0.0434883534908294,0.0674549415707588,0.0934111699461937,119.4679718017578,12.713653564453123,291.0209655761719
1700075994,0.9952392578125,0.029541015625,-0.100982666015625,0.0495369248092174,0.0668184459209442,0.0887650251388549,121.74497985839844,11.550323486328123,290.3289489746094
1700075994,0.9913482666015624,0.0277252197265625,-0.105682373046875,0.0457373932003974,0.063929446041584,0.0873002856969833,123.209228515625,10.36004638671875,288.9906616210937
1700075994,0.9879150390625,0.02008056640625,-0.1085968017578125,0.0346732921898365,0.0599474906921386,0.0894883349537849,125.0681610107422,8.889999389648438,287.8275756835937
1700075994,0.9878997802734376,0.0123138427734375,-0.114044189453125,0.0174162741750478,0.0582561157643795,0.0905365571379661,127.07513427734376,7.299774169921875,286.4034118652344
1700075994,0.989349365234375,0.0057373046875,-0.11614990234375,0.0066493805497884,0.0594042055308818,0.0931653603911399,128.5529327392578,5.7557373046875,284.7994384765625
1700075994,0.9906463623046876,0.0070953369140625,-0.11492919921875,-1.59789669851e-05,0.0564374439418315,0.0943411514163017,129.5882568359375,4.247772216796875,283.5606994628906
1700075994,0.9948577880859376,0.015411376953125,-0.1147613525390625,0.0018700717482715,0.0593136586248874,0.0929411277174949,130.4587860107422,2.349090576171875,282.83111572265625
1700075994,0.9962158203125,0.022735595703125,-0.1124420166015625,0.0066025089472532,0.0546539239585399,0.0901882126927375,131.65283203125,1.010955810546875,281.85919189453125
1700075994,0.99468994140625,0.0275726318359375,-0.109954833984375,0.0108443917706608,0.0531252697110176,0.0896726250648498,132.0926055908203,-0.7115936279296875,280.4078369140625
1700075994,0.9918060302734376,0.03076171875,-0.1095123291015625,0.017904432490468,0.052483182400465,0.0875668674707412,132.64981079101562,-2.8005523681640625,279.26776123046875
1700075994,0.9888153076171876,0.0260772705078125,-0.1082000732421875,0.0520506836473941,0.0550030656158924,0.0774899944663047,133.26156616210938,-3.9332427978515625,278.1024475097656
1700075994,1.00244140625,0.005889892578125,-0.1042938232421875,0.0729972422122955,0.0626561939716339,0.062435146421194,133.2736053466797,-5.74713134765625,277.54205322265625
1700075994,1.0255279541015625,-0.026824951171875,-0.102508544921875,0.088021732866764,0.0819257572293281,0.0874707251787185,133.33702087402344,-7.112518310546875,276.4752197265625
1700075994,1.027130126953125,-0.031494140625,-0.0831298828125,0.0828655883669853,0.0781472623348236,0.1076399087905883,133.32363891601562,-8.126205444335938,275.59332275390625
1700075994,1.058502197265625,-0.0415496826171875,-0.06634521484375,0.0234006643295288,0.0696531161665916,0.1141737103462219,133.01300048828125,-9.674240112304688,274.95953369140625
1700075994,1.1029510498046875,-0.077484130859375,-0.078369140625,-0.0662253573536872,0.0945906862616539,0.196451798081398,133.04673767089844,-10.373611450195312,274.2828369140625
1700075994,1.1046600341796875,-0.0838775634765625,-0.1033477783203125,-0.1276517063379287,0.0844078212976455,0.3108798563480377,132.71043395996094,-11.602142333984377,273.1015625
1700075994,1.1021881103515625,-0.0762481689453125,-0.1216278076171875,-0.1541461646556854,0.0514618605375289,0.3817732036113739,132.15216064453125,-12.782501220703123,272.56988525390625
1700075994,1.1107330322265625,-0.07952880859375,-0.12176513671875,-0.1119329258799552,0.0305232871323823,0.4159514009952545,132.23484802246094,-13.280075073242188,271.43621826171875
1700075994,1.0956878662109375,-0.067169189453125,-0.0796356201171875,0.011037204414606,0.0385364741086959,0.4103358685970306,132.2559356689453,-14.368515014648438,271.60406494140625
1700075994,1.1019439697265625,-0.0529632568359375,-0.0468597412109375,0.1131870076060295,0.106432169675827,0.431942880153656,132.15711975097656,-14.926422119140623,270.7868347167969
1700075994,1.05853271484375,-0.0241241455078125,-0.09967041015625,0.1605169773101806,0.1855493485927581,0.4443473517894745,132.6444549560547,-16.134017944335938,270.09600830078125
1700075994,1.0298614501953125,-0.0214080810546875,-0.1561431884765625,0.1354960352182388,0.2239944785833358,0.4762059450149536,132.83123779296875,-17.448654174804688,269.5801086425781
1700075994,1.0323028564453125,-0.017974853515625,-0.156646728515625,0.0854645669460296,0.2228661030530929,0.5473496317863464,133.1648712158203,-18.144287109375,269.6757202148437
1700075994,1.0420684814453125,0.017333984375,-0.1314544677734375,-0.01697339117527,0.2248187363147735,0.5953097343444824,133.73524475097656,-18.609649658203125,268.6636962890625
1700075994,1.0730133056640625,0.026885986328125,-0.14056396484375,-0.1174171715974807,0.2245521545410156,0.6113597750663757,134.15960693359375,-19.49423217773437,268.1969299316406
1700075994,1.07220458984375,0.0131988525390625,-0.176239013671875,-0.1967985481023788,0.222636267542839,0.6118572354316711,134.07321166992188,-19.85833740234375,266.8594665527344
1700075994,1.0088958740234375,0.017364501953125,-0.2176666259765625,-0.2157906144857406,0.2205086648464203,0.595492422580719,133.95848083496094,-20.291168212890625,266.1259155273437
1700075994,0.9365081787109376,0.0448150634765625,-0.22491455078125,-0.2231124490499496,0.2070586383342743,0.5336684584617615,134.02687072753906,-21.273895263671875,264.90057373046875
1700075995,0.9114532470703124,0.070770263671875,-0.2045135498046875,-0.3027295172214508,0.1798129081726074,0.387256920337677,134.33102416992188,-21.759490966796875,263.9193725585937
1700075995,0.9281005859375,0.015289306640625,-0.170440673828125,-0.4898935258388519,0.1964227706193924,0.2364809811115265,134.7024688720703,-21.553634643554688,263.18609619140625
1700075995,0.8997802734375,-0.0914306640625,-0.1700592041015625,-0.6562851667404175,0.1911952644586563,0.0917831808328628,134.66734313964844,-21.0947265625,262.5892944335937
1700075995,0.8494110107421875,-0.18890380859375,-0.158721923828125,-0.7648065686225891,0.1502486169338226,-0.0660200268030166,134.5116729736328,-21.098464965820312,262.44757080078125
1700075995,0.8251953125,-0.2686767578125,-0.12677001953125,-0.7943711280822754,0.0975995287299156,-0.2132113426923751,134.94863891601562,-21.48155212402344,261.31414794921875
1700075995,0.8104705810546875,-0.267120361328125,-0.06365966796875,-0.7358683943748474,0.0512802302837371,-0.3582244515419006,135.73817443847656,-22.23394775390625,261.1982727050781
1700075995,0.81597900390625,-0.214447021484375,-0.015472412109375,-0.6005409359931946,-0.0066286078654229,-0.5287096500396729,136.36090087890625,-22.709686279296875,260.40338134765625
1700075995,0.8476104736328125,-0.157135009765625,0.0134429931640625,-0.4578024446964264,-0.0592374913394451,-0.7005841732025146,136.39208984375,-22.600738525390625,259.4170227050781
1700075995,0.885833740234375,-0.1085968017578125,0.0107879638671875,-0.3754830658435821,-0.0924598947167396,-0.8218035697937012,135.5400848388672,-22.435867309570312,258.0731811523437
