timestamp,acc-x,acc-y,acc-z,gyr-x,gyr-y,gyr-z,mag-x,mag-y,mag-z
1700082090,0.9635928319367991,-0.20696330031600405,-0.11086012963302751,0.02107485071783153,-0.0438295808407076,-0.005650503453331642,-29.961999415375622,-35.45746857643964,25.796550716164862
1700082090,0.9635928319367991,-0.20696330031600405,-0.11086012963302751,0.02107485071783153,-0.0438295808407076,-0.005650503453331642,-29.655071616486406,-35.83747442268342,26.702718503361588
1700082090,0.9645684986442405,-0.20489000856269113,-0.10915271289500508,0.02153299964648004,-0.04581489286485115,-0.005345070834232635,-29.114294066062556,-35.6182402806197,25.81116632563578
1700082090,0.9645684986442405,-0.20489000856269113,-0.10915271289500508,0.02153299964648004,-0.04581489286485115,-0.005345070834232635,-29.567377959660917,-34.945922244957615,26.49809997076878
1700082090,0.9639587069520897,-0.20562175859327214,-0.11025033794087664,0.016187928812247405,-0.04657847441259867,-0.00519235452468313,-29.567377959660917,-35.55977784273604,26.30809704764689
1700082090,0.9639587069520897,-0.20562175859327214,-0.11025033794087664,0.016187928812247405,-0.04657847441259867,-0.00519235452468313,-29.450453083893596,-35.179771996492256,26.35194387605963
1700082090,0.9640806652905198,-0.20745113366972476,-0.11086012963302751,0.013591751549905842,-0.047189339650796684,-0.004428772976935611,-29.596609178602744,-35.36977491961415,27.170418006430868
1700082090,0.9640806652905198,-0.20745113366972476,-0.11086012963302751,0.013591751549905842,-0.047189339650796684,-0.004428772976935611,-29.465068693364515,-34.96053785442853,26.951183864367145
1700082090,0.9639587069520897,-0.20806092536187565,-0.11061621295616715,0.016187928812247405,-0.047952921198544204,-0.004581489286485115,-29.698918444899153,-35.01900029231219,27.12657117801812
1700082090,0.9639587069520897,-0.20806092536187565,-0.11061621295616715,0.016187928812247405,-0.04810563750809371,-0.004886921905584123,-29.37737503653902,-35.00438468284127,26.439637532885126
1700082090,0.9649343736595309,-0.20659742530071357,-0.11086012963302751,0.019089538693687978,-0.04810563750809371,-0.004886921905584123,-30.049693072201112,-35.36977491961415,27.345805320081844
1700082090,0.9649343736595309,-0.20659742530071357,-0.11086012963302751,0.019089538693687978,-0.04673119072214818,-0.005345070834232635,-29.494299912306342,-35.121309558608594,26.49809997076878
1700082090,0.9657880820285422,-0.20574371693170232,-0.11122600464831804,0.019089538693687978,-0.04673119072214818,-0.005345070834232635,-30.09353990061386,-34.872844197603044,26.19117217187957
1700082090,0.9657880820285422,-0.20574371693170232,-0.11122600464831804,0.016493361431346415,-0.04581489286485115,-0.004581489286485115,-30.239695995323007,-35.545162233265124,27.068108740134463
1700082090,0.9650563319979611,-0.205499800254842,-0.11232362969418959,0.016493361431346415,-0.04581489286485115,-0.004581489286485115,-29.771996492253727,-35.121309558608594,26.3227126571178
1700082090,0.9645684986442405,-0.20623155028542303,-0.11268950470948011,0.015424347264499889,-0.04505131131710363,-0.004734205596034618,-29.786612101724643,-35.20900321543408,26.264250219234142
1700082090,0.9645684986442405,-0.20623155028542303,-0.11268950470948011,0.015424347264499889,-0.04505131131710363,-0.004734205596034618,-30.327389652148497,-35.00438468284127,26.381175095001463
1700082090,0.9655441653516819,-0.20684134197757392,-0.11220167135575941,0.016646077740895916,-0.04321871560250958,-0.004428772976935611,-29.684302835428237,-35.530546623794216,26.264250219234142
1700082090,0.9655441653516819,-0.20684134197757392,-0.11220167135575941,0.016646077740895916,-0.04321871560250958,-0.004428772976935611,-29.655071616486406,-35.36977491961415,26.731949722303423
1700082090,0.9649343736595309,-0.20659742530071357,-0.11061621295616715,0.017715091907742442,-0.04214970143566306,-0.004276056667386108,-29.961999415375622,-35.00438468284127,26.96579947383806
1700082090,0.9649343736595309,-0.20659742530071357,-0.11061621295616715,0.017715091907742442,-0.04214970143566306,-0.004276056667386108,-29.64045600701549,-35.910552470038,26.9073370359544
1700082090,0.9640806652905198,-0.20684134197757392,-0.11073817129459733,0.018784106074588972,-0.04092797095926703,-0.004123340357836604,-29.99123063431745,-35.296696872259574,26.132709733995906
1700082090,0.9640806652905198,-0.20684134197757392,-0.11073817129459733,0.018784106074588972,-0.04092797095926703,-0.004123340357836604,-30.064308681672024,-35.01900029231219,26.381175095001463
1700082090,0.9637147902752293,-0.2053778419164118,-0.11073817129459733,0.018631389765039467,-0.04123340357836603,-0.004123340357836604,-30.049693072201112,-35.150540777550425,26.425021923414207
1700082090,0.9637147902752293,-0.2053778419164118,-0.11073817129459733,0.018631389765039467,-0.04123340357836603,-0.004123340357836604,-30.064308681672024,-35.5159310143233,26.235019000292315
1700082090,0.9648124153211007,-0.20659742530071357,-0.11012837960244648,0.01710422666954443,-0.04199698512611356,-0.003817907738737596,-30.064308681672024,-34.84361297866121,26.81964337912891
1700082090,0.9648124153211007,-0.20659742530071357,-0.11012837960244648,0.01710422666954443,-0.04199698512611356,-0.003817907738737596,-30.005846243788366,-35.077462730195855,26.527331189710612
1700082090,0.9635928319367991,-0.2078170086850153,-0.10939662957186544,0.0160352125026979,-0.04306599929296008,-0.004428772976935611,-30.181233557439345,-35.25285004384683,26.688102893890676
1700082090,0.9635928319367991,-0.2078170086850153,-0.10939662957186544,0.0160352125026979,-0.04306599929296008,-0.004428772976935611,-30.064308681672024,-35.13592516807951,27.097339959076294
1700082090,0.9628610819062181,-0.20806092536187565,-0.10915271289500508,0.01679879405044542,-0.044898595007554123,-0.004734205596034618,-30.69277988892137,-34.726688102893895,27.243496053785442
1700082090,0.9628610819062181,-0.20732917533129458,-0.1100064212640163,0.01756237559819294,-0.04627304179349966,-0.006108652381980153,-30.09353990061386,-34.55130078924291,26.717334112832503
1700082090,0.9637147902752293,-0.20732917533129458,-0.1100064212640163,0.01756237559819294,-0.04627304179349966,-0.006108652381980153,-29.918152586962876,-35.00438468284127,26.454253142356038
1700082090,0.9643245819673802,-0.20647546696228333,-0.1100064212640163,0.016951510359994926,-0.047647488579445195,-0.006872233929727673,-30.07892429114294,-34.98976907337036,26.468868751826953
1700082090,0.9643245819673802,-0.20647546696228333,-0.1100064212640163,0.016951510359994926,-0.047647488579445195,-0.006872233929727673,-30.22508038585209,-35.31131248173049,26.30809704764689
1700082090,0.9646904569826708,-0.2067193836391437,-0.11025033794087664,0.016493361431346415,-0.04810563750809371,-0.007635815477475192,-30.40046769950307,-35.31131248173049,26.600409237065186
1700082090,0.9646904569826708,-0.2067193836391437,-0.11025033794087664,0.016493361431346415,-0.04810563750809371,-0.007635815477475192,-30.268927214264835,-35.06284712072493,26.249634609763227
1700082090,0.9648124153211007,-0.20647546696228333,-0.11159187966360855,0.0158824961931484,-0.047647488579445195,-0.008093964406123703,-29.684302835428237,-35.23823443437591,27.053493130663547
1700082090,0.9648124153211007,-0.20647546696228333,-0.11159187966360855,0.0158824961931484,-0.047647488579445195,-0.008093964406123703,-30.09353990061386,-34.96053785442853,26.717334112832503
1700082090,0.9650563319979611,-0.20598763360856268,-0.11134796298674822,0.016493361431346415,-0.047036623341247176,-0.007635815477475192,-30.268927214264835,-35.06284712072493,26.337328266588717
1700082090,0.9650563319979611,-0.20598763360856268,-0.11134796298674822,0.016493361431346415,-0.047036623341247176,-0.007635815477475192,-29.961999415375622,-35.58900906167787,26.49809997076878
1700082090,0.9644465403058102,-0.2067193836391437,-0.11207971301732926,0.016951510359994926,-0.04642575810304917,-0.006872233929727673,-29.815843320666474,-35.20900321543408,26.132709733995906
1700082090,0.9644465403058102,-0.2067193836391437,-0.11207971301732926,0.016951510359994926,-0.04642575810304917,-0.006872233929727673,-30.049693072201112,-35.06284712072493,26.527331189710612
1700082090,0.9645684986442405,-0.20562175859327214,-0.11146992132517837,0.01832595714594046,-0.04642575810304917,-0.005955936072430649,-30.122771119555686,-35.23823443437591,25.75270388775212
1700082090,0.9645684986442405,-0.20562175859327214,-0.11146992132517837,0.01832595714594046,-0.04642575810304917,-0.005955936072430649,-29.596609178602744,-35.10669394913768,25.89885998246127
1700082090,0.9655441653516819,-0.20476805022426095,-0.11305537972477062,0.018020524526841452,-0.04581489286485115,-0.004581489286485115,-30.19584916691026,-35.10669394913768,25.986553639286758
1700082090,0.9653002486748217,-0.20501196690112128,-0.11098208797145769,0.016951510359994926,-0.045662176555301644,-0.003817907738737596,-30.40046769950307,-35.57439345220696,25.94270681087401
1700082090,0.9653002486748217,-0.20501196690112128,-0.11098208797145769,0.016951510359994926,-0.045662176555301644,-0.003817907738737596,-30.239695995323007,-35.25285004384683,26.278865828705054
1700082090,0.9648124153211007,-0.20623155028542303,-0.11122600464831804,0.016493361431346415,-0.04459316238845512,-0.0035124751196385882,-30.25431160479392,-35.44285296696872,25.796550716164862
1700082090,0.9644465403058102,-0.2063535086238532,-0.11134796298674822,0.016493361431346415,-0.04413501345980661,-0.0035124751196385882,-30.049693072201112,-35.45746857643964,26.19117217187957
1700082090,0.9644465403058102,-0.2063535086238532,-0.11134796298674822,0.016493361431346415,-0.04413501345980661,-0.0035124751196385882,-29.947383805904703,-35.10669394913768,26.571178018123355
1700082090,0.9661539570438327,-0.2053778419164118,-0.11232362969418959,0.0160352125026979,-0.04276056667386108,-0.002748893571891069,-29.53814674071909,-35.077462730195855,25.9280912014031
1700082090,0.9661539570438327,-0.2053778419164118,-0.11232362969418959,0.0160352125026979,-0.04199698512611356,-0.0022907446432425577,-29.611224788073663,-35.06284712072493,26.688102893890676
1700082090,0.96420262362895,-0.20659742530071357,-0.11122600464831804,0.0160352125026979,-0.04199698512611356,-0.0022907446432425577,-29.52353113124817,-35.16515638702134,26.278865828705054
1700082090,0.9635928319367991,-0.20732917533129458,-0.11086012963302751,0.017715091907742442,-0.04184426881656405,-0.002596177262341565,-30.210464776381173,-35.121309558608594,26.67348728441976
1700082090,0.9635928319367991,-0.20732917533129458,-0.11086012963302751,0.017715091907742442,-0.04184426881656405,-0.002596177262341565,-30.035077462730197,-35.28208126278866,26.030400467699504
1700082090,0.9643245819673802,-0.20623155028542303,-0.10951858791029562,0.018478673455489966,-0.04260785036431157,-0.002901609881440573,-29.947383805904703,-35.25285004384683,26.29348143817597
1700082090,0.9643245819673802,-0.20623155028542303,-0.10951858791029562,0.018478673455489966,-0.04260785036431157,-0.002901609881440573,-30.22508038585209,-35.45746857643964,25.9280912014031
1700082090,0.9644465403058102,-0.20732917533129458,-0.11110404630988786,0.01710422666954443,-0.04276056667386108,-0.0030543261909900766,-30.22508038585209,-35.325928091201405,26.425021923414207
1700082090,0.9644465403058102,-0.20732917533129458,-0.11110404630988786,0.01710422666954443,-0.04276056667386108,-0.0030543261909900766,-30.502776965799473,-35.077462730195855,26.9073370359544
1700082090,0.9645684986442405,-0.2063535086238532,-0.10878683787971458,0.015729779883598895,-0.04321871560250958,-0.003817907738737596,-30.005846243788366,-35.048231511254016,26.41040631394329
1700082090,0.9645684986442405,-0.2063535086238532,-0.10878683787971458,0.015729779883598895,-0.04321871560250958,-0.003817907738737596,-29.947383805904703,-35.13592516807951,26.249634609763227
1700082090,0.9639587069520897,-0.2067193836391437,-0.10927467123343526,0.01557706357404939,-0.04444044607890562,-0.003665191429188092,-29.888921368021048,-35.28208126278866,26.92195264542531
1700082090,0.9639587069520897,-0.2067193836391437,-0.10927467123343526,0.01557706357404939,-0.04444044607890562,-0.003665191429188092,-30.005846243788366,-35.23823443437591,26.337328266588717
1700082090,0.9632269569215086,-0.20793896702344547,-0.11037229627930682,0.016493361431346415,-0.04627304179349966,-0.004123340357836604,-29.72814966384098,-35.31131248173049,26.3227126571178
1700082090,0.9632269569215086,-0.20793896702344547,-0.11037229627930682,0.016493361431346415,-0.04627304179349966,-0.004123340357836604,-29.333528208126282,-34.84361297866121,26.454253142356038
1700082090,0.9640806652905198,-0.20745113366972476,-0.11098208797145769,0.018478673455489966,-0.047342055960346185,-0.005039638215133627,-29.66968722595732,-35.35515931014323,26.29348143817597
1700082090,0.9640806652905198,-0.20745113366972476,-0.11098208797145769,0.018478673455489966,-0.047342055960346185,-0.005039638215133627,-29.698918444899153,-34.90207541654487,26.454253142356038
1700082090,0.9651782903363912,-0.20513392523955148,-0.11110404630988786,0.01679879405044542,-0.04673119072214818,-0.006414085001079161,-30.488161356328558,-35.10669394913768,26.088862905583166
1700082090,0.9651782903363912,-0.20513392523955148,-0.11110404630988786,0.01679879405044542,-0.04673119072214818,-0.006414085001079161,-29.684302835428237,-35.63285589009062,26.30809704764689
1700082090,0.9644465403058102,-0.2058656752701325,-0.11134796298674822,0.012217304763960306,-0.04627304179349966,-0.006566801310628665,-30.049693072201112,-35.223618824905,26.585793627594274
1700082090,0.9644465403058102,-0.2058656752701325,-0.11134796298674822,0.012522737383059314,-0.04642575810304917,-0.006108652381980153,-33.57205495469161,-35.121309558608594,26.35194387605963
1700082090,0.9649343736595309,-0.20696330031600405,-0.110494254617737,0.012522737383059314,-0.04642575810304917,-0.006108652381980153,-30.473545746857646,-35.06284712072493,26.41040631394329
1700082090,0.9649343736595309,-0.20696330031600405,-0.110494254617737,0.01756237559819294,-0.046883907031697675,-0.005039638215133627,-29.655071616486406,-34.96053785442853,25.358082432037417
1700082090,0.9638367486136593,-0.2072072169928644,-0.11122600464831804,0.01756237559819294,-0.046883907031697675,-0.005039638215133627,-30.502776965799473,-35.03361590178311,26.41040631394329
1700082090,0.9638367486136593,-0.2072072169928644,-0.11025033794087664,0.020005836550985003,-0.046883907031697675,-0.004734205596034618,-30.283542823735747,-34.726688102893895,26.731949722303423
1700082091,0.9645684986442405,-0.2046460918858308,-0.11025033794087664,0.020005836550985003,-0.046883907031697675,-0.004734205596034618,-30.25431160479392,-34.96053785442853,25.533469745688397
1700082091,0.9649343736595309,-0.2053778419164118,-0.1118357963404689,0.017256942979093935,-0.04612032548395016,-0.004734205596034618,-30.19584916691026,-35.20900321543408,25.9280912014031
1700082091,0.9649343736595309,-0.2053778419164118,-0.1118357963404689,0.017256942979093935,-0.04612032548395016,-0.004734205596034618,-30.268927214264835,-34.66822566501023,26.015784858228585
1700082091,0.9650563319979611,-0.2067193836391437,-0.11110404630988786,0.014813482026301871,-0.04581489286485115,-0.005497787143782138,-30.54662379421222,-34.84361297866121,26.600409237065186
1700082091,0.9650563319979611,-0.2067193836391437,-0.11110404630988786,0.014813482026301871,-0.04581489286485115,-0.005497787143782138,-30.45893013738673,-34.96053785442853,25.95732242034493
1700082091,0.9643245819673802,-0.20647546696228333,-0.11146992132517837,0.015271630954950384,-0.04596760917440065,-0.005803219762881146,-30.064308681672024,-35.38439052908507,25.75270388775212
1700082091,0.9643245819673802,-0.20647546696228333,-0.11146992132517837,0.015271630954950384,-0.04596760917440065,-0.005803219762881146,-30.31277404267758,-35.077462730195855,25.84039754457761
1700082091,0.9645684986442405,-0.20659742530071357,-0.11268950470948011,0.018020524526841452,-0.04612032548395016,-0.005039638215133627,-30.444314527915818,-35.35515931014323,26.278865828705054
1700082091,0.9645684986442405,-0.20659742530071357,-0.11268950470948011,0.018020524526841452,-0.04612032548395016,-0.005039638215133627,-30.385852090032156,-34.75591932183572,26.6150248465361
1700082091,0.96420262362895,-0.205499800254842,-0.11098208797145769,0.019089538693687978,-0.04581489286485115,-0.00519235452468313,-30.181233557439345,-35.36977491961415,26.235019000292315
1700082091,0.96420262362895,-0.205499800254842,-0.11098208797145769,0.019089538693687978,-0.04581489286485115,-0.00519235452468313,-30.1373867290266,-35.077462730195855,26.381175095001463
1700082091,0.9645684986442405,-0.2053778419164118,-0.11220167135575941,0.017409659288643436,-0.04596760917440065,-0.004886921905584123,-30.385852090032156,-34.91669102601578,26.3227126571178
1700082091,0.9645684986442405,-0.2053778419164118,-0.11220167135575941,0.017409659288643436,-0.04596760917440065,-0.004886921905584123,-30.25431160479392,-34.96053785442853,27.345805320081844
1700082091,0.96420262362895,-0.20623155028542303,-0.11220167135575941,0.014660765716752368,-0.044898595007554123,-0.004276056667386108,-30.166617947968433,-34.9313066354867,26.87810581701257
1700082091,0.96420262362895,-0.20623155028542303,-0.11220167135575941,0.014660765716752368,-0.044898595007554123,-0.004276056667386108,-30.09353990061386,-34.88745980707396,26.67348728441976
1700082091,0.9648124153211007,-0.20684134197757392,-0.11244558803261977,0.01389718416900485,-0.04428772976935611,-0.0039706240482871,-30.10815551008477,-35.223618824905,27.009646302250808
1700082091,0.9648124153211007,-0.20684134197757392,-0.11244558803261977,0.01389718416900485,-0.04428772976935611,-0.0039706240482871,-30.25431160479392,-34.78515054077755,26.951183864367145
1700082091,0.9649343736595309,-0.20623155028542303,-0.11134796298674822,0.01557706357404939,-0.04214970143566306,-0.0033597588100890844,-29.87430575855013,-35.20900321543408,26.439637532885126
1700082091,0.9649343736595309,-0.20623155028542303,-0.11134796298674822,0.01557706357404939,-0.04214970143566306,-0.0033597588100890844,-33.42589885998246,-35.179771996492256,26.863490207541656
1700082091,0.9651782903363912,-0.20562175859327214,-0.11086012963302751,0.01710422666954443,-0.04169155250701455,-0.002748893571891069,-30.473545746857646,-34.945922244957615,26.366559485530544
1700082091,0.9651782903363912,-0.20562175859327214,-0.11086012963302751,0.016646077740895916,-0.04123340357836603,-0.002138028333693054,-30.415083308973983,-34.8289973691903,27.009646302250808
1700082091,0.96420262362895,-0.20659742530071357,-0.11086012963302751,0.016646077740895916,-0.04123340357836603,-0.002138028333693054,-29.976615024846538,-34.91669102601578,26.951183864367145
1700082091,0.96420262362895,-0.20659742530071357,-0.10976250458715596,0.017409659288643436,-0.04199698512611356,-0.0024434609527920616,-29.567377959660917,-34.872844197603044,26.805027769657997
1700082091,0.9639587069520897,-0.20732917533129458,-0.10976250458715596,0.017409659288643436,-0.04199698512611356,-0.0024434609527920616,-30.19584916691026,-34.770534931306635,26.64425606547793
1700082091,0.9637147902752293,-0.2067193836391437,-0.1096405462487258,0.018020524526841452,-0.04291328298341058,-0.002748893571891069,-30.166617947968433,-34.91669102601578,27.097339959076294
1700082091,0.9637147902752293,-0.2067193836391437,-0.1096405462487258,0.018020524526841452,-0.04291328298341058,-0.002748893571891069,-29.961999415375622,-35.42823735749781,25.971938029815846
1700082091,0.9639587069520897,-0.20732917533129458,-0.10976250458715596,0.016646077740895916,-0.04459316238845512,-0.003817907738737596,-30.298158433206662,-35.296696872259574,26.863490207541656
1700082091,0.9639587069520897,-0.20732917533129458,-0.10976250458715596,0.016646077740895916,-0.04459316238845512,-0.003817907738737596,-30.327389652148497,-34.65361005553931,26.93656825489623
1700082091,0.9637147902752293,-0.20684134197757392,-0.11073817129459733,0.016493361431346415,-0.04581489286485115,-0.004734205596034618,-30.064308681672024,-34.84361297866121,26.790412160187078
1700082091,0.9637147902752293,-0.20684134197757392,-0.11073817129459733,0.016493361431346415,-0.04581489286485115,-0.004734205596034618,-29.947383805904703,-34.81438175971938,26.9073370359544
1700082091,0.9649343736595309,-0.20732917533129458,-0.110494254617737,0.016951510359994926,-0.047342055960346185,-0.00519235452468313,-30.502776965799473,-35.194387605963165,26.220403390821396
1700082091,0.9649343736595309,-0.20732917533129458,-0.110494254617737,0.016951510359994926,-0.047342055960346185,-0.00519235452468313,-30.09353990061386,-34.84361297866121,26.278865828705054
1700082091,0.9646904569826708,-0.20610959194699285,-0.11086012963302751,0.018173240836390957,-0.048258353817643214,-0.005497787143782138,-30.8243203741596,-34.88745980707396,26.688102893890676
1700082091,0.9646904569826708,-0.20610959194699285,-0.11086012963302751,0.018173240836390957,-0.048258353817643214,-0.005497787143782138,-30.897398421514175,-34.90207541654487,27.5942706810874
1700082091,0.9649343736595309,-0.20623155028542303,-0.11122600464831804,0.01710422666954443,-0.04810563750809371,-0.005345070834232635,-30.678164279450453,-35.194387605963165,26.381175095001463
1700082091,0.9649343736595309,-0.20623155028542303,-0.11122600464831804,0.01710422666954443,-0.04810563750809371,-0.005345070834232635,-30.34200526161941,-35.530546623794216,26.249634609763227
1700082091,0.9653002486748217,-0.2053778419164118,-0.11061621295616715,0.0160352125026979,-0.047342055960346185,-0.005039638215133627,-30.35662087109032,-35.077462730195855,26.541946799181527
1700082091,0.9653002486748217,-0.2053778419164118,-0.11061621295616715,0.0160352125026979,-0.047342055960346185,-0.005039638215133627,-29.976615024846538,-35.09207833966676,27.053493130663547
1700082091,0.9650563319979611,-0.20696330031600405,-0.11146992132517837,0.015271630954950384,-0.04642575810304917,-0.004276056667386108,-29.8450745396083,-35.00438468284127,27.199649225372696
1700082091,0.9650563319979611,-0.20696330031600405,-0.11146992132517837,0.015271630954950384,-0.04642575810304917,-0.004276056667386108,-30.10815551008477,-35.5159310143233,26.834258988599824
1700082091,0.9643245819673802,-0.20757309200815494,-0.11061621295616715,0.016493361431346415,-0.04581489286485115,-0.0035124751196385882,-30.122771119555686,-35.223618824905,27.345805320081844
1700082091,0.9643245819673802,-0.20757309200815494,-0.11061621295616715,0.016493361431346415,-0.04581489286485115,-0.0035124751196385882,-30.4296989184449,-34.536685179772,27.214264834843615
1700082091,0.9646904569826708,-0.20793896702344547,-0.11232362969418959,0.018173240836390957,-0.045662176555301644,-0.003665191429188092,-30.45893013738673,-35.28208126278866,26.55656240865244
1700082091,0.9646904569826708,-0.20793896702344547,-0.11232362969418959,0.018173240836390957,-0.045662176555301644,-0.003665191429188092,-30.371236480561237,-35.13592516807951,27.12657117801812
1700082091,0.9653002486748217,-0.20623155028542303,-0.11207971301732926,0.01832595714594046,-0.04505131131710363,-0.004581489286485115,-29.771996492253727,-35.179771996492256,26.746565331774335
1700082091,0.9653002486748217,-0.20623155028542303,-0.11207971301732926,0.01832595714594046,-0.04505131131710363,-0.004581489286485115,-30.268927214264835,-35.048231511254016,26.49809997076878
1700082091,0.9648124153211007,-0.20610959194699285,-0.11207971301732926,0.016646077740895916,-0.04428772976935611,-0.005803219762881146,-29.786612101724643,-35.121309558608594,27.097339959076294
1700082091,0.9648124153211007,-0.20610959194699285,-0.11207971301732926,0.014813482026301871,-0.04199698512611356,-0.006414085001079161,-30.751242326805027,-34.799766150248466,27.053493130663547
1700082091,0.9643245819673802,-0.20696330031600405,-0.11305537972477062,0.014813482026301871,-0.04199698512611356,-0.006414085001079161,-30.634317451037706,-35.13592516807951,27.097339959076294
1700082091,0.9643245819673802,-0.20696330031600405,-0.11305537972477062,0.015424347264499889,-0.039706240482871,-0.007330382858376184,-30.298158433206662,-35.09207833966676,26.64425606547793
1700082091,0.9643245819673802,-0.20708525865443422,-0.11293342138634047,0.015424347264499889,-0.039706240482871,-0.007330382858376184,-30.35662087109032,-35.13592516807951,25.665010230926626
1700082091,0.9648124153211007,-0.20598763360856268,-0.11122600464831804,0.017715091907742442,-0.038484510006474966,-0.006872233929727673,-29.918152586962876,-35.13592516807951,26.264250219234142
1700082091,0.9648124153211007,-0.20598763360856268,-0.11122600464831804,0.017715091907742442,-0.038484510006474966,-0.006872233929727673,-29.801227711195555,-35.26746565331774,26.381175095001463
1700082091,0.9649343736595309,-0.20623155028542303,-0.11025033794087664,0.019089538693687978,-0.038331793696925465,-0.005803219762881146,-29.947383805904703,-34.78515054077755,26.527331189710612
1700082091,0.9649343736595309,-0.20623155028542303,-0.11025033794087664,0.019089538693687978,-0.038331793696925465,-0.005803219762881146,-29.421221864951768,-35.121309558608594,26.220403390821396
1700082091,0.9635928319367991,-0.20476805022426095,-0.10988446292558612,0.019242255003237483,-0.038789942625573975,-0.004428772976935611,-30.736626717334115,-35.01900029231219,26.468868751826953
1700082091,0.9635928319367991,-0.20476805022426095,-0.10988446292558612,0.019242255003237483,-0.038789942625573975,-0.004428772976935611,-29.684302835428237,-35.048231511254016,26.688102893890676
1700082091,0.9643245819673802,-0.20525588357798163,-0.10854292120285422,0.017256942979093935,-0.038942658935123484,-0.002901609881440573,-29.567377959660917,-35.45746857643964,26.20578778135048
1700082091,0.9643245819673802,-0.20525588357798163,-0.10854292120285422,0.017256942979093935,-0.038942658935123484,-0.002901609881440573,-30.020461853259278,-34.88745980707396,26.717334112832503
1700082091,0.9631049985830784,-0.20647546696228333,-0.1090307545565749,0.016493361431346415,-0.04092797095926703,-0.0013744467859455344,-29.655071616486406,-34.84361297866121,26.541946799181527
1700082091,0.9631049985830784,-0.20647546696228333,-0.1090307545565749,0.016493361431346415,-0.04092797095926703,-0.0013744467859455344,-29.581993569131832,-35.121309558608594,26.848874598070736
1700082091,0.9637147902752293,-0.20732917533129458,-0.110494254617737,0.017256942979093935,-0.04276056667386108,0.000916297857297023,-29.99123063431745,-35.603624671148786,26.688102893890676
1700082091,0.9637147902752293,-0.20732917533129458,-0.110494254617737,0.017256942979093935,-0.04276056667386108,0.000916297857297023,-29.903536977491964,-35.26746565331774,26.483484361297865
1700082091,0.9645684986442405,-0.20732917533129458,-0.10939662957186544,0.018631389765039467,-0.0439822971502571,0.0013744467859455344,-30.19584916691026,-35.28208126278866,26.35194387605963
1700082091,0.9645684986442405,-0.20732917533129458,-0.10939662957186544,0.018631389765039467,-0.0439822971502571,0.0013744467859455344,-30.035077462730197,-35.194387605963165,26.176556562408653
1700082091,0.9644465403058102,-0.20745113366972476,-0.11073817129459733,0.01832595714594046,-0.04505131131710363,0.001069014166846527,-29.66968722595732,-35.13592516807951,26.81964337912891
1700082091,0.9644465403058102,-0.20745113366972476,-0.11073817129459733,0.01832595714594046,-0.04505131131710363,0.001069014166846527,-29.903536977491964,-35.296696872259574,26.6150248465361
1700082091,0.9645684986442405,-0.2078170086850153,-0.10951858791029562,0.017256942979093935,-0.04550946024575214,0.0003054326190990077,-30.80970476468869,-34.98976907337036,27.214264834843615
1700082091,0.9645684986442405,-0.2078170086850153,-0.10951858791029562,0.017256942979093935,-0.04550946024575214,0.0003054326190990077,-30.780473545746855,-34.96053785442853,26.6150248465361
1700082091,0.96420262362895,-0.20732917533129458,-0.10915271289500508,0.017867808217291947,-0.04596760917440065,-0.0006108652381980154,-30.4296989184449,-34.91669102601578,26.848874598070736
1700082091,0.96420262362895,-0.20732917533129458,-0.10915271289500508,0.017867808217291947,-0.04596760917440065,0.0006108652381980154,-29.93276819643379,-34.71207249342297,26.278865828705054
1700082091,0.9638367486136593,-0.20610959194699285,-0.10890879621814475,0.019394971312786988,-0.0478002048889947,0.0006108652381980154,-29.508915521777258,-35.23823443437591,27.038877521192635
1700082091,0.9638367486136593,-0.20610959194699285,-0.10890879621814475,0.019089538693687978,-0.04932736798448974,0.0006108652381980154,-28.997369190295235,-34.75591932183572,26.220403390821396
1700082091,0.9638367486136593,-0.20891463373088684,-0.11146992132517837,0.019089538693687978,-0.04932736798448974,0.0006108652381980154,-29.24583455130079,-34.55130078924291,26.16194095293774
1700082091,0.9638367486136593,-0.20891463373088684,-0.11146992132517837,0.018936822384138473,-0.048411070127192715,-0.001832595714594046,-29.786612101724643,-34.66822566501023,26.541946799181527
1700082091,0.9644465403058102,-0.20879267539245666,-0.11256754637104995,0.018936822384138473,-0.048411070127192715,-0.001832595714594046,-29.947383805904703,-34.66822566501023,26.41040631394329
1700082091,0.9655441653516819,-0.20708525865443422,-0.11207971301732926,0.016646077740895916,-0.04612032548395016,-0.00519235452468313,-29.36275942706811,-34.75591932183572,25.708857059339373
1700082091,0.9655441653516819,-0.20708525865443422,-0.11207971301732926,0.016646077740895916,-0.04612032548395016,-0.00519235452468313,-30.035077462730197,-34.71207249342297,26.088862905583166
1700082091,0.9646904569826708,-0.2072072169928644,-0.11159187966360855,0.013744467859455345,-0.04337143191205909,-0.0070249502392771765,-30.34200526161941,-34.62437883659749,26.541946799181527
1700082091,0.9646904569826708,-0.2072072169928644,-0.11159187966360855,0.013744467859455345,-0.04337143191205909,-0.0070249502392771765,-29.947383805904703,-34.522069570301085,26.571178018123355
1700082091,0.9648124153211007,-0.2085487587155963,-0.11098208797145769,0.01557706357404939,-0.04199698512611356,-0.006566801310628665,-29.8450745396083,-35.179771996492256,26.717334112832503
1700082091,0.9648124153211007,-0.2085487587155963,-0.11098208797145769,0.01557706357404939,-0.04199698512611356,-0.006566801310628665,-29.918152586962876,-35.38439052908507,26.951183864367145
1700082091,0.9650563319979611,-0.20745113366972476,-0.10988446292558612,0.02076941809873252,-0.04199698512611356,-0.005497787143782138,-29.786612101724643,-35.150540777550425,26.30809704764689
1700082091,0.9650563319979611,-0.20745113366972476,-0.10988446292558612,0.02076941809873252,-0.04199698512611356,-0.005497787143782138,-29.508915521777258,-35.31131248173049,25.94270681087401
1700082091,0.9639587069520897,-0.20489000856269113,-0.10939662957186544,0.02076941809873252,-0.04260785036431157,-0.005803219762881146,-29.450453083893596,-35.048231511254016,26.10347851505408
1700082091,0.9639587069520897,-0.20489000856269113,-0.10939662957186544,0.02076941809873252,-0.04260785036431157,-0.005803219762881146,-29.888921368021048,-35.296696872259574,26.717334112832503
1700082091,0.9639587069520897,-0.20659742530071357,-0.10890879621814475,0.014202616788103856,-0.04291328298341058,-0.005345070834232635,-30.049693072201112,-35.41362174802689,25.913475591932183
1700082091,0.9639587069520897,-0.20659742530071357,-0.10890879621814475,0.014202616788103856,-0.04291328298341058,-0.005345070834232635,-29.7427652733119,-35.296696872259574,26.93656825489623
1700082091,0.9623732485524974,-0.20940246708460755,-0.10915271289500508,0.01114829059711378,-0.04474587869800463,-0.005345070834232635,-29.83045893013739,-35.34054370067231,26.264250219234142
1700082091,0.9623732485524974,-0.20940246708460755,-0.10915271289500508,0.01114829059711378,-0.04474587869800463,-0.005345070834232635,-33.615901783104356,-35.42823735749781,26.468868751826953
1700082091,0.9623732485524974,-0.21037813379204892,-0.1086648795412844,0.01511891464540088,-0.047952921198544204,-0.005650503453331642,-30.619701841566794,-35.57439345220696,25.796550716164862
1700082091,0.9623732485524974,-0.21037813379204892,-0.1086648795412844,0.01511891464540088,-0.047952921198544204,-0.005650503453331642,-29.93276819643379,-35.63285589009062,25.767319497223035
1700082091,0.9631049985830784,-0.208304842038736,-0.10854292120285422,0.018936822384138473,-0.05070181477043527,-0.006414085001079161,-29.918152586962876,-35.530546623794216,26.278865828705054
1700082091,0.9631049985830784,-0.208304842038736,-0.10854292120285422,0.018936822384138473,-0.05070181477043527,-0.006414085001079161,-30.181233557439345,-35.121309558608594,27.155802396959956
1700082091,0.9633489152599388,-0.20806092536187565,-0.10939662957186544,0.018784106074588972,-0.05390885727097486,-0.007635815477475192,-30.283542823735747,-35.296696872259574,25.869628763519437
1700082091,0.9633489152599388,-0.20806092536187565,-0.10939662957186544,0.0160352125026979,-0.05497787143782138,-0.009315694882519734,-30.10815551008477,-35.42823735749781,26.81964337912891
1700082091,0.96420262362895,-0.20696330031600405,-0.11061621295616715,0.0160352125026979,-0.05497787143782138,-0.009315694882519734,-29.888921368021048,-35.10669394913768,26.541946799181527
1700082091,0.9644465403058102,-0.2067193836391437,-0.11207971301732926,0.011911872144861299,-0.05451972250917286,-0.01038470904936626,-29.83045893013739,-34.88745980707396,27.053493130663547
1700082092,0.9644465403058102,-0.2067193836391437,-0.11207971301732926,0.011911872144861299,-0.05451972250917286,-0.01038470904936626,-30.517392575270392,-34.799766150248466,26.87810581701257
1700082092,0.96420262362895,-0.20806092536187565,-0.11403104643221201,0.01114829059711378,-0.05360342465187585,-0.010537425358915765,-30.444314527915818,-34.84361297866121,25.95732242034493
1700082092,0.96420262362895,-0.20806092536187565,-0.11403104643221201,0.01114829059711378,-0.05360342465187585,-0.010537425358915765,-30.415083308973983,-34.84361297866121,26.848874598070736
1700082092,0.9650563319979611,-0.20818288370030577,-0.11354321307849133,0.015729779883598895,-0.052228977865930316,-0.010842857978014772,-29.976615024846538,-35.09207833966676,27.155802396959956
1700082092,0.9650563319979611,-0.20818288370030577,-0.11354321307849133,0.015729779883598895,-0.052228977865930316,-0.010842857978014772,-29.99123063431745,-34.81438175971938,26.439637532885126
1700082092,0.9654222070132517,-0.20610959194699285,-0.11244558803261977,0.0198531202414355,-0.049785516913138254,-0.01069014166846527,-29.75738088278281,-34.78515054077755,25.767319497223035
1700082092,0.9654222070132517,-0.20610959194699285,-0.11244558803261977,0.0198531202414355,-0.049785516913138254,-0.01069014166846527,-30.22508038585209,-35.077462730195855,25.650394621455714
1700082092,0.9645684986442405,-0.2041582585321101,-0.11342125474006115,0.019700403931885994,-0.048411070127192715,-0.00992656012071775,-30.166617947968433,-35.42823735749781,25.971938029815846
1700082092,0.9645684986442405,-0.2041582585321101,-0.11342125474006115,0.019700403931885994,-0.048411070127192715,-0.00992656012071775,-29.947383805904703,-34.88745980707396,26.015784858228585
1700082092,0.9646904569826708,-0.20501196690112128,-0.1131773380632008,0.01679879405044542,-0.04673119072214818,-0.009010262263420726,-29.888921368021048,-34.945922244957615,25.825781935106697
1700082092,0.9646904569826708,-0.20501196690112128,-0.1131773380632008,0.01679879405044542,-0.04673119072214818,-0.009010262263420726,-30.736626717334115,-35.34054370067231,26.468868751826953
1700082092,0.9644465403058102,-0.20574371693170232,-0.11232362969418959,0.01511891464540088,-0.04520402762665313,-0.008857545953871221,-30.35662087109032,-35.399006138555976,26.600409237065186
1700082092,0.9644465403058102,-0.20574371693170232,-0.11232362969418959,0.01511891464540088,-0.04520402762665313,-0.008857545953871221,-30.268927214264835,-34.96053785442853,26.746565331774335
1700082092,0.9648124153211007,-0.20562175859327214,-0.11122600464831804,0.014813482026301871,-0.0438295808407076,-0.007483099167925688,-30.575855013154047,-35.03361590178311,27.053493130663547
1700082092,0.9648124153211007,-0.20562175859327214,-0.11122600464831804,0.014813482026301871,-0.0438295808407076,-0.007483099167925688,-30.283542823735747,-35.36977491961415,26.381175095001463
1700082092,0.9640806652905198,-0.2067193836391437,-0.11122600464831804,0.01634064512179691,-0.0436768645311581,-0.005955936072430649,-30.064308681672024,-35.16515638702134,27.009646302250808
1700082092,0.9640806652905198,-0.2067193836391437,-0.11122600464831804,0.01634064512179691,-0.0436768645311581,-0.005955936072430649,-29.596609178602744,-35.13592516807951,26.995030692779885
1700082092,0.96420262362895,-0.20659742530071357,-0.10976250458715596,0.017409659288643436,-0.04474587869800463,-0.004428772976935611,-29.611224788073663,-35.09207833966676,26.746565331774335
1700082092,0.9643245819673802,-0.2063535086238532,-0.110494254617737,0.018478673455489966,-0.045356743936202634,-0.0039706240482871,-30.166617947968433,-35.325928091201405,27.170418006430868
1700082092,0.9643245819673802,-0.2063535086238532,-0.110494254617737,0.018478673455489966,-0.045356743936202634,-0.0039706240482871,-29.72814966384098,-35.077462730195855,26.527331189710612
1700082092,0.9648124153211007,-0.2063535086238532,-0.11025033794087664,0.017715091907742442,-0.04657847441259867,-0.004276056667386108,-29.7427652733119,-35.36977491961415,26.790412160187078
1700082092,0.9648124153211007,-0.2063535086238532,-0.11025033794087664,0.017715091907742442,-0.04657847441259867,-0.004276056667386108,-29.8450745396083,-35.077462730195855,26.790412160187078
1700082092,0.9635928319367991,-0.20623155028542303,-0.11159187966360855,0.015271630954950384,-0.047494772269895694,-0.004734205596034618,-30.049693072201112,-35.38439052908507,26.439637532885126
1700082092,0.9635928319367991,-0.20623155028542303,-0.11159187966360855,0.015271630954950384,-0.047494772269895694,-0.004734205596034618,-29.83045893013739,-35.03361590178311,26.278865828705054
1700082092,0.9646904569826708,-0.20684134197757392,-0.11122600464831804,0.014660765716752368,-0.04902193536539073,-0.005803219762881146,-30.020461853259278,-35.45746857643964,26.19117217187957
1700082092,0.9646904569826708,-0.20684134197757392,-0.11122600464831804,0.014660765716752368,-0.04902193536539073,-0.005803219762881146,-30.561239403683132,-35.26746565331774,26.49809997076878
1700082092,0.9638367486136593,-0.20659742530071357,-0.11159187966360855,0.01511891464540088,-0.049174651674940235,-0.005955936072430649,-30.283542823735747,-35.16515638702134,27.08272434960538
1700082092,0.9638367486136593,-0.20659742530071357,-0.11159187966360855,0.01511891464540088,-0.049174651674940235,-0.005955936072430649,-29.771996492253727,-35.5159310143233,26.41040631394329
1700082092,0.96420262362895,-0.2067193836391437,-0.11122600464831804,0.016951510359994926,-0.049785516913138254,-0.006108652381980153,-29.698918444899153,-35.36977491961415,26.87810581701257
1700082092,0.96420262362895,-0.2067193836391437,-0.11122600464831804,0.016951510359994926,-0.049785516913138254,-0.006108652381980153,-30.035077462730197,-35.55977784273604,26.600409237065186
1700082092,0.9648124153211007,-0.20610959194699285,-0.11122600464831804,0.018020524526841452,-0.050243665841786765,-0.006719517620178169,-30.049693072201112,-35.64747149956153,26.87810581701257
1700082092,0.9648124153211007,-0.20610959194699285,-0.11122600464831804,0.018020524526841452,-0.050243665841786765,-0.006719517620178169,-29.581993569131832,-35.325928091201405,27.214264834843615
1700082092,0.96420262362895,-0.20598763360856268,-0.11281146304791029,0.016951510359994926,-0.049480084294039245,-0.0070249502392771765,-29.83045893013739,-35.121309558608594,26.775796550716162
1700082092,0.96420262362895,-0.20598763360856268,-0.11281146304791029,0.016951510359994926,-0.049480084294039245,-0.0070249502392771765,-29.72814966384098,-35.779011984799766,26.746565331774335
1700082092,0.9645684986442405,-0.20696330031600405,-0.11256754637104995,0.015424347264499889,-0.048869219055841226,-0.00717766654882668,-30.07892429114294,-35.6182402806197,26.439637532885126
1700082092,0.9645684986442405,-0.20696330031600405,-0.11256754637104995,0.015424347264499889,-0.048869219055841226,-0.00717766654882668,-30.020461853259278,-35.66208710903245,27.696579947383803
1700082092,0.9643245819673802,-0.20769505034658511,-0.11329929640163097,0.0160352125026979,-0.04856378643674222,-0.007330382858376184,-30.4296989184449,-35.63285589009062,26.702718503361588
1700082092,0.9643245819673802,-0.20769505034658511,-0.11329929640163097,0.0160352125026979,-0.04810563750809371,-0.007330382858376184,-29.7427652733119,-35.5159310143233,27.141186787489037
1700082092,0.9645684986442405,-0.20440217520897044,-0.11305537972477062,0.018784106074588972,-0.04810563750809371,-0.007330382858376184,-29.713534054370065,-35.88132125109617,27.02426191172172
1700082092,0.9645684986442405,-0.20440217520897044,-0.11305537972477062,0.018936822384138473,-0.047494772269895694,-0.006108652381980153,-29.918152586962876,-35.96901490792166,26.541946799181527
1700082092,0.9648124153211007,-0.2036704251783894,-0.11232362969418959,0.018936822384138473,-0.047494772269895694,-0.006108652381980153,-29.888921368021048,-35.70593393744519,26.585793627594274
1700082092,0.9646904569826708,-0.20513392523955148,-0.11293342138634047,0.01832595714594046,-0.04673119072214818,-0.003817907738737596,-29.7427652733119,-35.66208710903245,26.366559485530544
1700082092,0.9646904569826708,-0.20513392523955148,-0.11293342138634047,0.01832595714594046,-0.04673119072214818,-0.003817907738737596,-29.87430575855013,-35.749780765857935,26.395790704472375
1700082092,0.9653002486748217,-0.20525588357798163,-0.11305537972477062,0.018020524526841452,-0.04581489286485115,-0.002596177262341565,-29.93276819643379,-35.09207833966676,26.395790704472375
1700082092,0.9653002486748217,-0.20525588357798163,-0.11305537972477062,0.018020524526841452,-0.04581489286485115,-0.002596177262341565,-29.39199064600994,-35.41362174802689,26.995030692779885
1700082092,0.9648124153211007,-0.205499800254842,-0.11378712975535166,0.01710422666954443,-0.04459316238845512,-0.002138028333693054,-29.494299912306342,-35.70593393744519,26.41040631394329
1700082092,0.9648124153211007,-0.205499800254842,-0.11378712975535166,0.01710422666954443,-0.04459316238845512,-0.002138028333693054,-29.83045893013739,-35.399006138555976,26.702718503361588
1700082092,0.9646904569826708,-0.20574371693170232,-0.1131773380632008,0.01679879405044542,-0.04291328298341058,-0.001832595714594046,-29.450453083893596,-35.749780765857935,26.366559485530544
1700082092,0.9646904569826708,-0.20574371693170232,-0.1131773380632008,0.01679879405044542,-0.04291328298341058,-0.001832595714594046,-29.903536977491964,-35.47208418591055,26.717334112832503
1700082092,0.9640806652905198,-0.205499800254842,-0.1118357963404689,0.016646077740895916,-0.04230241774521256,-0.0003054326190990077,-29.961999415375622,-35.179771996492256,27.185033615901784
1700082092,0.9640806652905198,-0.205499800254842,-0.1118357963404689,0.016646077740895916,-0.04230241774521256,-0.0003054326190990077,-29.64045600701549,-35.64747149956153,26.395790704472375
1700082092,0.96420262362895,-0.2072072169928644,-0.11244558803261977,0.017867808217291947,-0.04169155250701455,0.0006108652381980154,-30.10815551008477,-35.57439345220696,27.053493130663547
1700082092,0.96420262362895,-0.2072072169928644,-0.11244558803261977,0.017867808217291947,-0.04169155250701455,0.0006108652381980154,-30.239695995323007,-35.28208126278866,25.986553639286758
1700082092,0.9644465403058102,-0.2058656752701325,-0.11293342138634047,0.019242255003237483,-0.04184426881656405,0.0003054326190990077,-30.60508623209588,-35.73516515638702,26.731949722303423
1700082092,0.9644465403058102,-0.2058656752701325,-0.11293342138634047,0.019242255003237483,-0.04184426881656405,0.0003054326190990077,-29.64045600701549,-35.34054370067231,26.731949722303423
1700082092,0.9657880820285422,-0.20501196690112128,-0.1118357963404689,0.017256942979093935,-0.040622538340168025,-0.00015271630954950385,-29.903536977491964,-35.16515638702134,26.746565331774335
1700082092,0.9657880820285422,-0.20501196690112128,-0.1118357963404689,0.017256942979093935,-0.040622538340168025,-0.00015271630954950385,-29.859690149079217,-35.603624671148786,26.81964337912891
1700082092,0.9632269569215086,-0.20732917533129458,-0.110494254617737,0.013591751549905842,-0.04046982203061852,0.0007635815477475192,-30.22508038585209,-35.35515931014323,26.527331189710612
1700082092,0.9632269569215086,-0.20732917533129458,-0.110494254617737,0.013591751549905842,-0.04046982203061852,0.0006108652381980154,-30.298158433206662,-35.89593686056708,26.132709733995906
1700082092,0.9631049985830784,-0.21001225877675841,-0.11025033794087664,0.01557706357404939,-0.04153883619746504,0.0006108652381980154,-30.035077462730197,-35.545162233265124,25.84039754457761
1700082092,0.9631049985830784,-0.21001225877675841,-0.11025033794087664,0.02138028333693054,-0.04459316238845512,-0.0006108652381980154,-30.371236480561237,-35.73516515638702,26.366559485530544
1700082092,0.9632269569215086,-0.20879267539245666,-0.110494254617737,0.02138028333693054,-0.04459316238845512,-0.0006108652381980154,-30.239695995323007,-35.41362174802689,27.258111663256358
1700082092,0.9632269569215086,-0.20879267539245666,-0.110494254617737,0.020311269170084013,-0.047189339650796684,-0.0039706240482871,-30.327389652148497,-35.42823735749781,26.9073370359544
1700082092,0.9629830402446483,-0.20696330031600405,-0.10939662957186544,0.020311269170084013,-0.047189339650796684,-0.0039706240482871,-30.488161356328558,-35.325928091201405,26.892721426483483
1700082092,0.9629830402446483,-0.20696330031600405,-0.10939662957186544,0.0160352125026979,-0.048258353817643214,-0.006261368691529657,-30.561239403683132,-34.66822566501023,26.55656240865244
1700082092,0.9640806652905198,-0.20806092536187565,-0.11098208797145769,0.0160352125026979,-0.048258353817643214,-0.006261368691529657,-30.122771119555686,-35.28208126278866,27.243496053785442
1700082092,0.9640806652905198,-0.20806092536187565,-0.11098208797145769,0.014508049407202865,-0.049480084294039245,-0.008857545953871221,-30.152002338497514,-35.23823443437591,26.96579947383806
1700082092,0.9632269569215086,-0.20976834209989806,-0.11207971301732926,0.014508049407202865,-0.049480084294039245,-0.008857545953871221,-30.1373867290266,-35.121309558608594,26.30809704764689
1700082092,0.9628610819062181,-0.20903659206931702,-0.11244558803261977,0.018020524526841452,-0.050396382151336266,-0.011301006906663283,-30.268927214264835,-35.31131248173049,26.9073370359544
1700082092,0.9628610819062181,-0.20903659206931702,-0.11244558803261977,0.018020524526841452,-0.050396382151336266,-0.011301006906663283,-29.289681379713535,-35.09207833966676,26.717334112832503
1700082092,0.9656661236901122,-0.20647546696228333,-0.11232362969418959,0.02076941809873252,-0.05070181477043527,-0.012980886311707827,-30.005846243788366,-34.71207249342297,26.863490207541656
1700082092,0.9656661236901122,-0.20647546696228333,-0.11232362969418959,0.02076941809873252,-0.05070181477043527,-0.012980886311707827,-29.87430575855013,-34.872844197603044,27.301958491669104
1700082092,0.9660319987054026,-0.20513392523955148,-0.11378712975535166,0.019242255003237483,-0.050243665841786765,-0.01389718416900485,-30.09353990061386,-35.38439052908507,26.3227126571178
1700082092,0.9660319987054026,-0.20513392523955148,-0.11378712975535166,0.019242255003237483,-0.050243665841786765,-0.01389718416900485,-29.903536977491964,-35.26746565331774,27.02426191172172
1700082092,0.9655441653516819,-0.20379238351681955,-0.11451887978593273,0.016493361431346415,-0.048258353817643214,-0.013439035240356337,-30.268927214264835,-35.55977784273604,26.55656240865244
1700082092,0.9655441653516819,-0.20379238351681955,-0.11451887978593273,0.016493361431346415,-0.048258353817643214,-0.013439035240356337,-33.67436422098802,-35.13592516807951,27.155802396959956
1700082092,0.9645684986442405,-0.20330455016309887,-0.11439692144750255,0.014660765716752368,-0.04657847441259867,-0.010537425358915765,-29.99123063431745,-35.72054954691611,26.527331189710612
1700082092,0.9645684986442405,-0.20330455016309887,-0.11439692144750255,0.014660765716752368,-0.04657847441259867,-0.010537425358915765,-30.10815551008477,-35.44285296696872,26.87810581701257
1700082092,0.9659100403669724,-0.20452413354740062,-0.11451887978593273,0.0158824961931484,-0.0436768645311581,-0.0079412480965742,-30.268927214264835,-35.25285004384683,26.381175095001463
1700082092,0.9659100403669724,-0.20452413354740062,-0.11451887978593273,0.0158824961931484,-0.0436768645311581,-0.0079412480965742,-29.918152586962876,-35.09207833966676,26.29348143817597
1700082092,0.9649343736595309,-0.2036704251783894,-0.11390908809378184,0.018936822384138473,-0.04260785036431157,-0.005039638215133627,-29.903536977491964,-35.6182402806197,26.235019000292315
1700082092,0.9649343736595309,-0.2036704251783894,-0.11390908809378184,0.018936822384138473,-0.04260785036431157,-0.005039638215133627,-29.72814966384098,-35.42823735749781,27.433498976907337
1700082092,0.9643245819673802,-0.20440217520897044,-0.1131773380632008,0.019547687622336492,-0.04153883619746504,-0.002138028333693054,-29.552762350190005,-35.223618824905,27.199649225372696
1700082092,0.9643245819673802,-0.20440217520897044,-0.1131773380632008,0.019547687622336492,-0.04153883619746504,-0.002138028333693054,-29.8450745396083,-35.223618824905,26.731949722303423
1700082092,0.9650563319979611,-0.20489000856269113,-0.11195775467889908,0.018478673455489966,-0.04092797095926703,0.000916297857297023,-30.166617947968433,-35.64747149956153,27.068108740134463
1700082092,0.9650563319979611,-0.20489000856269113,-0.11195775467889908,0.018478673455489966,-0.04092797095926703,0.000916297857297023,-29.786612101724643,-35.676702718503364,25.971938029815846
1700082092,0.96420262362895,-0.2063535086238532,-0.11146992132517837,0.016951510359994926,-0.04077525464971753,0.00198531202414355,-30.532008184741304,-35.64747149956153,26.92195264542531
1700082092,0.96420262362895,-0.2063535086238532,-0.11146992132517837,0.016951510359994926,-0.04077525464971753,0.00198531202414355,-30.181233557439345,-35.82285881321251,25.562700964630224
1700082092,0.9638367486136593,-0.20757309200815494,-0.11122600464831804,0.01634064512179691,-0.04184426881656405,0.001832595714594046,-30.181233557439345,-35.55977784273604,26.49809997076878
1700082092,0.9638367486136593,-0.20757309200815494,-0.11122600464831804,0.01634064512179691,-0.04184426881656405,0.001832595714594046,-29.53814674071909,-35.58900906167787,26.805027769657997
1700082092,0.9635928319367991,-0.2085487587155963,-0.11061621295616715,0.015729779883598895,-0.04306599929296008,0.0012217304763960308,-33.63051739257527,-35.325928091201405,26.001169248757673
1700082092,0.9635928319367991,-0.2085487587155963,-0.11061621295616715,0.015729779883598895,-0.04306599929296008,0.0012217304763960308,-30.268927214264835,-35.26746565331774,26.81964337912891
1700082092,0.9628610819062181,-0.20867071705402648,-0.11061621295616715,0.016493361431346415,-0.04474587869800463,-0.0013744467859455344,-29.976615024846538,-35.603624671148786,27.301958491669104
1700082092,0.9628610819062181,-0.20867071705402648,-0.11061621295616715,0.016646077740895916,-0.04612032548395016,-0.0039706240482871,-29.8450745396083,-35.530546623794216,27.08272434960538
1700082092,0.9635928319367991,-0.2078170086850153,-0.11086012963302751,0.016646077740895916,-0.04612032548395016,-0.0039706240482871,-30.385852090032156,-35.45746857643964,27.02426191172172
1700082092,0.9635928319367991,-0.2078170086850153,-0.11086012963302751,0.0158824961931484,-0.047494772269895694,-0.006566801310628665,-30.283542823735747,-35.88132125109617,26.41040631394329
1700082092,0.9635928319367991,-0.2091585504077472,-0.11098208797145769,0.0158824961931484,-0.047494772269895694,-0.006566801310628665,-30.488161356328558,-35.20900321543408,27.11195556854721
1700082092,0.9635928319367991,-0.2091585504077472,-0.11098208797145769,0.016646077740895916,-0.04902193536539073,-0.00916297857297023,-29.918152586962876,-35.57439345220696,27.11195556854721
1700082093,0.9637147902752293,-0.20806092536187565,-0.1118357963404689,0.016646077740895916,-0.04902193536539073,-0.00916297857297023,-29.581993569131832,-35.64747149956153,27.22888044431453
1700082093,0.9649343736595309,-0.2078170086850153,-0.1118357963404689,0.016951510359994926,-0.049632800603588746,-0.01114829059711378,-30.049693072201112,-35.25285004384683,27.301958491669104
1700082093,0.9649343736595309,-0.2078170086850153,-0.1118357963404689,0.016951510359994926,-0.049632800603588746,-0.01114829059711378,-30.40046769950307,-35.86670564162526,26.585793627594274
1700082093,0.9649343736595309,-0.20623155028542303,-0.1118357963404689,0.01679879405044542,-0.049785516913138254,-0.012675453692608817,-30.34200526161941,-35.545162233265124,26.585793627594274
1700082093,0.9649343736595309,-0.20623155028542303,-0.1118357963404689,0.01679879405044542,-0.049785516913138254,-0.012675453692608817,-30.40046769950307,-35.44285296696872,27.214264834843615
1700082093,0.96420262362895,-0.2058656752701325,-0.1131773380632008,0.0158824961931484,-0.049480084294039245,-0.013286318930806833,-30.897398421514175,-35.399006138555976,26.6150248465361
1700082093,0.96420262362895,-0.2058656752701325,-0.1131773380632008,0.0158824961931484,-0.049480084294039245,-0.013286318930806833,-30.69277988892137,-35.38439052908507,26.55656240865244
1700082093,0.9650563319979611,-0.20476805022426095,-0.11256754637104995,0.01557706357404939,-0.04932736798448974,-0.012522737383059314,-30.40046769950307,-35.34054370067231,27.331189710610932
1700082093,0.9650563319979611,-0.20476805022426095,-0.11256754637104995,0.01557706357404939,-0.04932736798448974,-0.012522737383059314,-29.976615024846538,-35.34054370067231,26.81964337912891
1700082093,0.9654222070132517,-0.2041582585321101,-0.11403104643221201,0.016493361431346415,-0.04810563750809371,-0.010995574287564275,-30.07892429114294,-35.150540777550425,26.425021923414207
1700082093,0.9654222070132517,-0.2041582585321101,-0.11403104643221201,0.016493361431346415,-0.04810563750809371,-0.010995574287564275,-29.903536977491964,-35.06284712072493,26.571178018123355
1700082093,0.9649343736595309,-0.20391434185524973,-0.11390908809378184,0.0160352125026979,-0.04657847441259867,-0.009010262263420726,-30.35662087109032,-35.42823735749781,26.93656825489623
1700082093,0.9649343736595309,-0.20391434185524973,-0.11390908809378184,0.0160352125026979,-0.04657847441259867,-0.009010262263420726,-30.502776965799473,-35.223618824905,26.805027769657997
1700082093,0.9654222070132517,-0.20379238351681955,-0.11439692144750255,0.016646077740895916,-0.04581489286485115,-0.006566801310628665,-30.298158433206662,-35.296696872259574,26.702718503361588
1700082093,0.9654222070132517,-0.20379238351681955,-0.11439692144750255,0.016646077740895916,-0.04581489286485115,-0.006566801310628665,-30.22508038585209,-35.603624671148786,27.155802396959956
1700082093,0.9654222070132517,-0.20379238351681955,-0.11451887978593273,0.01679879405044542,-0.04352414822160859,-0.004276056667386108,-29.947383805904703,-35.20900321543408,27.433498976907337
1700082093,0.9654222070132517,-0.20379238351681955,-0.11451887978593273,0.01679879405044542,-0.04352414822160859,-0.004276056667386108,-29.918152586962876,-35.36977491961415,26.834258988599824
1700082093,0.9656661236901122,-0.20452413354740062,-0.11378712975535166,0.01634064512179691,-0.04245513405476207,-0.0024434609527920616,-30.035077462730197,-35.45746857643964,26.629640456007014
1700082093,0.9656661236901122,-0.20452413354740062,-0.11378712975535166,0.01634064512179691,-0.04245513405476207,-0.0024434609527920616,-30.45893013738673,-35.121309558608594,26.541946799181527
1700082093,0.9646904569826708,-0.2040363001936799,-0.1118357963404689,0.016187928812247405,-0.04046982203061852,-0.00015271630954950385,-30.70739549839228,-35.501315404852384,26.3227126571178
1700082093,0.9646904569826708,-0.2040363001936799,-0.1118357963404689,0.016187928812247405,-0.04046982203061852,-0.00015271630954950385,-29.596609178602744,-36.01286173633441,26.951183864367145
1700082093,0.9638367486136593,-0.2058656752701325,-0.11293342138634047,0.016951510359994926,-0.04153883619746504,0.00198531202414355,-30.005846243788366,-35.35515931014323,26.746565331774335
1700082093,0.9638367486136593,-0.2058656752701325,-0.11293342138634047,0.016951510359994926,-0.04153883619746504,0.002901609881440573,-29.947383805904703,-35.501315404852384,26.249634609763227
1700082093,0.9643245819673802,-0.2067193836391437,-0.11195775467889908,0.018173240836390957,-0.04153883619746504,0.002901609881440573,-29.786612101724643,-35.03361590178311,26.176556562408653
1700082093,0.9643245819673802,-0.2067193836391437,-0.11195775467889908,0.018478673455489966,-0.04230241774521256,0.00198531202414355,-29.786612101724643,-35.23823443437591,26.04501607717042
1700082093,0.9646904569826708,-0.2063535086238532,-0.11232362969418959,0.018478673455489966,-0.04230241774521256,0.00198531202414355,-30.10815551008477,-35.42823735749781,26.14732534346682
1700082093,0.9646904569826708,-0.2063535086238532,-0.11232362969418959,0.016187928812247405,-0.04184426881656405,0.0004581489286485115,-29.786612101724643,-35.399006138555976,26.264250219234142
1700082093,0.9640806652905198,-0.20745113366972476,-0.11146992132517837,0.016187928812247405,-0.04184426881656405,0.0004581489286485115,-30.268927214264835,-35.223618824905,25.518854136217477
1700082093,0.9640806652905198,-0.20745113366972476,-0.11146992132517837,0.01557706357404939,-0.04153883619746504,-0.0012217304763960308,-29.93276819643379,-34.96053785442853,25.986553639286758
1700082093,0.9645684986442405,-0.20708525865443422,-0.11025033794087664,0.01557706357404939,-0.04153883619746504,-0.0012217304763960308,-30.005846243788366,-35.20900321543408,25.81116632563578
1700082093,0.9645684986442405,-0.20818288370030577,-0.11134796298674822,0.017867808217291947,-0.04291328298341058,-0.001832595714594046,-30.005846243788366,-35.25285004384683,26.381175095001463
1700082093,0.9632269569215086,-0.20818288370030577,-0.11134796298674822,0.017867808217291947,-0.04291328298341058,-0.001832595714594046,-29.450453083893596,-35.00438468284127,26.439637532885126
1700082093,0.9627391235677879,-0.2078170086850153,-0.11268950470948011,0.021227567027381034,-0.044898595007554123,-0.0033597588100890844,-30.152002338497514,-34.595147617655655,25.971938029815846
1700082093,0.9627391235677879,-0.2078170086850153,-0.11268950470948011,0.021227567027381034,-0.044898595007554123,-0.0033597588100890844,-30.181233557439345,-35.55977784273604,26.35194387605963
1700082093,0.9646904569826708,-0.20501196690112128,-0.11086012963302751,0.0198531202414355,-0.04520402762665313,-0.004886921905584123,-30.25431160479392,-35.150540777550425,25.971938029815846
1700082093,0.9646904569826708,-0.20501196690112128,-0.11086012963302751,0.0198531202414355,-0.04520402762665313,-0.004886921905584123,-29.581993569131832,-35.048231511254016,26.35194387605963
1700082093,0.9646904569826708,-0.20610959194699285,-0.11244558803261977,0.01511891464540088,-0.04520402762665313,-0.005497787143782138,-30.07892429114294,-35.25285004384683,26.20578778135048
1700082093,0.9646904569826708,-0.20610959194699285,-0.11244558803261977,0.01511891464540088,-0.04520402762665313,-0.005497787143782138,-30.049693072201112,-35.00438468284127,25.84039754457761
1700082093,0.9638367486136593,-0.20708525865443422,-0.11305537972477062,0.014202616788103856,-0.04505131131710363,-0.005039638215133627,-30.4296989184449,-34.88745980707396,26.001169248757673
1700082093,0.9638367486136593,-0.20708525865443422,-0.11305537972477062,0.014202616788103856,-0.04505131131710363,-0.005039638215133627,-30.239695995323007,-34.91669102601578,26.074247296112247
1700082093,0.9635928319367991,-0.20696330031600405,-0.11232362969418959,0.016951510359994926,-0.044898595007554123,-0.003665191429188092,-30.005846243788366,-35.28208126278866,25.913475591932183
1700082093,0.9635928319367991,-0.20696330031600405,-0.11232362969418959,0.016951510359994926,-0.044898595007554123,-0.003665191429188092,-29.7427652733119,-34.90207541654487,22.61034785150541
1700082093,0.9639587069520897,-0.2053778419164118,-0.11134796298674822,0.018631389765039467,-0.04520402762665313,-0.0024434609527920616,-30.020461853259278,-34.492838351359254,25.708857059339373
1700082093,0.9639587069520897,-0.2053778419164118,-0.11134796298674822,0.018631389765039467,-0.04520402762665313,-0.0024434609527920616,-30.19584916691026,-35.58900906167787,25.95732242034493
1700082093,0.9643245819673802,-0.20610959194699285,-0.11195775467889908,0.017256942979093935,-0.04612032548395016,-0.002596177262341565,-30.049693072201112,-34.945922244957615,26.381175095001463
1700082093,0.9643245819673802,-0.20610959194699285,-0.11195775467889908,0.017256942979093935,-0.04612032548395016,-0.002596177262341565,-29.494299912306342,-34.945922244957615,26.220403390821396
1700082093,0.9634708735983688,-0.20647546696228333,-0.11268950470948011,0.014508049407202865,-0.046883907031697675,-0.002596177262341565,-30.751242326805027,-34.975153463899446,26.132709733995906
1700082093,0.9634708735983688,-0.20647546696228333,-0.11268950470948011,0.014508049407202865,-0.046883907031697675,-0.002596177262341565,-30.955860859397838,-34.71207249342297,26.49809997076878
1700082093,0.9639587069520897,-0.20757309200815494,-0.11232362969418959,0.012828170002158322,-0.047647488579445195,-0.004123340357836604,-30.838935983630517,-35.00438468284127,26.468868751826953
1700082093,0.9639587069520897,-0.20757309200815494,-0.11232362969418959,0.012828170002158322,-0.047647488579445195,-0.004123340357836604,-30.35662087109032,-34.799766150248466,25.884244372990356
1700082093,0.9640806652905198,-0.20757309200815494,-0.11329929640163097,0.01389718416900485,-0.047342055960346185,-0.005345070834232635,-30.40046769950307,-34.945922244957615,26.468868751826953
1700082093,0.9640806652905198,-0.20757309200815494,-0.11329929640163097,0.01389718416900485,-0.047342055960346185,-0.005345070834232635,-30.35662087109032,-35.23823443437591,26.176556562408653
1700082093,0.9639587069520897,-0.20708525865443422,-0.11439692144750255,0.015271630954950384,-0.04657847441259867,-0.0070249502392771765,-30.780473545746855,-35.194387605963165,26.30809704764689
1700082093,0.9639587069520897,-0.20708525865443422,-0.11439692144750255,0.015271630954950384,-0.04657847441259867,-0.0070249502392771765,-30.298158433206662,-35.06284712072493,25.884244372990356
1700082093,0.9644465403058102,-0.20647546696228333,-0.1136651714169215,0.015729779883598895,-0.045356743936202634,-0.007635815477475192,-30.31277404267758,-34.96053785442853,26.834258988599824
1700082093,0.9644465403058102,-0.20647546696228333,-0.1136651714169215,0.015729779883598895,-0.045356743936202634,-0.007635815477475192,-29.99123063431745,-35.42823735749781,22.62496346097632
1700082093,0.9646904569826708,-0.20574371693170232,-0.11415300477064219,0.0160352125026979,-0.04413501345980661,-0.007635815477475192,-30.035077462730197,-35.35515931014323,26.55656240865244
1700082093,0.9646904569826708,-0.20574371693170232,-0.11415300477064219,0.016951510359994926,-0.04321871560250958,-0.006719517620178169,-30.444314527915818,-35.13592516807951,27.053493130663547
1700082093,0.9646904569826708,-0.20525588357798163,-0.11256754637104995,0.016951510359994926,-0.04321871560250958,-0.006719517620178169,-30.634317451037706,-35.63285589009062,26.746565331774335
1700082093,0.9646904569826708,-0.20525588357798163,-0.11256754637104995,0.017867808217291947,-0.04276056667386108,-0.005497787143782138,-30.634317451037706,-35.179771996492256,26.454253142356038
1700082093,0.9644465403058102,-0.2058656752701325,-0.11232362969418959,0.017867808217291947,-0.04276056667386108,-0.005497787143782138,-30.69277988892137,-35.325928091201405,26.6150248465361
1700082093,0.9644465403058102,-0.2058656752701325,-0.11232362969418959,0.01832595714594046,-0.04291328298341058,-0.004276056667386108,-30.502776965799473,-35.03361590178311,27.185033615901784
1700082093,0.9639587069520897,-0.2058656752701325,-0.11171383800203873,0.01832595714594046,-0.04291328298341058,-0.004276056667386108,-30.152002338497514,-35.26746565331774,26.67348728441976
1700082093,0.9645684986442405,-0.2053778419164118,-0.11110404630988786,0.017256942979093935,-0.04291328298341058,-0.0035124751196385882,-30.07892429114294,-35.779011984799766,26.132709733995906
1700082093,0.9645684986442405,-0.2053778419164118,-0.11110404630988786,0.017256942979093935,-0.04291328298341058,-0.0035124751196385882,-29.961999415375622,-34.975153463899446,27.08272434960538
1700082093,0.9637147902752293,-0.20610959194699285,-0.11122600464831804,0.01679879405044542,-0.04352414822160859,-0.0024434609527920616,-30.722011107863196,-35.121309558608594,26.65887167494885
1700082093,0.9637147902752293,-0.20610959194699285,-0.11122600464831804,0.01679879405044542,-0.04352414822160859,-0.0024434609527920616,-30.678164279450453,-35.5159310143233,26.995030692779885
1700082093,0.9646904569826708,-0.20647546696228333,-0.11110404630988786,0.017256942979093935,-0.04444044607890562,-0.002138028333693054,-30.751242326805027,-34.90207541654487,26.87810581701257
1700082093,0.9646904569826708,-0.20647546696228333,-0.11110404630988786,0.017256942979093935,-0.04444044607890562,-0.002138028333693054,-30.25431160479392,-35.48669979538147,26.731949722303423
1700082093,0.96420262362895,-0.20574371693170232,-0.11195775467889908,0.01756237559819294,-0.04505131131710363,-0.0013744467859455344,-30.488161356328558,-35.179771996492256,26.746565331774335
1700082093,0.96420262362895,-0.20574371693170232,-0.11195775467889908,0.01756237559819294,-0.04505131131710363,-0.0013744467859455344,-31.1166325635779,-34.81438175971938,26.3227126571178
1700082093,0.9643245819673802,-0.20525588357798163,-0.11110404630988786,0.01679879405044542,-0.04474587869800463,-0.0012217304763960308,-30.473545746857646,-34.91669102601578,27.22888044431453
1700082093,0.9643245819673802,-0.20525588357798163,-0.11110404630988786,0.01679879405044542,-0.04474587869800463,-0.0012217304763960308,-30.736626717334115,-35.09207833966676,26.775796550716162
1700082093,0.9640806652905198,-0.20610959194699285,-0.11232362969418959,0.0158824961931484,-0.045356743936202634,-0.00015271630954950385,-30.517392575270392,-34.799766150248466,26.995030692779885
1700082093,0.9640806652905198,-0.20610959194699285,-0.11232362969418959,0.0158824961931484,-0.045356743936202634,-0.00015271630954950385,-30.561239403683132,-34.945922244957615,26.49809997076878
1700082093,0.9646904569826708,-0.20806092536187565,-0.11268950470948011,0.016646077740895916,-0.04596760917440065,-0.0006108652381980154,-30.40046769950307,-35.28208126278866,26.074247296112247
1700082093,0.9646904569826708,-0.20806092536187565,-0.11268950470948011,0.016646077740895916,-0.04596760917440065,-0.0006108652381980154,-30.45893013738673,-35.55977784273604,26.14732534346682
1700082093,0.9646904569826708,-0.20708525865443422,-0.11256754637104995,0.017409659288643436,-0.045662176555301644,-0.00198531202414355,-29.918152586962876,-35.28208126278866,25.708857059339373
1700082093,0.9646904569826708,-0.20708525865443422,-0.11256754637104995,0.017409659288643436,-0.045662176555301644,-0.00198531202414355,-30.07892429114294,-34.975153463899446,26.96579947383806
1700082093,0.9637147902752293,-0.20647546696228333,-0.11305537972477062,0.015271630954950384,-0.04520402762665313,-0.003665191429188092,-30.10815551008477,-34.872844197603044,26.001169248757673
1700082093,0.9637147902752293,-0.20647546696228333,-0.11305537972477062,0.015271630954950384,-0.04520402762665313,-0.003665191429188092,-29.93276819643379,-35.38439052908507,25.518854136217477
1700082093,0.9646904569826708,-0.20818288370030577,-0.11268950470948011,0.01435533309765336,-0.04505131131710363,-0.004886921905584123,-30.22508038585209,-35.194387605963165,26.132709733995906
1700082093,0.9646904569826708,-0.20818288370030577,-0.11268950470948011,0.01435533309765336,-0.04505131131710363,-0.004886921905584123,-30.210464776381173,-34.91669102601578,25.475007307804738
1700082093,0.9643245819673802,-0.2078170086850153,-0.11134796298674822,0.015729779883598895,-0.04444044607890562,-0.005803219762881146,-30.31277404267758,-35.35515931014323,26.249634609763227
1700082093,0.9643245819673802,-0.2078170086850153,-0.11134796298674822,0.015729779883598895,-0.04444044607890562,-0.005803219762881146,-30.517392575270392,-35.00438468284127,26.001169248757673
1700082093,0.96420262362895,-0.20647546696228333,-0.11244558803261977,0.018020524526841452,-0.04505131131710363,-0.0070249502392771765,-30.07892429114294,-34.799766150248466,25.562700964630224
1700082093,0.96420262362895,-0.20647546696228333,-0.11244558803261977,0.018020524526841452,-0.04505131131710363,-0.0070249502392771765,-30.736626717334115,-35.121309558608594,25.60654779304297
1700082093,0.9649343736595309,-0.20610959194699285,-0.11195775467889908,0.016646077740895916,-0.04505131131710363,-0.007330382858376184,-30.34200526161941,-35.03361590178311,26.20578778135048
1700082093,0.9649343736595309,-0.20610959194699285,-0.11195775467889908,0.016646077740895916,-0.0438295808407076,-0.0079412480965742,-30.020461853259278,-34.84361297866121,26.366559485530544
1700082093,0.9639587069520897,-0.2063535086238532,-0.1131773380632008,0.01435533309765336,-0.0438295808407076,-0.0079412480965742,-30.049693072201112,-35.10669394913768,26.337328266588717
1700082093,0.9639587069520897,-0.2063535086238532,-0.1131773380632008,0.013744467859455345,-0.04306599929296008,-0.0079412480965742,-30.064308681672024,-34.9313066354867,26.249634609763227
1700082093,0.96420262362895,-0.2058656752701325,-0.11244558803261977,0.013744467859455345,-0.04306599929296008,-0.0079412480965742,-30.19584916691026,-34.46360713241742,26.64425606547793
1700082093,0.96420262362895,-0.2058656752701325,-0.11244558803261977,0.015424347264499889,-0.0438295808407076,-0.006719517620178169,-29.87430575855013,-35.194387605963165,26.29348143817597
1700082093,0.9632269569215086,-0.2078170086850153,-0.11171383800203873,0.015424347264499889,-0.0438295808407076,-0.006719517620178169,-29.786612101724643,-34.62437883659749,27.448114586378253
1700082093,0.9632269569215086,-0.2078170086850153,-0.11171383800203873,0.020311269170084013,-0.04474587869800463,-0.006108652381980153,-30.4296989184449,-34.8289973691903,26.6150248465361
1700082093,0.9648124153211007,-0.2072072169928644,-0.11305537972477062,0.020311269170084013,-0.04474587869800463,-0.006108652381980153,-29.918152586962876,-35.01900029231219,26.395790704472375
1700082093,0.9653002486748217,-0.20501196690112128,-0.11220167135575941,0.02076941809873252,-0.04428772976935611,-0.006261368691529657,-29.99123063431745,-35.121309558608594,26.731949722303423
1700082093,0.9653002486748217,-0.20501196690112128,-0.11220167135575941,0.02076941809873252,-0.04428772976935611,-0.006261368691529657,-30.035077462730197,-34.66822566501023,26.468868751826953
1700082094,0.9643245819673802,-0.20452413354740062,-0.11171383800203873,0.015729779883598895,-0.04444044607890562,-0.005345070834232635,-29.47968430283543,-35.13592516807951,26.20578778135048
1700082094,0.9643245819673802,-0.20452413354740062,-0.11171383800203873,0.015729779883598895,-0.04444044607890562,-0.005345070834232635,-29.39199064600994,-34.945922244957615,26.892721426483483
1700082094,0.9639587069520897,-0.20659742530071357,-0.11207971301732926,0.01389718416900485,-0.04505131131710363,-0.003665191429188092,-29.53814674071909,-35.10669394913768,26.439637532885126
1700082094,0.9639587069520897,-0.20659742530071357,-0.11207971301732926,0.01389718416900485,-0.04505131131710363,-0.003665191429188092,-29.99123063431745,-35.179771996492256,26.001169248757673
1700082094,0.9627391235677879,-0.20659742530071357,-0.11134796298674822,0.01756237559819294,-0.04596760917440065,-0.0016798794050445422,-29.53814674071909,-34.726688102893895,26.688102893890676
1700082094,0.9627391235677879,-0.20659742530071357,-0.11134796298674822,0.01756237559819294,-0.04596760917440065,-0.0016798794050445422,-29.903536977491964,-34.88745980707396,26.892721426483483
1700082094,0.9649343736595309,-0.2063535086238532,-0.11012837960244648,0.020463985479633514,-0.047189339650796684,-0.0013744467859455344,-30.122771119555686,-35.63285589009062,26.527331189710612
1700082094,0.9649343736595309,-0.2063535086238532,-0.11012837960244648,0.020463985479633514,-0.047189339650796684,-0.0013744467859455344,-30.678164279450453,-35.13592516807951,26.16194095293774
1700082094,0.9645684986442405,-0.20684134197757392,-0.11256754637104995,0.01832595714594046,-0.047952921198544204,-0.0015271630954950383,-30.678164279450453,-34.741303712364804,26.29348143817597
1700082094,0.9645684986442405,-0.20684134197757392,-0.11256754637104995,0.01832595714594046,-0.047952921198544204,-0.0015271630954950383,-30.502776965799473,-34.85822858813212,27.097339959076294
1700082094,0.9646904569826708,-0.2072072169928644,-0.11268950470948011,0.01634064512179691,-0.047647488579445195,-0.002596177262341565,-30.34200526161941,-35.23823443437591,26.9073370359544
1700082094,0.9646904569826708,-0.2072072169928644,-0.11268950470948011,0.01634064512179691,-0.047647488579445195,-0.002596177262341565,-30.22508038585209,-35.545162233265124,26.65887167494885
1700082094,0.9645684986442405,-0.20732917533129458,-0.11244558803261977,0.0160352125026979,-0.047342055960346185,-0.003817907738737596,-29.947383805904703,-35.34054370067231,27.170418006430868
1700082094,0.9645684986442405,-0.20732917533129458,-0.11244558803261977,0.0160352125026979,-0.047342055960346185,-0.003817907738737596,-30.239695995323007,-34.85822858813212,27.550423852674655
1700082094,0.9643245819673802,-0.2078170086850153,-0.11293342138634047,0.017715091907742442,-0.04673119072214818,-0.005345070834232635,-30.19584916691026,-35.20900321543408,27.08272434960538
1700082094,0.9643245819673802,-0.2078170086850153,-0.11293342138634047,0.017715091907742442,-0.04673119072214818,-0.005345070834232635,-30.590470622624967,-35.325928091201405,27.506577024261915
1700082094,0.9643245819673802,-0.20623155028542303,-0.11281146304791029,0.019547687622336492,-0.04642575810304917,-0.006261368691529657,-30.25431160479392,-35.25285004384683,27.74042677579655
1700082094,0.9643245819673802,-0.20623155028542303,-0.11281146304791029,0.019547687622336492,-0.04642575810304917,-0.006261368691529657,-30.19584916691026,-35.179771996492256,27.8865828705057
1700082094,0.9648124153211007,-0.20598763360856268,-0.11146992132517837,0.018173240836390957,-0.04612032548395016,-0.006719517620178169,-30.283542823735747,-35.26746565331774,27.930429698918445
1700082094,0.9648124153211007,-0.20598763360856268,-0.11146992132517837,0.018173240836390957,-0.04612032548395016,-0.006719517620178169,-30.40046769950307,-35.194387605963165,27.11195556854721
1700082094,0.9637147902752293,-0.20610959194699285,-0.11159187966360855,0.015271630954950384,-0.04581489286485115,-0.00717766654882668,-30.152002338497514,-34.9313066354867,26.790412160187078
1700082094,0.9637147902752293,-0.20610959194699285,-0.11159187966360855,0.015271630954950384,-0.04581489286485115,-0.00717766654882668,-30.590470622624967,-35.13592516807951,27.214264834843615
1700082094,0.9639587069520897,-0.20806092536187565,-0.11256754637104995,0.015424347264499889,-0.04596760917440065,-0.007330382858376184,-30.181233557439345,-35.42823735749781,27.521192633732827
1700082094,0.9639587069520897,-0.20806092536187565,-0.11256754637104995,0.015424347264499889,-0.04596760917440065,-0.007330382858376184,-30.488161356328558,-34.60976322712657,27.155802396959956
1700082094,0.9646904569826708,-0.20696330031600405,-0.1118357963404689,0.017867808217291947,-0.04612032548395016,-0.007635815477475192,-30.40046769950307,-34.66822566501023,26.87810581701257
1700082094,0.9646904569826708,-0.20696330031600405,-0.1118357963404689,0.017867808217291947,-0.04612032548395016,-0.007635815477475192,-30.181233557439345,-34.6389944460684,27.068108740134463
1700082094,0.9645684986442405,-0.20513392523955148,-0.11281146304791029,0.017715091907742442,-0.04550946024575214,-0.00916297857297023,-30.517392575270392,-34.741303712364804,27.301958491669104
1700082094,0.9645684986442405,-0.20513392523955148,-0.11281146304791029,0.017715091907742442,-0.04550946024575214,-0.008857545953871221,-30.268927214264835,-35.20900321543408,27.608886290558317
1700082094,0.9649343736595309,-0.205499800254842,-0.11329929640163097,0.014813482026301871,-0.0439822971502571,-0.008857545953871221,-30.09353990061386,-35.06284712072493,26.980415083308973
1700082094,0.9649343736595309,-0.205499800254842,-0.11329929640163097,0.014049900478554353,-0.04428772976935611,-0.008093964406123703,-29.66968722595732,-35.179771996492256,26.65887167494885
1700082094,0.9633489152599388,-0.20757309200815494,-0.11134796298674822,0.014049900478554353,-0.04428772976935611,-0.008093964406123703,-30.268927214264835,-34.88745980707396,27.08272434960538
1700082094,0.9633489152599388,-0.20757309200815494,-0.11134796298674822,0.018936822384138473,-0.04612032548395016,-0.0079412480965742,-30.181233557439345,-35.16515638702134,26.9073370359544
1700082094,0.9633489152599388,-0.20867071705402648,-0.11086012963302751,0.018936822384138473,-0.04612032548395016,-0.0079412480965742,-29.27506577024262,-35.530546623794216,27.068108740134463
1700082094,0.9633489152599388,-0.20867071705402648,-0.11086012963302751,0.023671027980173093,-0.048258353817643214,-0.008552113334772215,-29.918152586962876,-34.9313066354867,26.235019000292315
1700082094,0.9633489152599388,-0.20574371693170232,-0.11061621295616715,0.023671027980173093,-0.048258353817643214,-0.008552113334772215,-29.421221864951768,-34.78515054077755,27.37503653902368
1700082094,0.9633489152599388,-0.20574371693170232,-0.11061621295616715,0.02076941809873252,-0.05009094953223726,-0.00916297857297023,-29.83045893013739,-34.81438175971938,26.9073370359544
1700082094,0.9648124153211007,-0.20379238351681955,-0.1118357963404689,0.02076941809873252,-0.05009094953223726,-0.00916297857297023,-29.801227711195555,-35.048231511254016,26.93656825489623
1700082094,0.9648124153211007,-0.20379238351681955,-0.1136651714169215,0.01435533309765336,-0.049938233222687756,-0.009621127501618741,-29.7427652733119,-34.741303712364804,27.038877521192635
1700082094,0.9644465403058102,-0.2041582585321101,-0.1136651714169215,0.01435533309765336,-0.049938233222687756,-0.009621127501618741,-30.298158433206662,-34.85822858813212,27.12657117801812
1700082094,0.9648124153211007,-0.2053778419164118,-0.11464083812436288,0.011301006906663283,-0.04871650274629172,-0.008857545953871221,-30.415083308973983,-34.98976907337036,26.717334112832503
1700082094,0.9648124153211007,-0.2053778419164118,-0.11464083812436288,0.011301006906663283,-0.04871650274629172,-0.008857545953871221,-30.40046769950307,-34.975153463899446,26.688102893890676
1700082094,0.9655441653516819,-0.2063535086238532,-0.11488475480122323,0.013286318930806833,-0.046883907031697675,-0.007635815477475192,-30.005846243788366,-34.58053200818474,28.485822858813215
1700082094,0.9655441653516819,-0.2063535086238532,-0.11488475480122323,0.013286318930806833,-0.046883907031697675,-0.007635815477475192,-30.09353990061386,-35.03361590178311,27.155802396959956
1700082094,0.9657880820285422,-0.2040363001936799,-0.11451887978593273,0.017867808217291947,-0.04550946024575214,-0.005650503453331642,-29.187372113417133,-34.96053785442853,27.038877521192635
1700082094,0.9657880820285422,-0.2040363001936799,-0.11451887978593273,0.017867808217291947,-0.04550946024575214,-0.005650503453331642,-30.049693072201112,-35.150540777550425,26.805027769657997
1700082094,0.9659100403669724,-0.20428021687054027,-0.11244558803261977,0.018936822384138473,-0.0438295808407076,-0.003665191429188092,-30.10815551008477,-35.25285004384683,27.491961414790993
1700082094,0.9659100403669724,-0.20428021687054027,-0.11244558803261977,0.018936822384138473,-0.0438295808407076,-0.003665191429188092,-29.99123063431745,-34.6389944460684,26.995030692779885
1700082094,0.9640806652905198,-0.20452413354740062,-0.11256754637104995,0.018020524526841452,-0.04306599929296008,-0.0022907446432425577,-29.552762350190005,-34.81438175971938,27.02426191172172
1700082094,0.9640806652905198,-0.20452413354740062,-0.11256754637104995,0.018020524526841452,-0.04306599929296008,-0.0022907446432425577,-29.83045893013739,-35.16515638702134,27.506577024261915
1700082094,0.9644465403058102,-0.20623155028542303,-0.11244558803261977,0.015424347264499889,-0.04230241774521256,-0.0007635815477475192,-30.07892429114294,-35.048231511254016,27.301958491669104
1700082094,0.9644465403058102,-0.20623155028542303,-0.11244558803261977,0.015424347264499889,-0.04230241774521256,-0.0007635815477475192,-30.70739549839228,-34.975153463899446,26.264250219234142
1700082094,0.9633489152599388,-0.20793896702344547,-0.11207971301732926,0.016493361431346415,-0.04291328298341058,-0.0003054326190990077,-30.85355159310143,-35.01900029231219,27.243496053785442
1700082094,0.9633489152599388,-0.20793896702344547,-0.11207971301732926,0.016493361431346415,-0.04291328298341058,-0.0003054326190990077,-30.45893013738673,-34.91669102601578,26.04501607717042
1700082094,0.9643245819673802,-0.20806092536187565,-0.11110404630988786,0.018631389765039467,-0.044898595007554123,-0.001832595714594046,-30.239695995323007,-34.975153463899446,26.454253142356038
1700082094,0.9643245819673802,-0.20806092536187565,-0.11110404630988786,0.018631389765039467,-0.044898595007554123,-0.001832595714594046,-30.283542823735747,-35.296696872259574,26.541946799181527
1700082094,0.9645684986442405,-0.2063535086238532,-0.11146992132517837,0.019242255003237483,-0.045662176555301644,-0.0032070425005395805,-30.268927214264835,-35.194387605963165,26.96579947383806
1700082094,0.9645684986442405,-0.2063535086238532,-0.11146992132517837,0.019242255003237483,-0.045662176555301644,-0.0032070425005395805,-30.210464776381173,-35.10669394913768,26.541946799181527
1700082094,0.9640806652905198,-0.20745113366972476,-0.11281146304791029,0.017867808217291947,-0.04657847441259867,-0.00519235452468313,-30.020461853259278,-35.06284712072493,27.214264834843615
1700082094,0.9640806652905198,-0.20745113366972476,-0.11281146304791029,0.017867808217291947,-0.04657847441259867,-0.00519235452468313,-30.1373867290266,-35.31131248173049,26.483484361297865
1700082094,0.9648124153211007,-0.20623155028542303,-0.11342125474006115,0.0160352125026979,-0.04627304179349966,-0.006414085001079161,-30.385852090032156,-35.077462730195855,26.731949722303423
1700082094,0.9648124153211007,-0.20623155028542303,-0.11342125474006115,0.0160352125026979,-0.04627304179349966,-0.006414085001079161,-30.8243203741596,-34.945922244957615,26.16194095293774
1700082094,0.9645684986442405,-0.20647546696228333,-0.11427496310907237,0.015424347264499889,-0.04581489286485115,-0.007635815477475192,-30.07892429114294,-34.6389944460684,26.118094124524994
1700082094,0.9645684986442405,-0.20647546696228333,-0.11427496310907237,0.015424347264499889,-0.04581489286485115,-0.007635815477475192,-30.371236480561237,-35.23823443437591,26.980415083308973
1700082094,0.9656661236901122,-0.20598763360856268,-0.11378712975535166,0.0160352125026979,-0.04352414822160859,-0.007788531787024695,-30.488161356328558,-35.41362174802689,27.47734580532008
1700082094,0.9656661236901122,-0.20598763360856268,-0.11378712975535166,0.01710422666954443,-0.04230241774521256,-0.006872233929727673,-30.444314527915818,-34.71207249342297,26.629640456007014
1700082094,0.9644465403058102,-0.2053778419164118,-0.11293342138634047,0.01710422666954443,-0.04230241774521256,-0.006872233929727673,-30.166617947968433,-34.81438175971938,25.94270681087401
1700082094,0.9644465403058102,-0.2053778419164118,-0.11293342138634047,0.018784106074588972,-0.04291328298341058,-0.005039638215133627,-30.35662087109032,-35.179771996492256,26.015784858228585
1700082094,0.9629830402446483,-0.205499800254842,-0.11281146304791029,0.018784106074588972,-0.04291328298341058,-0.005039638215133627,-29.552762350190005,-35.35515931014323,26.454253142356038
1700082094,0.9629830402446483,-0.205499800254842,-0.11281146304791029,0.020158552860534508,-0.04276056667386108,-0.0039706240482871,-30.09353990061386,-34.741303712364804,25.85501315404852
1700082094,0.9643245819673802,-0.20476805022426095,-0.11390908809378184,0.020158552860534508,-0.04276056667386108,-0.0039706240482871,-29.918152586962876,-35.01900029231219,26.235019000292315
1700082094,0.9643245819673802,-0.20476805022426095,-0.11390908809378184,0.018020524526841452,-0.04214970143566306,-0.0033597588100890844,-30.385852090032156,-35.23823443437591,25.89885998246127
1700082094,0.9646904569826708,-0.20452413354740062,-0.11293342138634047,0.018020524526841452,-0.04214970143566306,-0.0033597588100890844,-30.181233557439345,-34.98976907337036,26.30809704764689
1700082094,0.9646904569826708,-0.20623155028542303,-0.11098208797145769,0.013286318930806833,-0.04214970143566306,-0.002748893571891069,-30.40046769950307,-35.01900029231219,26.30809704764689
1700082094,0.9645684986442405,-0.20623155028542303,-0.11098208797145769,0.013286318930806833,-0.04214970143566306,-0.002748893571891069,-30.07892429114294,-34.44899152294651,26.834258988599824
1700082094,0.9643245819673802,-0.2078170086850153,-0.11037229627930682,0.014660765716752368,-0.04428772976935611,-0.0015271630954950383,-29.8450745396083,-35.16515638702134,26.278865828705054
1700082094,0.9643245819673802,-0.2078170086850153,-0.11037229627930682,0.014660765716752368,-0.04428772976935611,-0.0015271630954950383,-30.020461853259278,-34.9313066354867,26.454253142356038
1700082094,0.9634708735983688,-0.208304842038736,-0.11171383800203873,0.0198531202414355,-0.04627304179349966,-0.0012217304763960308,-30.45893013738673,-34.96053785442853,25.869628763519437
1700082094,0.9634708735983688,-0.208304842038736,-0.11171383800203873,0.0198531202414355,-0.04627304179349966,-0.0012217304763960308,-30.415083308973983,-34.96053785442853,26.337328266588717
1700082094,0.9637147902752293,-0.20501196690112128,-0.11220167135575941,0.02153299964648004,-0.046883907031697675,-0.0016798794050445422,-29.83045893013739,-35.194387605963165,26.951183864367145
1700082094,0.9637147902752293,-0.20501196690112128,-0.11220167135575941,0.02153299964648004,-0.046883907031697675,-0.0016798794050445422,-33.48436129786612,-35.01900029231219,26.848874598070736
1700082094,0.9649343736595309,-0.20623155028542303,-0.11403104643221201,0.01679879405044542,-0.047952921198544204,-0.0033597588100890844,-29.37737503653902,-35.150540777550425,26.717334112832503
1700082094,0.9649343736595309,-0.20623155028542303,-0.11403104643221201,0.01679879405044542,-0.047952921198544204,-0.0033597588100890844,-29.508915521777258,-35.34054370067231,26.717334112832503
1700082094,0.9640806652905198,-0.2072072169928644,-0.11378712975535166,0.013286318930806833,-0.047189339650796684,-0.004428772976935611,-29.64045600701549,-35.25285004384683,26.81964337912891
1700082094,0.9640806652905198,-0.2072072169928644,-0.11378712975535166,0.013286318930806833,-0.047189339650796684,-0.004428772976935611,-29.815843320666474,-34.98976907337036,26.249634609763227
1700082094,0.9650563319979611,-0.20745113366972476,-0.11378712975535166,0.014966198335851376,-0.04642575810304917,-0.005650503453331642,-29.961999415375622,-35.5159310143233,27.27272727272727
1700082094,0.9650563319979611,-0.20745113366972476,-0.11378712975535166,0.014966198335851376,-0.04642575810304917,-0.005650503453331642,-30.35662087109032,-35.399006138555976,27.009646302250808
1700082094,0.9657880820285422,-0.20696330031600405,-0.11390908809378184,0.018631389765039467,-0.045662176555301644,-0.006108652381980153,-30.283542823735747,-35.16515638702134,27.053493130663547
1700082094,0.9657880820285422,-0.20696330031600405,-0.11390908809378184,0.018631389765039467,-0.045662176555301644,-0.006108652381980153,-30.298158433206662,-35.28208126278866,26.5127155802397
1700082094,0.9649343736595309,-0.20513392523955148,-0.11293342138634047,0.020005836550985003,-0.04459316238845512,-0.006261368691529657,-30.152002338497514,-34.98976907337036,26.688102893890676
1700082094,0.9649343736595309,-0.20513392523955148,-0.11293342138634047,0.020005836550985003,-0.04459316238845512,-0.006261368691529657,-29.903536977491964,-35.10669394913768,27.214264834843615
1700082094,0.9646904569826708,-0.20452413354740062,-0.11281146304791029,0.018020524526841452,-0.04413501345980661,-0.006414085001079161,-29.947383805904703,-35.194387605963165,26.6150248465361
1700082094,0.9646904569826708,-0.20452413354740062,-0.11281146304791029,0.018020524526841452,-0.04413501345980661,-0.006414085001079161,-30.31277404267758,-35.38439052908507,26.93656825489623
1700082094,0.9638367486136593,-0.20574371693170232,-0.11281146304791029,0.01389718416900485,-0.0436768645311581,-0.005955936072430649,-30.239695995323007,-35.6182402806197,26.731949722303423
1700082094,0.9638367486136593,-0.20574371693170232,-0.11281146304791029,0.01389718416900485,-0.0436768645311581,-0.005955936072430649,-29.494299912306342,-35.23823443437591,27.448114586378253
1700082094,0.9653002486748217,-0.20745113366972476,-0.11232362969418959,0.01313360262125733,-0.04276056667386108,-0.005803219762881146,-29.93276819643379,-35.44285296696872,26.64425606547793
1700082094,0.9653002486748217,-0.20745113366972476,-0.11232362969418959,0.01313360262125733,-0.04276056667386108,-0.005803219762881146,-30.166617947968433,-35.09207833966676,26.20578778135048
1700082094,0.9645684986442405,-0.2063535086238532,-0.11232362969418959,0.016951510359994926,-0.04276056667386108,-0.005497787143782138,-29.52353113124817,-34.91669102601578,26.76118094124525
1700082094,0.9645684986442405,-0.2063535086238532,-0.11232362969418959,0.016951510359994926,-0.04276056667386108,-0.005497787143782138,-29.83045893013739,-34.726688102893895,26.980415083308973
1700082094,0.9646904569826708,-0.20476805022426095,-0.11329929640163097,0.018631389765039467,-0.04214970143566306,-0.00519235452468313,-30.54662379421222,-35.223618824905,26.132709733995906
1700082095,0.9646904569826708,-0.20476805022426095,-0.11329929640163097,0.018631389765039467,-0.04214970143566306,-0.004123340357836604,-29.961999415375622,-35.31131248173049,27.11195556854721
1700082095,0.9644465403058102,-0.2046460918858308,-0.11329929640163097,0.017715091907742442,-0.04184426881656405,-0.004123340357836604,-30.22508038585209,-34.975153463899446,26.6150248465361
1700082095,0.9644465403058102,-0.2046460918858308,-0.11329929640163097,0.01557706357404939,-0.04092797095926703,-0.002901609881440573,-29.961999415375622,-35.03361590178311,26.629640456007014
1700082095,0.9645684986442405,-0.20513392523955148,-0.11256754637104995,0.01557706357404939,-0.04092797095926703,-0.002901609881440573,-30.064308681672024,-35.13592516807951,27.74042677579655
1700082095,0.9645684986442405,-0.20513392523955148,-0.11256754637104995,0.016187928812247405,-0.04108068726881653,-0.002748893571891069,-30.283542823735747,-34.71207249342297,26.6150248465361
1700082095,0.9640806652905198,-0.20684134197757392,-0.11146992132517837,0.016187928812247405,-0.04108068726881653,-0.002748893571891069,-30.239695995323007,-34.91669102601578,26.717334112832503
1700082095,0.9640806652905198,-0.20684134197757392,-0.11146992132517837,0.017715091907742442,-0.04260785036431157,-0.002596177262341565,-29.64045600701549,-34.8289973691903,26.805027769657997
1700082095,0.9634708735983688,-0.20659742530071357,-0.11122600464831804,0.017715091907742442,-0.04260785036431157,-0.002596177262341565,-29.87430575855013,-35.35515931014323,26.527331189710612
1700082095,0.9634708735983688,-0.20659742530071357,-0.11122600464831804,0.018784106074588972,-0.04291328298341058,-0.0022907446432425577,-30.1373867290266,-34.799766150248466,27.12657117801812
1700082095,0.9639587069520897,-0.20574371693170232,-0.11134796298674822,0.018784106074588972,-0.04291328298341058,-0.0022907446432425577,-30.488161356328558,-35.16515638702134,26.35194387605963
1700082095,0.9639587069520897,-0.20574371693170232,-0.11061621295616715,0.019547687622336492,-0.0438295808407076,-0.00198531202414355,-30.517392575270392,-35.38439052908507,26.951183864367145
1700082095,0.9640806652905198,-0.2058656752701325,-0.11061621295616715,0.019547687622336492,-0.0438295808407076,-0.00198531202414355,-30.35662087109032,-35.45746857643964,27.404267757965506
1700082095,0.9646904569826708,-0.2067193836391437,-0.11159187966360855,0.017867808217291947,-0.045662176555301644,-0.0022907446432425577,-30.239695995323007,-35.179771996492256,26.951183864367145
1700082095,0.9646904569826708,-0.2067193836391437,-0.11159187966360855,0.017867808217291947,-0.045662176555301644,-0.0022907446432425577,-30.444314527915818,-35.00438468284127,27.12657117801812
1700082095,0.9638367486136593,-0.20647546696228333,-0.11195775467889908,0.016493361431346415,-0.04657847441259867,-0.0032070425005395805,-30.54662379421222,-34.96053785442853,26.995030692779885
1700082095,0.9638367486136593,-0.20647546696228333,-0.11195775467889908,0.016493361431346415,-0.04657847441259867,-0.0032070425005395805,-30.385852090032156,-34.88745980707396,26.995030692779885
1700082095,0.9638367486136593,-0.20659742530071357,-0.11122600464831804,0.01634064512179691,-0.047036623341247176,-0.004428772976935611,-30.415083308973983,-35.41362174802689,27.41888336743642
1700082095,0.9638367486136593,-0.20659742530071357,-0.11122600464831804,0.01634064512179691,-0.047036623341247176,-0.004428772976935611,-30.10815551008477,-35.26746565331774,26.775796550716162
1700082095,0.96420262362895,-0.2063535086238532,-0.11171383800203873,0.0158824961931484,-0.04673119072214818,-0.004734205596034618,-29.815843320666474,-35.31131248173049,26.96579947383806
1700082095,0.96420262362895,-0.2063535086238532,-0.11171383800203873,0.0158824961931484,-0.04673119072214818,-0.004734205596034618,-29.888921368021048,-35.34054370067231,26.702718503361588
1700082095,0.9633489152599388,-0.20659742530071357,-0.11354321307849133,0.016187928812247405,-0.047036623341247176,-0.005039638215133627,-30.473545746857646,-35.399006138555976,26.16194095293774
1700082095,0.9633489152599388,-0.20659742530071357,-0.11354321307849133,0.016187928812247405,-0.047036623341247176,-0.005039638215133627,-30.283542823735747,-35.121309558608594,26.264250219234142
1700082095,0.9653002486748217,-0.20598763360856268,-0.11329929640163097,0.01634064512179691,-0.04657847441259867,-0.005650503453331642,-30.298158433206662,-35.70593393744519,26.6150248465361
1700082095,0.9653002486748217,-0.20598763360856268,-0.11329929640163097,0.01634064512179691,-0.04657847441259867,-0.005650503453331642,-30.09353990061386,-35.26746565331774,26.220403390821396
1700082095,0.9657880820285422,-0.2067193836391437,-0.11329929640163097,0.016493361431346415,-0.04550946024575214,-0.005955936072430649,-30.239695995323007,-35.06284712072493,26.805027769657997
1700082095,0.9657880820285422,-0.2067193836391437,-0.11329929640163097,0.016493361431346415,-0.04550946024575214,-0.005955936072430649,-30.60508623209588,-35.01900029231219,26.118094124524994
1700082095,0.9645684986442405,-0.2067193836391437,-0.11281146304791029,0.016951510359994926,-0.04459316238845512,-0.006414085001079161,-30.415083308973983,-34.8289973691903,25.9280912014031
1700082095,0.9645684986442405,-0.2067193836391437,-0.11281146304791029,0.016951510359994926,-0.04459316238845512,-0.006414085001079161,-30.444314527915818,-35.42823735749781,26.074247296112247
1700082095,0.9650563319979611,-0.20623155028542303,-0.11232362969418959,0.01679879405044542,-0.04474587869800463,-0.006261368691529657,-29.52353113124817,-34.68284127448115,27.667348728441976
1700082095,0.9650563319979611,-0.20623155028542303,-0.11232362969418959,0.01679879405044542,-0.04474587869800463,-0.006261368691529657,-29.64045600701549,-35.325928091201405,26.439637532885126
1700082095,0.9648124153211007,-0.205499800254842,-0.11268950470948011,0.016646077740895916,-0.0439822971502571,-0.006108652381980153,-30.152002338497514,-35.325928091201405,27.38965214849459
1700082095,0.9648124153211007,-0.205499800254842,-0.11268950470948011,0.016646077740895916,-0.0439822971502571,-0.006108652381980153,-29.552762350190005,-34.96053785442853,27.258111663256358
1700082095,0.9644465403058102,-0.20610959194699285,-0.1131773380632008,0.017409659288643436,-0.0438295808407076,-0.005650503453331642,-29.187372113417133,-35.03361590178311,26.688102893890676
1700082095,0.9644465403058102,-0.20610959194699285,-0.1131773380632008,0.017409659288643436,-0.0438295808407076,-0.005650503453331642,-30.385852090032156,-35.399006138555976,26.746565331774335
1700082095,0.9646904569826708,-0.20574371693170232,-0.11146992132517837,0.01710422666954443,-0.04444044607890562,-0.00519235452468313,-30.80970476468869,-35.01900029231219,26.731949722303423
1700082095,0.9646904569826708,-0.20574371693170232,-0.11146992132517837,0.01710422666954443,-0.04444044607890562,-0.00519235452468313,-29.93276819643379,-35.150540777550425,27.404267757965506
1700082095,0.9645684986442405,-0.20610959194699285,-0.11171383800203873,0.017256942979093935,-0.04459316238845512,-0.004886921905584123,-30.795089155217774,-34.9313066354867,26.585793627594274
1700082095,0.9645684986442405,-0.20610959194699285,-0.11171383800203873,0.017256942979093935,-0.04459316238845512,-0.0039706240482871,-30.751242326805027,-34.90207541654487,26.65887167494885
1700082095,0.9645684986442405,-0.20574371693170232,-0.11207971301732926,0.016646077740895916,-0.04428772976935611,-0.0039706240482871,-30.049693072201112,-35.10669394913768,26.381175095001463
1700082095,0.9645684986442405,-0.20574371693170232,-0.11207971301732926,0.016646077740895916,-0.04459316238845512,-0.003665191429188092,-29.435837474422684,-35.13592516807951,26.527331189710612
1700082095,0.9648124153211007,-0.20501196690112128,-0.11195775467889908,0.016646077740895916,-0.04459316238845512,-0.003665191429188092,-29.83045893013739,-35.06284712072493,26.5127155802397
1700082095,0.9648124153211007,-0.20501196690112128,-0.11195775467889908,0.015424347264499889,-0.04474587869800463,-0.002901609881440573,-30.166617947968433,-35.194387605963165,26.29348143817597
1700082095,0.9631049985830784,-0.20659742530071357,-0.11293342138634047,0.015424347264499889,-0.04474587869800463,-0.002901609881440573,-30.181233557439345,-34.770534931306635,26.541946799181527
1700082095,0.9631049985830784,-0.20659742530071357,-0.11293342138634047,0.017256942979093935,-0.04459316238845512,-0.002596177262341565,-29.62584039754458,-34.46360713241742,27.038877521192635
1700082095,0.9643245819673802,-0.20708525865443422,-0.11342125474006115,0.017256942979093935,-0.04459316238845512,-0.002596177262341565,-30.210464776381173,-34.945922244957615,25.986553639286758
1700082095,0.96420262362895,-0.20647546696228333,-0.11256754637104995,0.018784106074588972,-0.04459316238845512,-0.0035124751196385882,-30.049693072201112,-35.09207833966676,26.35194387605963
1700082095,0.96420262362895,-0.20647546696228333,-0.11256754637104995,0.018784106074588972,-0.04459316238845512,-0.0035124751196385882,-30.166617947968433,-34.84361297866121,26.19117217187957
1700082095,0.9648124153211007,-0.2058656752701325,-0.1118357963404689,0.016951510359994926,-0.04428772976935611,-0.004428772976935611,-29.961999415375622,-35.16515638702134,26.176556562408653
1700082095,0.9648124153211007,-0.2058656752701325,-0.1118357963404689,0.016951510359994926,-0.04428772976935611,-0.004428772976935611,-30.1373867290266,-35.121309558608594,26.49809997076878
1700082095,0.9648124153211007,-0.20659742530071357,-0.11159187966360855,0.015729779883598895,-0.0438295808407076,-0.003665191429188092,-30.268927214264835,-35.23823443437591,26.468868751826953
1700082095,0.9648124153211007,-0.20659742530071357,-0.11159187966360855,0.015729779883598895,-0.0438295808407076,-0.003665191429188092,-30.34200526161941,-34.18591055247004,27.331189710610932
1700082095,0.9635928319367991,-0.20659742530071357,-0.11159187966360855,0.01756237559819294,-0.0439822971502571,-0.003817907738737596,-30.45893013738673,-35.00438468284127,26.337328266588717
1700082095,0.9635928319367991,-0.20659742530071357,-0.11159187966360855,0.01756237559819294,-0.0439822971502571,-0.003817907738737596,-29.66968722595732,-35.223618824905,26.41040631394329
1700082095,0.9638367486136593,-0.20647546696228333,-0.11207971301732926,0.019700403931885994,-0.04474587869800463,-0.004276056667386108,-30.1373867290266,-34.98976907337036,26.629640456007014
1700082095,0.9638367486136593,-0.20647546696228333,-0.11207971301732926,0.019700403931885994,-0.04474587869800463,-0.004276056667386108,-30.722011107863196,-35.048231511254016,26.746565331774335
1700082095,0.96420262362895,-0.20562175859327214,-0.11086012963302751,0.018020524526841452,-0.045662176555301644,-0.004581489286485115,-30.4296989184449,-34.44899152294651,26.92195264542531
1700082095,0.96420262362895,-0.20562175859327214,-0.11086012963302751,0.018020524526841452,-0.045662176555301644,-0.004581489286485115,-29.976615024846538,-34.945922244957615,26.775796550716162
1700082095,0.9637147902752293,-0.2063535086238532,-0.11146992132517837,0.016187928812247405,-0.04642575810304917,-0.004886921905584123,-26.3227126571178,-35.16515638702134,26.892721426483483
1700082095,0.9637147902752293,-0.2063535086238532,-0.11146992132517837,0.016187928812247405,-0.04642575810304917,-0.004886921905584123,-29.713534054370065,-35.01900029231219,26.805027769657997
1700082095,0.9635928319367991,-0.20745113366972476,-0.11207971301732926,0.01679879405044542,-0.04673119072214818,-0.005803219762881146,-30.371236480561237,-34.975153463899446,26.088862905583166
1700082095,0.9635928319367991,-0.20745113366972476,-0.11207971301732926,0.01679879405044542,-0.04673119072214818,-0.005803219762881146,-29.903536977491964,-34.96053785442853,26.29348143817597
1700082095,0.9637147902752293,-0.20623155028542303,-0.11293342138634047,0.017256942979093935,-0.047036623341247176,-0.006261368691529657,-30.152002338497514,-35.121309558608594,27.009646302250808
1700082095,0.9637147902752293,-0.20623155028542303,-0.11293342138634047,0.017256942979093935,-0.047036623341247176,-0.006261368691529657,-29.53814674071909,-35.09207833966676,26.980415083308973
1700082095,0.9646904569826708,-0.2063535086238532,-0.11244558803261977,0.01756237559819294,-0.04627304179349966,-0.006566801310628665,-30.152002338497514,-34.90207541654487,27.12657117801812
1700082095,0.9646904569826708,-0.2063535086238532,-0.11244558803261977,0.01756237559819294,-0.04627304179349966,-0.006566801310628665,-30.371236480561237,-35.01900029231219,27.053493130663547
1700082095,0.9640806652905198,-0.20525588357798163,-0.11232362969418959,0.01679879405044542,-0.04612032548395016,-0.006566801310628665,-30.34200526161941,-34.492838351359254,26.264250219234142
1700082095,0.9640806652905198,-0.20525588357798163,-0.11232362969418959,0.01679879405044542,-0.04612032548395016,-0.006566801310628665,-30.25431160479392,-34.90207541654487,26.775796550716162
1700082095,0.9639587069520897,-0.205499800254842,-0.1136651714169215,0.016187928812247405,-0.046883907031697675,-0.006566801310628665,-30.532008184741304,-35.325928091201405,26.35194387605963
1700082095,0.9639587069520897,-0.205499800254842,-0.1136651714169215,0.016187928812247405,-0.046883907031697675,-0.006566801310628665,-30.35662087109032,-35.16515638702134,26.92195264542531
1700082095,0.9645684986442405,-0.20610959194699285,-0.11378712975535166,0.01557706357404939,-0.045356743936202634,-0.005650503453331642,-29.684302835428237,-35.325928091201405,26.41040631394329
1700082095,0.9645684986442405,-0.20610959194699285,-0.11378712975535166,0.01557706357404939,-0.045356743936202634,-0.005650503453331642,-30.049693072201112,-35.23823443437591,26.790412160187078
1700082095,0.9653002486748217,-0.20574371693170232,-0.11305537972477062,0.016493361431346415,-0.04505131131710363,-0.00519235452468313,-30.152002338497514,-34.75591932183572,27.22888044431453
1700082095,0.9653002486748217,-0.20574371693170232,-0.11305537972477062,0.016493361431346415,-0.04505131131710363,-0.00519235452468313,-30.502776965799473,-34.66822566501023,26.337328266588717
1700082095,0.9648124153211007,-0.2058656752701325,-0.11256754637104995,0.017256942979093935,-0.04444044607890562,-0.004581489286485115,-30.385852090032156,-34.66822566501023,27.053493130663547
1700082095,0.9648124153211007,-0.2058656752701325,-0.11256754637104995,0.017256942979093935,-0.04444044607890562,-0.004581489286485115,-30.444314527915818,-34.60976322712657,26.717334112832503
1700082095,0.9646904569826708,-0.20476805022426095,-0.11232362969418959,0.017256942979093935,-0.04428772976935611,-0.003817907738737596,-29.75738088278281,-34.68284127448115,26.454253142356038
1700082095,0.9648124153211007,-0.2063535086238532,-0.11171383800203873,0.016187928812247405,-0.04337143191205909,-0.0033597588100890844,-29.333528208126282,-35.194387605963165,26.483484361297865
1700082095,0.9648124153211007,-0.2063535086238532,-0.11171383800203873,0.016187928812247405,-0.04337143191205909,-0.0033597588100890844,-30.049693072201112,-34.68284127448115,26.118094124524994
1700082095,0.96420262362895,-0.20684134197757392,-0.11146992132517837,0.0160352125026979,-0.0439822971502571,-0.0032070425005395805,-30.619701841566794,-34.96053785442853,26.81964337912891
1700082095,0.96420262362895,-0.20684134197757392,-0.11146992132517837,0.0160352125026979,-0.0439822971502571,-0.0032070425005395805,-29.903536977491964,-35.077462730195855,27.448114586378253
1700082095,0.9634708735983688,-0.2067193836391437,-0.11110404630988786,0.01679879405044542,-0.045356743936202634,-0.0035124751196385882,-30.34200526161941,-35.13592516807951,27.506577024261915
1700082095,0.9634708735983688,-0.2067193836391437,-0.11110404630988786,0.01679879405044542,-0.045356743936202634,-0.0035124751196385882,-29.684302835428237,-34.8289973691903,27.404267757965506
1700082095,0.9648124153211007,-0.20745113366972476,-0.110494254617737,0.016646077740895916,-0.04657847441259867,-0.0039706240482871,-29.698918444899153,-35.34054370067231,26.92195264542531
1700082095,0.9648124153211007,-0.20745113366972476,-0.110494254617737,0.016646077740895916,-0.04657847441259867,-0.0039706240482871,-29.918152586962876,-34.91669102601578,26.995030692779885
1700082095,0.9639587069520897,-0.20708525865443422,-0.11232362969418959,0.016646077740895916,-0.047036623341247176,-0.005650503453331642,-29.99123063431745,-34.741303712364804,27.038877521192635
1700082095,0.9639587069520897,-0.20708525865443422,-0.11232362969418959,0.016646077740895916,-0.047036623341247176,-0.005650503453331642,-30.152002338497514,-35.03361590178311,26.9073370359544
1700082095,0.9648124153211007,-0.20647546696228333,-0.11207971301732926,0.015729779883598895,-0.047647488579445195,-0.00717766654882668,-30.07892429114294,-34.799766150248466,27.301958491669104
1700082095,0.9648124153211007,-0.20647546696228333,-0.11207971301732926,0.015729779883598895,-0.047647488579445195,-0.00717766654882668,-30.005846243788366,-34.71207249342297,26.81964337912891
1700082095,0.9640806652905198,-0.2063535086238532,-0.11305537972477062,0.01634064512179691,-0.0478002048889947,-0.007788531787024695,-30.005846243788366,-34.60976322712657,26.600409237065186
1700082095,0.9640806652905198,-0.2063535086238532,-0.11305537972477062,0.01634064512179691,-0.0478002048889947,-0.007788531787024695,-30.31277404267758,-34.81438175971938,27.94504530838936
1700082095,0.96420262362895,-0.2058656752701325,-0.1131773380632008,0.017256942979093935,-0.047952921198544204,-0.0079412480965742,-30.34200526161941,-35.16515638702134,27.12657117801812
1700082095,0.96420262362895,-0.2058656752701325,-0.1131773380632008,0.017256942979093935,-0.047952921198544204,-0.0079412480965742,-29.450453083893596,-34.58053200818474,27.506577024261915
1700082095,0.9646904569826708,-0.20562175859327214,-0.11305537972477062,0.017409659288643436,-0.047647488579445195,-0.0079412480965742,-29.93276819643379,-34.8289973691903,27.170418006430868
1700082095,0.9646904569826708,-0.20562175859327214,-0.11305537972477062,0.017409659288643436,-0.047647488579445195,-0.0079412480965742,-29.87430575855013,-34.78515054077755,27.62350190002923
1700082095,0.9653002486748217,-0.20562175859327214,-0.11281146304791029,0.017256942979093935,-0.047647488579445195,-0.007330382858376184,-29.567377959660917,-34.88745980707396,27.258111663256358
1700082095,0.9653002486748217,-0.20562175859327214,-0.11281146304791029,0.017256942979093935,-0.047647488579445195,-0.007330382858376184,-30.035077462730197,-35.121309558608594,27.155802396959956
1700082095,0.9650563319979611,-0.205499800254842,-0.11342125474006115,0.016951510359994926,-0.047036623341247176,-0.006872233929727673,-30.035077462730197,-35.23823443437591,26.541946799181527
1700082095,0.9650563319979611,-0.205499800254842,-0.11342125474006115,0.016951510359994926,-0.047036623341247176,-0.006872233929727673,-29.47968430283543,-35.13592516807951,26.264250219234142
1700082095,0.96420262362895,-0.20428021687054027,-0.1131773380632008,0.016646077740895916,-0.04627304179349966,-0.006108652381980153,-28.968137971353407,-35.03361590178311,26.04501607717042
1700082096,0.96420262362895,-0.20428021687054027,-0.1131773380632008,0.016646077740895916,-0.04627304179349966,-0.006108652381980153,-29.786612101724643,-34.872844197603044,26.35194387605963
1700082096,0.9638367486136593,-0.20562175859327214,-0.11427496310907237,0.0158824961931484,-0.044898595007554123,-0.005039638215133627,-29.888921368021048,-34.9313066354867,26.395790704472375
1700082096,0.9638367486136593,-0.20562175859327214,-0.11427496310907237,0.0158824961931484,-0.044898595007554123,-0.005039638215133627,-29.99123063431745,-35.048231511254016,26.55656240865244
1700082096,0.9645684986442405,-0.2053778419164118,-0.11378712975535166,0.01679879405044542,-0.0438295808407076,-0.004428772976935611,-29.348143817597194,-35.749780765857935,27.038877521192635
1700082096,0.9645684986442405,-0.2053778419164118,-0.11378712975535166,0.01679879405044542,-0.0438295808407076,-0.004428772976935611,-29.786612101724643,-35.55977784273604,27.02426191172172
1700082096,0.9644465403058102,-0.2053778419164118,-0.1131773380632008,0.016951510359994926,-0.04276056667386108,-0.0030543261909900766,-30.064308681672024,-34.975153463899446,27.02426191172172
1700082096,0.9644465403058102,-0.2053778419164118,-0.1131773380632008,0.016951510359994926,-0.04276056667386108,-0.0030543261909900766,-30.502776965799473,-35.26746565331774,28.076585793627594
1700082096,0.9638367486136593,-0.2058656752701325,-0.11207971301732926,0.017256942979093935,-0.04260785036431157,-0.00198531202414355,-29.508915521777258,-35.20900321543408,27.068108740134463
1700082096,0.9638367486136593,-0.2058656752701325,-0.11207971301732926,0.017256942979093935,-0.04260785036431157,-0.00198531202414355,-29.552762350190005,-35.077462730195855,27.769657994738377
1700082096,0.96420262362895,-0.2058656752701325,-0.11110404630988786,0.018478673455489966,-0.04321871560250958,-0.0013744467859455344,-29.903536977491964,-35.223618824905,26.55656240865244
1700082096,0.96420262362895,-0.2058656752701325,-0.11110404630988786,0.017867808217291947,-0.04413501345980661,-0.0016798794050445422,-29.53814674071909,-34.741303712364804,27.199649225372696
1700082096,0.9644465403058102,-0.20647546696228333,-0.11159187966360855,0.017867808217291947,-0.04413501345980661,-0.0016798794050445422,-29.976615024846538,-35.325928091201405,27.8865828705057
1700082096,0.9644465403058102,-0.20647546696228333,-0.11159187966360855,0.01634064512179691,-0.04444044607890562,-0.002748893571891069,-29.815843320666474,-34.78515054077755,27.769657994738377
1700082096,0.9643245819673802,-0.20732917533129458,-0.11293342138634047,0.01634064512179691,-0.04444044607890562,-0.002748893571891069,-29.348143817597194,-34.78515054077755,26.892721426483483
1700082096,0.9643245819673802,-0.2063535086238532,-0.11281146304791029,0.015729779883598895,-0.04505131131710363,-0.0033597588100890844,-30.005846243788366,-35.45746857643964,27.214264834843615
1700082096,0.9638367486136593,-0.2063535086238532,-0.11281146304791029,0.015729779883598895,-0.04505131131710363,-0.0033597588100890844,-30.1373867290266,-34.90207541654487,27.068108740134463
1700082096,0.9631049985830784,-0.20708525865443422,-0.11256754637104995,0.015424347264499889,-0.04612032548395016,-0.0039706240482871,-30.70739549839228,-34.90207541654487,27.214264834843615
1700082096,0.9631049985830784,-0.20708525865443422,-0.11256754637104995,0.015424347264499889,-0.04612032548395016,-0.0039706240482871,-30.60508623209588,-35.048231511254016,27.301958491669104
1700082096,0.9633489152599388,-0.208304842038736,-0.11305537972477062,0.017409659288643436,-0.046883907031697675,-0.0039706240482871,-29.93276819643379,-35.44285296696872,27.433498976907337
1700082096,0.9633489152599388,-0.208304842038736,-0.11305537972477062,0.017409659288643436,-0.046883907031697675,-0.0039706240482871,-30.882782812043263,-35.121309558608594,27.57965507161649
1700082096,0.96420262362895,-0.20562175859327214,-0.11329929640163097,0.018936822384138473,-0.04673119072214818,-0.005345070834232635,-30.66354866997954,-35.28208126278866,27.608886290558317
1700082096,0.96420262362895,-0.20562175859327214,-0.11329929640163097,0.018936822384138473,-0.04673119072214818,-0.005345070834232635,-30.575855013154047,-35.16515638702134,26.81964337912891
1700082096,0.9643245819673802,-0.2046460918858308,-0.11354321307849133,0.015729779883598895,-0.04581489286485115,-0.006414085001079161,-30.765857936275943,-34.88745980707396,26.35194387605963
1700082096,0.9643245819673802,-0.2046460918858308,-0.11354321307849133,0.015729779883598895,-0.04581489286485115,-0.006414085001079161,-30.882782812043263,-35.121309558608594,27.02426191172172
1700082096,0.9649343736595309,-0.2067193836391437,-0.11281146304791029,0.012828170002158322,-0.04505131131710363,-0.006261368691529657,-29.947383805904703,-34.71207249342297,26.176556562408653
1700082096,0.9649343736595309,-0.2067193836391437,-0.11281146304791029,0.012828170002158322,-0.04505131131710363,-0.006261368691529657,-30.35662087109032,-34.85822858813212,26.176556562408653
1700082096,0.9640806652905198,-0.20732917533129458,-0.11207971301732926,0.015729779883598895,-0.04428772976935611,-0.006414085001079161,-30.502776965799473,-34.98976907337036,27.08272434960538
1700082096,0.9640806652905198,-0.20732917533129458,-0.11207971301732926,0.015729779883598895,-0.04428772976935611,-0.006414085001079161,-30.049693072201112,-35.09207833966676,26.278865828705054
1700082096,0.9640806652905198,-0.20623155028542303,-0.11220167135575941,0.020616701789183015,-0.04474587869800463,-0.005497787143782138,-30.532008184741304,-35.20900321543408,26.278865828705054
1700082096,0.9640806652905198,-0.20623155028542303,-0.11220167135575941,0.020616701789183015,-0.04474587869800463,-0.005497787143782138,-30.07892429114294,-35.399006138555976,26.571178018123355
1700082096,0.9645684986442405,-0.2046460918858308,-0.11232362969418959,0.020158552860534508,-0.04520402762665313,-0.005497787143782138,-30.678164279450453,-34.8289973691903,25.723472668810288
1700082096,0.9645684986442405,-0.2046460918858308,-0.11232362969418959,0.020158552860534508,-0.04520402762665313,-0.005497787143782138,-30.80970476468869,-35.31131248173049,25.825781935106697
1700082096,0.9650563319979611,-0.20562175859327214,-0.11354321307849133,0.015729779883598895,-0.04428772976935611,-0.00519235452468313,-30.561239403683132,-35.121309558608594,26.863490207541656
1700082096,0.9650563319979611,-0.20562175859327214,-0.11354321307849133,0.015729779883598895,-0.04428772976935611,-0.00519235452468313,-30.19584916691026,-35.00438468284127,26.848874598070736
1700082096,0.9637147902752293,-0.20623155028542303,-0.11354321307849133,0.01435533309765336,-0.04459316238845512,-0.005345070834232635,-30.54662379421222,-35.28208126278866,26.96579947383806
1700082096,0.9637147902752293,-0.20623155028542303,-0.11354321307849133,0.01435533309765336,-0.04459316238845512,-0.005345070834232635,-30.4296989184449,-35.00438468284127,26.9073370359544
1700082096,0.9640806652905198,-0.2063535086238532,-0.1136651714169215,0.0160352125026979,-0.04352414822160859,-0.003665191429188092,-29.771996492253727,-34.84361297866121,25.796550716164862
1700082096,0.9640806652905198,-0.2063535086238532,-0.1136651714169215,0.0160352125026979,-0.04352414822160859,-0.003665191429188092,-30.09353990061386,-34.88745980707396,26.571178018123355
1700082096,0.9649343736595309,-0.2063535086238532,-0.1118357963404689,0.01832595714594046,-0.0438295808407076,-0.002748893571891069,-29.83045893013739,-35.13592516807951,25.81116632563578
1700082096,0.9649343736595309,-0.2063535086238532,-0.1118357963404689,0.01832595714594046,-0.0438295808407076,-0.002748893571891069,-30.239695995323007,-34.872844197603044,26.35194387605963
1700082096,0.9650563319979611,-0.20610959194699285,-0.11146992132517837,0.019394971312786988,-0.04459316238845512,-0.002138028333693054,-30.35662087109032,-34.96053785442853,26.87810581701257
1700082096,0.9650563319979611,-0.20610959194699285,-0.11146992132517837,0.019394971312786988,-0.04459316238845512,-0.002138028333693054,-30.40046769950307,-35.179771996492256,26.41040631394329
1700082096,0.9644465403058102,-0.205499800254842,-0.11073817129459733,0.01756237559819294,-0.045356743936202634,-0.0016798794050445422,-30.166617947968433,-35.325928091201405,26.3227126571178
1700082096,0.9644465403058102,-0.205499800254842,-0.11073817129459733,0.01756237559819294,-0.04581489286485115,-0.002138028333693054,-30.66354866997954,-35.077462730195855,27.02426191172172
1700082096,0.9643245819673802,-0.20696330031600405,-0.1131773380632008,0.015271630954950384,-0.04581489286485115,-0.002138028333693054,-30.268927214264835,-34.945922244957615,26.55656240865244
1700082096,0.9643245819673802,-0.20696330031600405,-0.1131773380632008,0.014813482026301871,-0.045662176555301644,-0.002901609881440573,-30.385852090032156,-35.01900029231219,26.64425606547793
1700082096,0.9629830402446483,-0.2078170086850153,-0.11354321307849133,0.014813482026301871,-0.045662176555301644,-0.002901609881440573,-30.283542823735747,-35.194387605963165,27.141186787489037
1700082096,0.9629830402446483,-0.2078170086850153,-0.11354321307849133,0.016951510359994926,-0.045356743936202634,-0.0033597588100890844,-29.903536977491964,-35.57439345220696,26.717334112832503
1700082096,0.9645684986442405,-0.20647546696228333,-0.11268950470948011,0.016951510359994926,-0.045356743936202634,-0.0033597588100890844,-26.20578778135048,-35.13592516807951,26.483484361297865
1700082096,0.9645684986442405,-0.20647546696228333,-0.11268950470948011,0.018020524526841452,-0.045662176555301644,-0.003665191429188092,-30.181233557439345,-35.150540777550425,25.94270681087401
1700082096,0.9646904569826708,-0.20574371693170232,-0.11293342138634047,0.018020524526841452,-0.045662176555301644,-0.003665191429188092,-29.72814966384098,-35.6182402806197,26.454253142356038
1700082096,0.9645684986442405,-0.20598763360856268,-0.1131773380632008,0.017867808217291947,-0.04428772976935611,-0.004123340357836604,-29.611224788073663,-35.48669979538147,26.30809704764689
