timestamp,acc-x,acc-y,acc-z,gyr-x,gyr-y,gyr-z,mag-x,mag-y,mag-z
1700081064,0.9685931238124362,-0.2318428013557594,0.03341658472986748,0.01679879405044542,-0.045662176555301644,-0.004886921905584123,-37.32826658871675,-33.55743934522069,13.928675825781935
1700081064,0.9685931238124362,-0.2318428013557594,0.03341658472986748,0.01679879405044542,-0.045662176555301644,-0.004886921905584123,-37.79596609178603,-33.55743934522069,14.220988015200234
1700081064,0.9692029155045871,-0.2313549680020387,0.03317266805300713,0.016951510359994926,-0.045356743936202634,-0.004886921905584123,-37.693656825489626,-33.51359251680795,15.21484945922245
1700081064,0.9692029155045871,-0.2313549680020387,0.03317266805300713,0.014813482026301871,-0.0438295808407076,-0.003665191429188092,-37.92750657702426,-34.171294942999126,13.91406021631102
1700081064,0.9685931238124362,-0.2311110513251784,0.03329462639143731,0.014813482026301871,-0.0438295808407076,-0.003665191429188092,-38.02981584332067,-34.03975445776089,14.849459222449577
1700081064,0.9685931238124362,-0.2311110513251784,0.03329462639143731,0.014508049407202865,-0.04306599929296008,-0.0022907446432425577,-37.44519146448407,-34.22975738088278,15.653317743349898
1700081064,0.9695687905198777,-0.23147692634046887,0.03427029309887869,0.014508049407202865,-0.04306599929296008,-0.0022907446432425577,-37.67904121601871,-33.966676410406315,15.624086524408067
1700081064,0.9683492071355759,-0.2319647596941896,0.03451420977573903,0.014813482026301871,-0.04306599929296008,-0.001832595714594046,-37.839812920198774,-34.0543700672318,15.287927506577024
1700081064,0.9683492071355759,-0.2319647596941896,0.03451420977573903,0.014813482026301871,-0.04306599929296008,-0.001832595714594046,-38.117509500146156,-33.90821397252265,14.498684595147617
1700081064,0.9689589988277266,-0.23245259304791024,0.03305070971457696,0.0160352125026979,-0.04230241774521256,-0.0016798794050445422,-37.95673779596609,-33.92282958199357,14.644840689856768
1700081064,0.9689589988277266,-0.23245259304791024,0.03305070971457696,0.0160352125026979,-0.04230241774521256,-0.0016798794050445422,-37.22595732242034,-33.64513300204619,14.747149956153171
1700081064,0.9696907488583079,-0.23123300966360852,0.03353854306829765,0.0160352125026979,-0.04138611988791554,-0.0024434609527920616,-37.19672610347852,-34.02513884828998,14.790996784565916
1700081064,0.9696907488583079,-0.23123300966360852,0.03353854306829765,0.0160352125026979,-0.04138611988791554,-0.0024434609527920616,-37.41596024554224,-33.966676410406315,14.557147033031278
1700081064,0.9688370404892966,-0.23233063470948012,0.03402637642201835,0.013744467859455345,-0.040622538340168025,-0.0030543261909900766,-37.8690441391406,-33.820520315697166,14.498684595147617
1700081064,0.9688370404892966,-0.23233063470948012,0.03402637642201835,0.013744467859455345,-0.040622538340168025,-0.0030543261909900766,-37.8690441391406,-34.010523238819054,14.32329728149664
1700081064,0.9681052904587156,-0.23257455138634048,0.03488008479102956,0.013591751549905842,-0.040011673101970006,-0.002901609881440573,-37.81058170125694,-34.361297866121014,14.586378251973105
1700081065,0.9681052904587156,-0.23257455138634048,0.03488008479102956,0.013591751549905842,-0.040011673101970006,-0.002901609881440573,-37.32826658871675,-33.747442268342596,14.104063139432915
1700081065,0.9683492071355759,-0.2333063014169215,0.03500204312945973,0.015424347264499889,-0.04092797095926703,-0.002596177262341565,-37.09441683718211,-34.25898859982461,14.162525577316574
1700081065,0.9683492071355759,-0.2333063014169215,0.03500204312945973,0.015424347264499889,-0.04092797095926703,-0.002596177262341565,-38.02981584332067,-33.864367144109906,14.00175387313651
1700081065,0.9685931238124362,-0.23306238474006113,0.0356118348216106,0.017256942979093935,-0.04123340357836603,-0.0030543261909900766,-38.05904706226249,-34.317451037708274,14.118678748903829
1700081065,0.9685931238124362,-0.23306238474006113,0.0356118348216106,0.017256942979093935,-0.04123340357836603,-0.0030543261909900766,-38.13212510961707,-34.12744811458638,13.753288512130958
1700081065,0.9679833321202853,-0.2319647596941896,0.0356118348216106,0.016187928812247405,-0.04184426881656405,-0.0032070425005395805,-37.839812920198774,-33.586670564162524,14.83484361297866
1700081065,0.9679833321202853,-0.2319647596941896,0.0356118348216106,0.016187928812247405,-0.04184426881656405,-0.0035124751196385882,-37.44519146448407,-34.010523238819054,14.191756796258403
1700081065,0.9679833321202853,-0.23257455138634048,0.0351240014678899,0.013439035240356337,-0.04214970143566306,-0.0035124751196385882,-37.60596316866413,-33.90821397252265,14.484068985676704
1700081065,0.9679833321202853,-0.23257455138634048,0.0351240014678899,0.013744467859455345,-0.04337143191205909,-0.004276056667386108,-37.70827243496054,-33.70359543992984,14.14790996784566
1700081065,0.967739415443425,-0.23403805144750256,0.03536791814475025,0.013744467859455345,-0.04337143191205909,-0.004276056667386108,-37.664425606547795,-33.68897983045893,14.220988015200234
1700081065,0.9673735404281345,-0.23403805144750256,0.03536791814475025,0.0160352125026979,-0.04505131131710363,-0.005039638215133627,-37.532885121309555,-33.71821104940076,14.68868751826951
1700081065,0.9673735404281345,-0.23403805144750256,0.03536791814475025,0.0160352125026979,-0.04505131131710363,-0.005039638215133627,-36.729026600409235,-33.68897983045893,14.016369482607423
1700081065,0.9678613737818552,-0.23306238474006113,0.0360996681753313,0.017256942979093935,-0.045356743936202634,-0.005803219762881146,-37.211341712949434,-33.659748611517095,13.76790412160187
1700081065,0.9678613737818552,-0.23306238474006113,0.0360996681753313,0.017256942979093935,-0.045356743936202634,-0.005803219762881146,-37.19672610347852,-33.762057877813504,14.235603624671148
1700081065,0.9674954987665647,-0.2319647596941896,0.03500204312945973,0.016951510359994926,-0.04612032548395016,-0.006414085001079161,-37.02133878982753,-33.48436129786612,14.235603624671148
1700081065,0.9674954987665647,-0.2319647596941896,0.03500204312945973,0.016951510359994926,-0.04612032548395016,-0.006414085001079161,-37.02133878982753,-33.864367144109906,14.191756796258403
1700081065,0.9679833321202853,-0.2319647596941896,0.03475812645259938,0.014660765716752368,-0.04673119072214818,-0.006108652381980153,-37.98596901490792,-33.762057877813504,14.308681672025724
1700081065,0.9679833321202853,-0.2319647596941896,0.03475812645259938,0.014660765716752368,-0.04673119072214818,-0.006108652381980153,-37.51826951183864,-33.864367144109906,14.717918737211342
1700081065,0.9692029155045871,-0.23147692634046887,0.03329462639143731,0.012828170002158322,-0.04657847441259867,-0.005497787143782138,-37.97135340543701,-34.30283542823736,14.674071908798597
1700081065,0.9692029155045871,-0.23245259304791024,0.03463616811416921,0.012675453692608817,-0.04550946024575214,-0.005345070834232635,-33.68897983045893,-34.010523238819054,14.17714118678749
1700081065,0.9692029155045871,-0.23245259304791024,0.03463616811416921,0.012675453692608817,-0.04550946024575214,-0.005345070834232635,-37.41596024554224,-34.215141771411865,14.162525577316574
1700081065,0.9685931238124362,-0.2326965097247706,0.03390441808358817,0.014508049407202865,-0.04459316238845512,-0.004734205596034618,-37.64980999707688,-34.171294942999126,13.870213387898275
1700081065,0.9690809571661569,-0.23159888467889905,0.03451420977573903,0.017715091907742442,-0.04276056667386108,-0.0035124751196385882,-37.313650979245836,-34.06898567670272,14.849459222449577
1700081065,0.9690809571661569,-0.23159888467889905,0.03451420977573903,0.017715091907742442,-0.04276056667386108,-0.0035124751196385882,-37.29903536977492,-34.20052616194095,13.840982168956446
1700081065,0.9700566238735983,-0.23086713464831804,0.032928751376146786,0.01756237559819294,-0.04138611988791554,-0.00198531202414355,-37.7667348728442,-34.40514469453376,14.542531423560362
1700081065,0.9687150821508664,-0.23172084301732923,0.03597770983690112,0.01710422666954443,-0.04108068726881653,-0.000916297857297023,-37.138263665594856,-33.92282958199357,14.980999707687811
1700081065,0.9687150821508664,-0.23172084301732923,0.03597770983690112,0.01710422666954443,-0.04108068726881653,-0.000916297857297023,-37.97135340543701,-34.20052616194095,15.112540192926044
1700081065,0.9685931238124362,-0.23147692634046887,0.03536791814475025,0.0160352125026979,-0.040317105721069016,0.0004581489286485115,-38.01520023384975,-34.03975445776089,14.630225080385854
1700081065,0.9685931238124362,-0.23147692634046887,0.03536791814475025,0.0160352125026979,-0.040317105721069016,0.0004581489286485115,-38.19058754750073,-34.18591055247004,15.0686933645133
1700081065,0.9679833321202853,-0.23257455138634048,0.03500204312945973,0.015424347264499889,-0.04123340357836603,0.0013744467859455344,-37.85442852966969,-33.9520608009354,14.016369482607423
1700081065,0.9679833321202853,-0.23257455138634048,0.03500204312945973,0.015271630954950384,-0.04184426881656405,0.0013744467859455344,-37.75211926337329,-34.142063724057294,14.659456299327683
1700081065,0.9679833321202853,-0.2337941347706422,0.03536791814475025,0.015271630954950384,-0.04184426881656405,0.0013744467859455344,-37.44519146448407,-33.995907629348146,14.3817597193803
1700081065,0.9679833321202853,-0.2337941347706422,0.03536791814475025,0.01511891464540088,-0.04276056667386108,0.001069014166846527,-37.7667348728442,-33.63051739257527,14.294066062554808
1700081065,0.9672515820897043,-0.2337941347706422,0.03597770983690112,0.01511891464540088,-0.04276056667386108,0.001069014166846527,-37.7667348728442,-34.55130078924291,14.440222157263957
1700081065,0.9672515820897043,-0.23501371815494393,0.03597770983690112,0.014966198335851376,-0.0439822971502571,-0.0004581489286485115,-37.97135340543701,-33.9520608009354,14.264834843612977
1700081065,0.9672515820897043,-0.23501371815494393,0.03597770983690112,0.014966198335851376,-0.0439822971502571,-0.0004581489286485115,-37.29903536977492,-33.92282958199357,14.454837766734874
1700081065,0.9666417903975535,-0.23440392646279307,0.036587501529051984,0.014508049407202865,-0.045662176555301644,-0.002748893571891069,-37.54750073078048,-33.995907629348146,13.870213387898275
1700081065,0.9666417903975535,-0.23440392646279307,0.036587501529051984,0.014508049407202865,-0.045662176555301644,-0.002748893571891069,-37.313650979245836,-33.83513592516808,14.776381175095002
1700081065,0.9672515820897043,-0.23403805144750256,0.036587501529051984,0.014049900478554353,-0.04673119072214818,-0.005039638215133627,-37.97135340543701,-33.586670564162524,14.659456299327683
1700081065,0.9672515820897043,-0.23403805144750256,0.036587501529051984,0.014049900478554353,-0.04673119072214818,-0.005039638215133627,-37.79596609178603,-33.791289096755335,14.513300204618531
1700081065,0.9668857070744138,-0.23489175981651375,0.03622162651376147,0.014049900478554353,-0.048411070127192715,-0.00717766654882668,-38.322128032738966,-33.87898275358082,13.387898275358081
1700081065,0.9668857070744138,-0.23489175981651375,0.03622162651376147,0.014049900478554353,-0.048411070127192715,-0.00717766654882668,-38.02981584332067,-33.937445191464484,13.314820228003507
1700081065,0.967739415443425,-0.23391609310907233,0.0360996681753313,0.014813482026301871,-0.049785516913138254,-0.008857545953871221,-37.664425606547795,-34.06898567670272,13.870213387898275
1700081065,0.967739415443425,-0.23391609310907233,0.0360996681753313,0.014813482026301871,-0.049785516913138254,-0.008857545953871221,-37.78135048231511,-34.522069570301085,14.250219234142063
1700081065,0.9683492071355759,-0.2326965097247706,0.03524595980632008,0.014966198335851376,-0.05009094953223726,-0.009773843811168246,-37.664425606547795,-33.92282958199357,14.20637240572932
1700081065,0.9683492071355759,-0.2326965097247706,0.03524595980632008,0.014966198335851376,-0.05009094953223726,-0.009773843811168246,-37.82519731072786,-33.55743934522069,14.951768488745982
1700081065,0.9690809571661569,-0.23147692634046887,0.03414833476044852,0.015424347264499889,-0.05100724738953428,-0.010079276430267254,-37.489038292896815,-33.893598363051744,15.083308973984217
1700081065,0.9690809571661569,-0.23147692634046887,0.03414833476044852,0.015424347264499889,-0.050549098460885775,-0.009315694882519734,-37.92750657702426,-33.893598363051744,14.92253726980415
1700081065,0.9689589988277266,-0.2309890929867482,0.033782459745158,0.014813482026301871,-0.050549098460885775,-0.009315694882519734,-37.51826951183864,-33.762057877813504,14.118678748903829
1700081065,0.9689589988277266,-0.2309890929867482,0.033782459745158,0.01389718416900485,-0.050549098460885775,-0.007635815477475192,-37.942122186495176,-34.55130078924291,15.375621163402514
1700081065,0.9688370404892966,-0.23123300966360852,0.03341658472986748,0.01389718416900485,-0.050549098460885775,-0.007635815477475192,-37.72288804443145,-34.08360128617363,15.244080678164279
1700081065,0.9688370404892966,-0.23123300966360852,0.03366050140672783,0.013744467859455345,-0.04932736798448974,-0.006108652381980153,-37.459807073954984,-33.791289096755335,15.15638702133879
1700081065,0.9683492071355759,-0.23123300966360852,0.03366050140672783,0.013744467859455345,-0.04932736798448974,-0.006108652381980153,-37.64980999707688,-34.11283250511546,15.054077755042385
1700081065,0.9692029155045871,-0.23123300966360852,0.032806793037716615,0.014813482026301871,-0.048411070127192715,-0.005039638215133627,-37.92750657702426,-33.80590470622625,15.741011400175386
1700081065,0.9692029155045871,-0.23123300966360852,0.032806793037716615,0.014813482026301871,-0.048411070127192715,-0.005039638215133627,-38.42443729903537,-33.98129201987723,15.112540192926044
1700081065,0.9692029155045871,-0.2319647596941896,0.032684834699286444,0.015424347264499889,-0.047494772269895694,-0.004123340357836604,-38.161356328558895,-33.87898275358082,14.32329728149664
1700081065,0.9692029155045871,-0.2319647596941896,0.032684834699286444,0.015424347264499889,-0.047494772269895694,-0.004123340357836604,-38.117509500146156,-33.893598363051744,15.390236772873427
1700081065,0.9687150821508664,-0.23208671803261977,0.032928751376146786,0.0158824961931484,-0.04642575810304917,-0.0032070425005395805,-37.562116340251386,-33.9520608009354,14.907921660333237
1700081065,0.9687150821508664,-0.23208671803261977,0.032928751376146786,0.0158824961931484,-0.04642575810304917,-0.0032070425005395805,-37.79596609178603,-33.937445191464484,14.279450453083895
1700081065,0.9683492071355759,-0.2311110513251784,0.03402637642201835,0.016187928812247405,-0.04581489286485115,-0.0022907446432425577,-37.079801227711194,-33.791289096755335,15.98947676118094
1700081065,0.9683492071355759,-0.2311110513251784,0.03402637642201835,0.016187928812247405,-0.04581489286485115,-0.0022907446432425577,-37.72288804443145,-34.346682256650105,15.12715580239696
1700081065,0.9681052904587156,-0.23208671803261977,0.03439225143730886,0.01634064512179691,-0.045662176555301644,-0.0007635815477475192,-38.395206080093544,-33.995907629348146,14.3817597193803
1700081065,0.9681052904587156,-0.23208671803261977,0.03439225143730886,0.01634064512179691,-0.045662176555301644,-0.0007635815477475192,-38.00058462437884,-34.27360420929553,14.92253726980415
1700081065,0.9696907488583079,-0.23257455138634048,0.032562876360856266,0.01679879405044542,-0.04444044607890562,-0.0006108652381980154,-38.263665594855304,-33.849751534639,14.162525577316574
1700081065,0.9696907488583079,-0.23257455138634048,0.032562876360856266,0.01679879405044542,-0.04444044607890562,-0.0006108652381980154,-37.32826658871675,-33.762057877813504,14.498684595147617
1700081065,0.9694468321814476,-0.2309890929867482,0.032806793037716615,0.016951510359994926,-0.04306599929296008,-0.000916297857297023,-37.635194387605964,-33.52820812627886,13.826366559485532
1700081065,0.9694468321814476,-0.2309890929867482,0.032806793037716615,0.016951510359994926,-0.04306599929296008,-0.000916297857297023,-37.489038292896815,-33.77667348728442,13.7971353405437
1700081065,0.9690809571661569,-0.23123300966360852,0.03366050140672783,0.014202616788103856,-0.04108068726881653,-0.00015271630954950385,-38.21981876644256,-34.317451037708274,13.490207541654486
1700081065,0.9690809571661569,-0.23123300966360852,0.03366050140672783,0.012980886311707827,-0.03940080786377199,0.001069014166846527,-37.912890967553345,-34.30283542823736,14.235603624671148
1700081065,0.9692029155045871,-0.23172084301732923,0.032806793037716615,0.012980886311707827,-0.03940080786377199,0.001069014166846527,-37.32826658871675,-34.06898567670272,13.97252265419468
1700081065,0.9692029155045871,-0.23172084301732923,0.032806793037716615,0.01511891464540088,-0.038789942625573975,0.0012217304763960308,-37.70827243496054,-33.98129201987723,13.665594855305466
1700081065,0.9668857070744138,-0.23281846806320078,0.033782459745158,0.01511891464540088,-0.038789942625573975,0.0012217304763960308,-37.62057877813505,-34.20052616194095,13.70944168371821
1700081065,0.9684711654740061,-0.2331843430784913,0.03536791814475025,0.017256942979093935,-0.038942658935123484,0.0015271630954950383,-38.13212510961707,-33.995907629348146,14.542531423560362
1700081065,0.9684711654740061,-0.2331843430784913,0.03536791814475025,0.017256942979093935,-0.038942658935123484,0.0015271630954950383,-37.89827535808244,-33.87898275358082,14.586378251973105
1700081065,0.9687150821508664,-0.23342825975535167,0.03585575149847095,0.01634064512179691,-0.03924809155422248,0.000916297857297023,-38.292896813797135,-33.937445191464484,13.840982168956446
1700081065,0.9687150821508664,-0.23342825975535167,0.03585575149847095,0.01634064512179691,-0.03924809155422248,0.000916297857297023,-37.079801227711194,-34.03975445776089,13.782519731072787
1700081065,0.9668857070744138,-0.23416000978593274,0.03597770983690112,0.01389718416900485,-0.04108068726881653,-0.0006108652381980154,-37.635194387605964,-34.492838351359254,13.91406021631102
1700081065,0.9668857070744138,-0.23416000978593274,0.03597770983690112,0.01389718416900485,-0.04108068726881653,-0.0006108652381980154,-38.07366267173341,-33.9520608009354,13.899444606840106
1700081065,0.9667637487359836,-0.23574546818552497,0.03707533488277268,0.01313360262125733,-0.04214970143566306,-0.0024434609527920616,-37.37211341712949,-34.18591055247004,14.089447529962
1700081065,0.9667637487359836,-0.23574546818552497,0.03707533488277268,0.01389718416900485,-0.04413501345980661,-0.005039638215133627,-37.41596024554224,-34.03975445776089,14.133294358374746
1700081065,0.9676174571049948,-0.23525763483180426,0.036953376544342505,0.01389718416900485,-0.04413501345980661,-0.005039638215133627,-37.79596609178603,-33.67436422098802,14.410990938322128
1700081065,0.9676174571049948,-0.23525763483180426,0.036953376544342505,0.014966198335851376,-0.04596760917440065,-0.007483099167925688,-37.82519731072786,-34.03975445776089,14.191756796258403
1700081065,0.967739415443425,-0.2356235098470948,0.037563168236493374,0.014966198335851376,-0.04596760917440065,-0.007483099167925688,-37.72288804443145,-33.98129201987723,14.498684595147617
1700081065,0.9674954987665647,-0.2342819681243629,0.03634358485219164,0.0158824961931484,-0.048411070127192715,-0.009773843811168246,-37.5767319497223,-33.747442268342596,14.513300204618531
1700081065,0.9674954987665647,-0.2342819681243629,0.03634358485219164,0.0158824961931484,-0.048411070127192715,-0.009773843811168246,-37.24057293189126,-33.30897398421514,14.220988015200234
1700081065,0.967007665412844,-0.23306238474006113,0.03597770983690112,0.0158824961931484,-0.050243665841786765,-0.010537425358915765,-37.62057877813505,-33.83513592516808,14.367144109909383
1700081065,0.967007665412844,-0.23306238474006113,0.03597770983690112,0.0158824961931484,-0.050243665841786765,-0.010537425358915765,-37.737503653902365,-33.77667348728442,15.390236772873427
1700081065,0.9676174571049948,-0.23281846806320078,0.03463616811416921,0.015729779883598895,-0.05146539631818279,-0.01114829059711378,-37.386729026600406,-33.893598363051744,14.498684595147617
1700081065,0.9676174571049948,-0.23281846806320078,0.03463616811416921,0.015729779883598895,-0.05146539631818279,-0.01114829059711378,-37.70827243496054,-33.966676410406315,15.361005553931598
1700081065,0.9683492071355759,-0.2318428013557594,0.03366050140672783,0.015424347264499889,-0.05070181477043527,-0.010995574287564275,-37.50365390236773,-34.39052908506285,14.980999707687811
1700081065,0.9683492071355759,-0.2318428013557594,0.03366050140672783,0.015424347264499889,-0.05070181477043527,-0.010995574287564275,-37.06518561824028,-34.27360420929553,15.565624086524407
1700081065,0.9698127071967381,-0.2318428013557594,0.03414833476044852,0.015424347264499889,-0.050549098460885775,-0.010231992739816757,-37.7667348728442,-34.02513884828998,15.33177433498977
1700081065,0.9698127071967381,-0.2318428013557594,0.03414833476044852,0.015424347264499889,-0.050549098460885775,-0.010231992739816757,-37.85442852966969,-33.849751534639,14.907921660333237
1700081065,0.9694468321814476,-0.2305012596330275,0.03317266805300713,0.015729779883598895,-0.049632800603588746,-0.00916297857297023,-37.942122186495176,-33.90821397252265,14.557147033031278
1700081066,0.9694468321814476,-0.2305012596330275,0.03317266805300713,0.015729779883598895,-0.049632800603588746,-0.00916297857297023,-38.02981584332067,-34.142063724057294,14.893306050862321
1700081066,0.969934665535168,-0.23025734295616715,0.032075043007135574,0.015424347264499889,-0.047647488579445195,-0.00717766654882668,-37.883659748611514,-33.51359251680795,14.966384098216896
1700081066,0.969934665535168,-0.23025734295616715,0.032075043007135574,0.015424347264499889,-0.047647488579445195,-0.00717766654882668,-37.79596609178603,-33.995907629348146,15.30254311604794
1700081066,0.9692029155045871,-0.23123300966360852,0.03329462639143731,0.015729779883598895,-0.04673119072214818,-0.004886921905584123,-37.72288804443145,-33.71821104940076,18.67874890382929
1700081066,0.9692029155045871,-0.23123300966360852,0.03329462639143731,0.015729779883598895,-0.04673119072214818,-0.004886921905584123,-37.79596609178603,-34.03975445776089,15.21484945922245
1700081066,0.9695687905198777,-0.23074517630988783,0.03402637642201835,0.0160352125026979,-0.04505131131710363,-0.002748893571891069,-37.109032446653025,-33.9520608009354,15.21484945922245
1700081066,0.9695687905198777,-0.23074517630988783,0.03402637642201835,0.0160352125026979,-0.04505131131710363,-0.002748893571891069,-37.109032446653025,-33.966676410406315,14.513300204618531
1700081066,0.9690809571661569,-0.23074517630988783,0.03427029309887869,0.01511891464540088,-0.0439822971502571,-0.000916297857297023,-37.85442852966969,-34.317451037708274,15.799473838059047
1700081066,0.9690809571661569,-0.23074517630988783,0.03427029309887869,0.01511891464540088,-0.0439822971502571,-0.000916297857297023,-37.386729026600406,-33.64513300204619,14.995615317158725
1700081066,0.9694468321814476,-0.23172084301732923,0.03317266805300713,0.014202616788103856,-0.04321871560250958,0.0004581489286485115,-37.4744226834259,-33.48436129786612,14.3817597193803
1700081066,0.9694468321814476,-0.23172084301732923,0.03317266805300713,0.012828170002158322,-0.04230241774521256,0.000916297857297023,-37.26980415083309,-33.265127155802396,14.557147033031278
1700081066,0.9685931238124362,-0.23245259304791024,0.033782459745158,0.012828170002158322,-0.04230241774521256,0.000916297857297023,-37.24057293189126,-33.57205495469161,14.586378251973105
1700081066,0.9685931238124362,-0.23245259304791024,0.033782459745158,0.013439035240356337,-0.04138611988791554,0.000916297857297023,-37.693656825489626,-33.39666764104064,14.542531423560362
1700081066,0.9682272487971457,-0.2333063014169215,0.03488008479102956,0.013439035240356337,-0.04138611988791554,0.000916297857297023,-37.883659748611514,-33.30897398421514,14.104063139432915
1700081066,0.9682272487971457,-0.2333063014169215,0.03390441808358817,0.014966198335851376,-0.04184426881656405,0.00015271630954950385,-38.14674071908799,-33.192049108447826,15.200233849751536
1700081066,0.9685931238124362,-0.2333063014169215,0.03390441808358817,0.014966198335851376,-0.04184426881656405,0.00015271630954950385,-37.8690441391406,-33.67436422098802,15.33177433498977
1700081066,0.9685931238124362,-0.23342825975535167,0.03451420977573903,0.015271630954950384,-0.04153883619746504,-0.00015271630954950385,-37.79596609178603,-34.010523238819054,14.308681672025724
1700081066,0.9685931238124362,-0.23342825975535167,0.03451420977573903,0.015271630954950384,-0.04153883619746504,-0.00015271630954950385,-37.079801227711194,-34.215141771411865,15.200233849751536
1700081066,0.9678613737818552,-0.23342825975535167,0.0351240014678899,0.015424347264499889,-0.04245513405476207,-0.00198531202414355,-38.20520315697165,-33.92282958199357,14.820228003507745
1700081066,0.9678613737818552,-0.23342825975535167,0.0351240014678899,0.015424347264499889,-0.04245513405476207,-0.00198531202414355,-37.43057585501315,-33.864367144109906,15.434083601286176
1700081066,0.9678613737818552,-0.23355021809378185,0.0356118348216106,0.01435533309765336,-0.04291328298341058,-0.0033597588100890844,-37.489038292896815,-34.03975445776089,14.410990938322128
1700081066,0.9678613737818552,-0.23355021809378185,0.0356118348216106,0.01435533309765336,-0.04291328298341058,-0.0033597588100890844,-37.09441683718211,-34.25898859982461,14.966384098216896
1700081066,0.9673735404281345,-0.23355021809378185,0.03573379316004077,0.014049900478554353,-0.04352414822160859,-0.004123340357836604,-38.00058462437884,-33.849751534639,15.287927506577024
1700081066,0.9673735404281345,-0.23355021809378185,0.03573379316004077,0.014049900478554353,-0.04352414822160859,-0.004123340357836604,-37.459807073954984,-34.11283250511546,14.937152879275065
1700081066,0.9684711654740061,-0.23403805144750256,0.03548987648318043,0.015271630954950384,-0.04444044607890562,-0.005039638215133627,-37.35749780765858,-33.70359543992984,15.346389944460684
1700081066,0.9684711654740061,-0.23403805144750256,0.03548987648318043,0.015271630954950384,-0.04444044607890562,-0.005039638215133627,-37.70827243496054,-33.57205495469161,15.667933352820812
1700081066,0.9682272487971457,-0.23403805144750256,0.03634358485219164,0.01679879405044542,-0.04550946024575214,-0.005803219762881146,-37.22595732242034,-33.762057877813504,15.171002630809705
1700081066,0.9682272487971457,-0.23403805144750256,0.03634358485219164,0.01679879405044542,-0.04550946024575214,-0.005803219762881146,-37.50365390236773,-34.1566793335282,15.0686933645133
1700081066,0.967739415443425,-0.23294042640163096,0.03548987648318043,0.016187928812247405,-0.04642575810304917,-0.005955936072430649,-37.737503653902365,-33.73282665887167,15.141771411867873
1700081066,0.967739415443425,-0.23294042640163096,0.03548987648318043,0.015271630954950384,-0.047342055960346185,-0.006566801310628665,-38.02981584332067,-33.49897690733704,14.83484361297866
1700081066,0.9684711654740061,-0.23257455138634048,0.03536791814475025,0.015271630954950384,-0.047342055960346185,-0.006566801310628665,-38.01520023384975,-33.45513007892429,14.630225080385854
1700081066,0.9684711654740061,-0.23257455138634048,0.03475812645259938,0.013439035240356337,-0.047189339650796684,-0.006261368691529657,-37.72288804443145,-34.20052616194095,14.849459222449577
1700081066,0.9685931238124362,-0.23257455138634048,0.03475812645259938,0.013439035240356337,-0.047189339650796684,-0.006261368691529657,-37.109032446653025,-33.864367144109906,14.352528500438469
1700081066,0.9683492071355759,-0.23257455138634048,0.03500204312945973,0.013439035240356337,-0.047189339650796684,-0.006414085001079161,-37.182110494007595,-33.55743934522069,14.425606547793043
1700081066,0.9683492071355759,-0.23257455138634048,0.03500204312945973,0.013439035240356337,-0.047189339650796684,-0.006414085001079161,-37.532885121309555,-34.010523238819054,15.361005553931598
1700081066,0.9684711654740061,-0.23306238474006113,0.03475812645259938,0.015271630954950384,-0.04810563750809371,-0.006414085001079161,-37.70827243496054,-33.9520608009354,14.469453376205788
1700081066,0.9684711654740061,-0.23306238474006113,0.03475812645259938,0.015271630954950384,-0.04810563750809371,-0.006414085001079161,-37.839812920198774,-34.66822566501023,14.557147033031278
1700081066,0.9692029155045871,-0.23233063470948012,0.03427029309887869,0.016493361431346415,-0.047494772269895694,-0.005955936072430649,-37.54750073078048,-34.11283250511546,14.805612394036832
1700081066,0.9692029155045871,-0.23233063470948012,0.03427029309887869,0.016493361431346415,-0.047494772269895694,-0.005955936072430649,-37.75211926337329,-33.80590470622625,14.425606547793043
1700081066,0.9682272487971457,-0.23159888467889905,0.03329462639143731,0.01634064512179691,-0.046883907031697675,-0.005650503453331642,-37.532885121309555,-34.02513884828998,14.527915814089448
1700081066,0.9682272487971457,-0.23159888467889905,0.03329462639143731,0.01634064512179691,-0.046883907031697675,-0.005650503453331642,-37.54750073078048,-34.03975445776089,14.586378251973105
1700081066,0.9688370404892966,-0.2313549680020387,0.03414833476044852,0.01511891464540088,-0.04581489286485115,-0.005803219762881146,-37.5767319497223,-33.73282665887167,14.557147033031278
1700081066,0.9688370404892966,-0.2313549680020387,0.03414833476044852,0.01511891464540088,-0.04581489286485115,-0.005803219762881146,-37.664425606547795,-33.71821104940076,14.83484361297866
1700081066,0.9690809571661569,-0.2311110513251784,0.03390441808358817,0.013286318930806833,-0.04459316238845512,-0.004428772976935611,-37.4744226834259,-33.77667348728442,14.776381175095002
1700081066,0.9690809571661569,-0.2311110513251784,0.03390441808358817,0.013286318930806833,-0.04459316238845512,-0.004428772976935611,-37.32826658871675,-33.83513592516808,15.434083601286176
1700081066,0.9681052904587156,-0.23220867637104994,0.03305070971457696,0.013591751549905842,-0.04474587869800463,-0.002596177262341565,-37.5767319497223,-33.83513592516808,14.484068985676704
1700081066,0.9681052904587156,-0.23220867637104994,0.03305070971457696,0.013591751549905842,-0.04474587869800463,-0.002596177262341565,-37.67904121601871,-34.1566793335282,15.21484945922245
1700081066,0.9692029155045871,-0.23233063470948012,0.032928751376146786,0.01557706357404939,-0.0438295808407076,-0.001832595714594046,-37.4744226834259,-34.317451037708274,14.951768488745982
1700081066,0.9692029155045871,-0.23233063470948012,0.032928751376146786,0.015271630954950384,-0.04276056667386108,-0.001832595714594046,-37.75211926337329,-34.02513884828998,14.995615317158725
1700081066,0.9687150821508664,-0.23208671803261977,0.03329462639143731,0.015271630954950384,-0.04276056667386108,-0.001832595714594046,-37.182110494007595,-34.18591055247004,15.171002630809705
1700081066,0.9687150821508664,-0.23208671803261977,0.03329462639143731,0.014813482026301871,-0.04123340357836603,-0.001832595714594046,-37.24057293189126,-34.18591055247004,14.396375328851214
1700081066,0.9682272487971457,-0.2333063014169215,0.03317266805300713,0.014813482026301871,-0.04123340357836603,-0.001832595714594046,-37.562116340251386,-34.12744811458638,14.498684595147617
1700081066,0.9689589988277266,-0.23306238474006113,0.03439225143730886,0.014966198335851376,-0.0398589567924205,-0.0022907446432425577,-37.7667348728442,-34.244372990353696,15.171002630809705
1700081066,0.9689589988277266,-0.23306238474006113,0.03439225143730886,0.014966198335851376,-0.0398589567924205,-0.0022907446432425577,-38.02981584332067,-34.27360420929553,15.09792458345513
1700081066,0.9695687905198777,-0.2333063014169215,0.032928751376146786,0.0158824961931484,-0.03924809155422248,-0.0030543261909900766,-37.883659748611514,-33.995907629348146,14.484068985676704
1700081066,0.9695687905198777,-0.2333063014169215,0.032928751376146786,0.0158824961931484,-0.03924809155422248,-0.0030543261909900766,-38.02981584332067,-34.215141771411865,14.600993861444023
1700081066,0.9692029155045871,-0.23025734295616715,0.03341658472986748,0.01511891464540088,-0.037262779530078935,-0.0032070425005395805,-37.7667348728442,-34.317451037708274,15.81408944752996
1700081066,0.9692029155045871,-0.23025734295616715,0.03341658472986748,0.01511891464540088,-0.037262779530078935,-0.0032070425005395805,-37.912890967553345,-33.90821397252265,14.615609470914936
1700081066,0.9688370404892966,-0.23281846806320078,0.03475812645259938,0.012370021073509811,-0.035735616434583894,-0.002596177262341565,-38.19058754750073,-33.849751534639,15.112540192926044
1700081066,0.9688370404892966,-0.23281846806320078,0.03475812645259938,0.012370021073509811,-0.035735616434583894,-0.002596177262341565,-37.92750657702426,-34.171294942999126,15.799473838059047
1700081066,0.967739415443425,-0.23464784313965342,0.03536791814475025,0.013744467859455345,-0.035735616434583894,-0.00198531202414355,-38.292896813797135,-34.28821981876644,14.250219234142063
1700081066,0.967739415443425,-0.23464784313965342,0.03536791814475025,0.013744467859455345,-0.035735616434583894,-0.00198531202414355,-37.98596901490792,-33.762057877813504,14.732534346682257
1700081066,0.9667637487359836,-0.23464784313965342,0.037685126574923546,0.01832595714594046,-0.038637226316024474,-0.002138028333693054,-38.01520023384975,-34.30283542823736,14.089447529962
1700081066,0.9667637487359836,-0.23464784313965342,0.037685126574923546,0.01832595714594046,-0.038637226316024474,-0.002138028333693054,-37.313650979245836,-34.171294942999126,14.060216311020168
1700081066,0.9661539570438327,-0.23306238474006113,0.03963645998980632,0.019394971312786988,-0.04199698512611356,-0.002596177262341565,-37.95673779596609,-33.791289096755335,14.074831920491086
1700081066,0.9661539570438327,-0.23306238474006113,0.03963645998980632,0.019394971312786988,-0.04199698512611356,-0.002596177262341565,-37.737503653902365,-33.90821397252265,14.264834843612977
1700081066,0.9662759153822629,-0.23440392646279307,0.03878275162079511,0.016646077740895916,-0.045662176555301644,-0.004581489286485115,-37.54750073078048,-33.820520315697166,14.878690441391406
1700081066,0.9662759153822629,-0.23440392646279307,0.03878275162079511,0.016646077740895916,-0.045662176555301644,-0.004581489286485115,-37.664425606547795,-34.03975445776089,14.966384098216896
1700081066,0.967007665412844,-0.23452588480122322,0.038294918267074415,0.013439035240356337,-0.049632800603588746,-0.006414085001079161,-37.8690441391406,-34.317451037708274,15.536392867582578
1700081066,0.967007665412844,-0.23452588480122322,0.038294918267074415,0.013439035240356337,-0.049632800603588746,-0.006414085001079161,-37.25518854136218,-34.361297866121014,15.258696287635196
1700081066,0.9676174571049948,-0.23464784313965342,0.037319251559633025,0.013286318930806833,-0.0517708289372818,-0.0079412480965742,-37.98596901490792,-34.25898859982461,15.229465068693365
1700081066,0.9676174571049948,-0.23464784313965342,0.037319251559633025,0.013286318930806833,-0.0517708289372818,-0.0079412480965742,-38.117509500146156,-34.06898567670272,15.404852382344345
1700081066,0.9683492071355759,-0.23355021809378185,0.03390441808358817,0.01435533309765336,-0.05314527572322733,-0.01038470904936626,-37.635194387605964,-33.71821104940076,14.937152879275065
1700081066,0.9683492071355759,-0.23355021809378185,0.03390441808358817,0.01435533309765336,-0.05314527572322733,-0.01038470904936626,-38.05904706226249,-34.06898567670272,15.419467991815258
1700081066,0.9696907488583079,-0.23245259304791024,0.032684834699286444,0.014966198335851376,-0.052228977865930316,-0.011301006906663283,-37.8690441391406,-34.02513884828998,14.615609470914936
1700081066,0.9696907488583079,-0.23245259304791024,0.032684834699286444,0.014966198335851376,-0.052228977865930316,-0.011301006906663283,-37.89827535808244,-34.28821981876644,15.477930429698919
1700081066,0.9703005405504586,-0.23025734295616715,0.03109937629969419,0.015271630954950384,-0.04932736798448974,-0.01114829059711378,-38.02981584332067,-33.820520315697166,15.054077755042385
1700081066,0.9703005405504586,-0.23025734295616715,0.03109937629969419,0.014813482026301871,-0.04657847441259867,-0.00916297857297023,-37.44519146448407,-33.820520315697166,11.80941245249927
1700081066,0.9696907488583079,-0.22989146794087664,0.032197001345565746,0.014813482026301871,-0.04657847441259867,-0.00916297857297023,-37.89827535808244,-34.09821689564455,15.887167494884535
1700081066,0.9696907488583079,-0.22989146794087664,0.032197001345565746,0.014966198335851376,-0.0439822971502571,-0.005497787143782138,-37.942122186495176,-33.49897690733704,14.557147033031278
1700081066,0.9687150821508664,-0.23123300966360852,0.032562876360856266,0.017256942979093935,-0.04230241774521256,-0.0033597588100890844,-38.088278281204325,-33.70359543992984,15.30254311604794
1700081066,0.9695687905198777,-0.23123300966360852,0.03341658472986748,0.017256942979093935,-0.04230241774521256,-0.0033597588100890844,-38.05904706226249,-33.83513592516808,15.024846536100556
1700081066,0.9695687905198777,-0.23123300966360852,0.03341658472986748,0.01756237559819294,-0.04077525464971753,-0.0016798794050445422,-37.664425606547795,-33.73282665887167,15.15638702133879
1700081066,0.9695687905198777,-0.23074517630988783,0.03524595980632008,0.01756237559819294,-0.04077525464971753,-0.0016798794050445422,-37.839812920198774,-33.57205495469161,15.945629932768195
1700081066,0.9695687905198777,-0.23074517630988783,0.03524595980632008,0.01435533309765336,-0.04046982203061852,-0.0006108652381980154,-37.64980999707688,-33.659748611517095,14.83484361297866
1700081066,0.9688370404892966,-0.2318428013557594,0.0351240014678899,0.01435533309765336,-0.04046982203061852,-0.0006108652381980154,-38.05904706226249,-33.98129201987723,15.375621163402514
1700081066,0.967739415443425,-0.23281846806320078,0.03634358485219164,0.012217304763960306,-0.04046982203061852,-0.0004581489286485115,-38.468284127448115,-34.18591055247004,15.33177433498977
1700081066,0.967739415443425,-0.23281846806320078,0.03634358485219164,0.012217304763960306,-0.04046982203061852,-0.0004581489286485115,-38.14674071908799,-33.864367144109906,15.30254311604794
1700081066,0.9671296237512741,-0.2333063014169215,0.0356118348216106,0.01313360262125733,-0.04153883619746504,-0.000916297857297023,-37.64980999707688,-33.542823735749785,14.717918737211342
1700081066,0.9671296237512741,-0.2333063014169215,0.0356118348216106,0.01313360262125733,-0.04153883619746504,-0.000916297857297023,-37.5767319497223,-33.51359251680795,15.434083601286176
1700081066,0.9679833321202853,-0.23403805144750256,0.036831418205912334,0.014813482026301871,-0.04184426881656405,-0.0007635815477475192,-37.562116340251386,-33.87898275358082,15.375621163402514
1700081066,0.9679833321202853,-0.23403805144750256,0.036831418205912334,0.014813482026301871,-0.04184426881656405,-0.0007635815477475192,-37.54750073078048,-34.0543700672318,15.03946214557147
1700081066,0.9673735404281345,-0.23391609310907233,0.036587501529051984,0.0160352125026979,-0.04321871560250958,-0.0013744467859455344,-37.62057877813505,-33.48436129786612,15.361005553931598
1700081066,0.9673735404281345,-0.23391609310907233,0.036587501529051984,0.0160352125026979,-0.04321871560250958,-0.0013744467859455344,-37.693656825489626,-34.09821689564455,15.682548962291728
1700081066,0.9676174571049948,-0.23294042640163096,0.03670945986748216,0.015424347264499889,-0.0438295808407076,-0.001832595714594046,-37.664425606547795,-33.820520315697166,15.30254311604794
1700081066,0.9676174571049948,-0.23294042640163096,0.03670945986748216,0.015424347264499889,-0.0438295808407076,-0.001832595714594046,-37.386729026600406,-34.11283250511546,15.258696287635196
1700081067,0.9671296237512741,-0.23355021809378185,0.037197293221202854,0.01435533309765336,-0.04505131131710363,-0.002901609881440573,-37.79596609178603,-34.02513884828998,15.171002630809705
1700081067,0.9671296237512741,-0.23355021809378185,0.037197293221202854,0.01435533309765336,-0.04505131131710363,-0.002901609881440573,-37.59134755919322,-34.27360420929553,14.586378251973105
1700081067,0.9678613737818552,-0.23403805144750256,0.03622162651376147,0.01389718416900485,-0.04627304179349966,-0.004123340357836604,-37.839812920198774,-33.57205495469161,15.21484945922245
1700081067,0.9678613737818552,-0.23403805144750256,0.03622162651376147,0.01389718416900485,-0.04627304179349966,-0.004123340357836604,-37.64980999707688,-33.46974568839521,14.907921660333237
1700081067,0.9687150821508664,-0.23355021809378185,0.03585575149847095,0.014966198335851376,-0.047952921198544204,-0.005039638215133627,-37.532885121309555,-33.762057877813504,14.83484361297866
1700081067,0.9687150821508664,-0.23355021809378185,0.03585575149847095,0.014966198335851376,-0.047952921198544204,-0.005039638215133627,-37.95673779596609,-33.46974568839521,14.3817597193803
1700081067,0.9682272487971457,-0.23233063470948012,0.03548987648318043,0.016493361431346415,-0.04932736798448974,-0.005345070834232635,-37.67904121601871,-33.820520315697166,14.893306050862321
1700081067,0.9682272487971457,-0.23233063470948012,0.03548987648318043,0.016493361431346415,-0.04932736798448974,-0.005345070834232635,-37.44519146448407,-33.937445191464484,13.928675825781935
1700081067,0.9673735404281345,-0.2326965097247706,0.03427029309887869,0.016187928812247405,-0.04871650274629172,-0.005650503453331642,-37.59134755919322,-33.60128617363344,14.571762642502192
1700081067,0.9673735404281345,-0.2326965097247706,0.03427029309887869,0.016187928812247405,-0.04871650274629172,-0.005650503453331642,-37.29903536977492,-33.995907629348146,14.703303127740428
1700081067,0.9685931238124362,-0.23245259304791024,0.03439225143730886,0.015271630954950384,-0.048258353817643214,-0.005955936072430649,-38.01520023384975,-33.68897983045893,14.264834843612977
1700081067,0.9685931238124362,-0.23245259304791024,0.03439225143730886,0.015271630954950384,-0.048258353817643214,-0.005955936072430649,-37.34288219818767,-34.171294942999126,14.674071908798597
1700081067,0.9690809571661569,-0.23257455138634048,0.03402637642201835,0.01557706357404939,-0.047189339650796684,-0.005497787143782138,-37.05057000876937,-33.87898275358082,14.104063139432915
1700081067,0.9690809571661569,-0.23257455138634048,0.03402637642201835,0.01557706357404939,-0.047189339650796684,-0.005497787143782138,-37.50365390236773,-33.80590470622625,14.878690441391406
1700081067,0.9687150821508664,-0.23208671803261977,0.03475812645259938,0.01634064512179691,-0.047647488579445195,-0.006261368691529657,-37.15287927506577,-33.995907629348146,14.162525577316574
1700081067,0.9687150821508664,-0.23208671803261977,0.03475812645259938,0.01634064512179691,-0.047647488579445195,-0.006261368691529657,-37.09441683718211,-33.83513592516808,13.534054370067231
1700081067,0.967739415443425,-0.2318428013557594,0.03463616811416921,0.016646077740895916,-0.047189339650796684,-0.005345070834232635,-37.839812920198774,-33.77667348728442,14.527915814089448
1700081067,0.9685931238124362,-0.2318428013557594,0.03488008479102956,0.0158824961931484,-0.046883907031697675,-0.004276056667386108,-38.19058754750073,-34.361297866121014,14.878690441391406
1700081067,0.9685931238124362,-0.2318428013557594,0.03488008479102956,0.0158824961931484,-0.046883907031697675,-0.004276056667386108,-37.562116340251386,-33.42589885998246,14.396375328851214
1700081067,0.967739415443425,-0.2333063014169215,0.03488008479102956,0.014966198335851376,-0.047036623341247176,-0.004123340357836604,-37.79596609178603,-34.010523238819054,13.7971353405437
1700081067,0.967739415443425,-0.2333063014169215,0.03488008479102956,0.014966198335851376,-0.047036623341247176,-0.004123340357836604,-37.489038292896815,-33.849751534639,14.747149956153171
1700081067,0.9679833321202853,-0.23294042640163096,0.03463616811416921,0.01389718416900485,-0.047342055960346185,-0.004886921905584123,-37.78135048231511,-34.142063724057294,14.542531423560362
1700081067,0.9679833321202853,-0.23294042640163096,0.03463616811416921,0.01389718416900485,-0.047342055960346185,-0.004886921905584123,-37.78135048231511,-33.68897983045893,14.498684595147617
1700081067,0.9683492071355759,-0.23342825975535167,0.03402637642201835,0.013286318930806833,-0.04657847441259867,-0.005650503453331642,-37.92750657702426,-33.42589885998246,14.469453376205788
1700081067,0.9683492071355759,-0.23342825975535167,0.03402637642201835,0.013286318930806833,-0.04657847441259867,-0.005650503453331642,-37.532885121309555,-33.52820812627886,13.548669979538147
1700081067,0.9692029155045871,-0.23257455138634048,0.0351240014678899,0.014049900478554353,-0.047189339650796684,-0.005650503453331642,-37.489038292896815,-34.010523238819054,14.118678748903829
1700081067,0.9692029155045871,-0.23257455138634048,0.0351240014678899,0.014049900478554353,-0.047189339650796684,-0.005650503453331642,-37.489038292896815,-34.12744811458638,14.03098509207834
1700081067,0.9678613737818552,-0.23294042640163096,0.03402637642201835,0.015729779883598895,-0.04673119072214818,-0.00519235452468313,-37.79596609178603,-34.18591055247004,14.586378251973105
1700081067,0.9678613737818552,-0.23294042640163096,0.03402637642201835,0.015729779883598895,-0.04673119072214818,-0.00519235452468313,-37.32826658871675,-34.02513884828998,13.855597778427361
1700081067,0.9685931238124362,-0.23233063470948012,0.032440918022426095,0.016951510359994926,-0.04550946024575214,-0.004886921905584123,-37.82519731072786,-34.43437591347559,13.899444606840106
1700081067,0.9685931238124362,-0.23233063470948012,0.032440918022426095,0.016951510359994926,-0.04550946024575214,-0.004886921905584123,-37.95673779596609,-34.46360713241742,13.270973399590764
1700081067,0.9693248738430171,-0.23086713464831804,0.032197001345565746,0.017715091907742442,-0.04428772976935611,-0.005345070834232635,-37.59134755919322,-34.39052908506285,13.124817304881613
1700081067,0.9693248738430171,-0.23086713464831804,0.032197001345565746,0.017715091907742442,-0.04428772976935611,-0.005345070834232635,-38.044431452791585,-34.43437591347559,13.91406021631102
1700081067,0.9696907488583079,-0.2305012596330275,0.03402637642201835,0.015271630954950384,-0.04245513405476207,-0.004276056667386108,-38.117509500146156,-34.1566793335282,14.162525577316574
1700081067,0.9696907488583079,-0.2305012596330275,0.03402637642201835,0.015271630954950384,-0.04245513405476207,-0.004276056667386108,-38.01520023384975,-34.28821981876644,14.68868751826951
1700081067,0.9696907488583079,-0.23281846806320078,0.03488008479102956,0.013744467859455345,-0.040622538340168025,-0.0030543261909900766,-37.839812920198774,-34.28821981876644,13.753288512130958
1700081067,0.9696907488583079,-0.23281846806320078,0.03488008479102956,0.013744467859455345,-0.040622538340168025,-0.0030543261909900766,-38.00058462437884,-34.18591055247004,14.308681672025724
1700081067,0.9671296237512741,-0.2331843430784913,0.03439225143730886,0.0160352125026979,-0.04016438941151951,-0.0016798794050445422,-37.32826658871675,-34.536685179772,13.7971353405437
1700081067,0.9671296237512741,-0.2331843430784913,0.03439225143730886,0.0160352125026979,-0.04016438941151951,-0.0016798794050445422,-37.59134755919322,-33.71821104940076,14.995615317158725
1700081067,0.9671296237512741,-0.23257455138634048,0.03622162651376147,0.019089538693687978,-0.04077525464971753,-0.0004581489286485115,-38.365974861151706,-34.06898567670272,14.250219234142063
1700081067,0.9671296237512741,-0.23257455138634048,0.03622162651376147,0.018478673455489966,-0.04169155250701455,-0.0006108652381980154,-37.89827535808244,-34.28821981876644,14.337912890967552
1700081067,0.9679833321202853,-0.23159888467889905,0.03597770983690112,0.018478673455489966,-0.04169155250701455,-0.0006108652381980154,-38.117509500146156,-34.30283542823736,14.352528500438469
1700081067,0.9679833321202853,-0.23159888467889905,0.03597770983690112,0.01435533309765336,-0.04321871560250958,-0.001069014166846527,-38.19058754750073,-34.010523238819054,14.454837766734874
1700081067,0.967007665412844,-0.23294042640163096,0.037319251559633025,0.01435533309765336,-0.04321871560250958,-0.001069014166846527,-38.33674364220988,-34.03975445776089,14.016369482607423
1700081067,0.967007665412844,-0.23294042640163096,0.03670945986748216,0.013591751549905842,-0.04520402762665313,-0.0015271630954950383,-37.693656825489626,-34.27360420929553,13.811750950014615
1700081067,0.9674954987665647,-0.2342819681243629,0.03670945986748216,0.013591751549905842,-0.04520402762665313,-0.0015271630954950383,-37.182110494007595,-34.44899152294651,14.308681672025724
1700081067,0.9667637487359836,-0.23464784313965342,0.03622162651376147,0.014813482026301871,-0.047647488579445195,-0.0030543261909900766,-37.8690441391406,-34.30283542823736,13.7971353405437
1700081067,0.9667637487359836,-0.23464784313965342,0.03622162651376147,0.014813482026301871,-0.047647488579445195,-0.0030543261909900766,-38.263665594855304,-34.317451037708274,14.03098509207834
1700081067,0.9682272487971457,-0.23391609310907233,0.03536791814475025,0.015424347264499889,-0.04871650274629172,-0.004734205596034618,-37.942122186495176,-33.995907629348146,14.513300204618531
1700081067,0.9682272487971457,-0.23391609310907233,0.03536791814475025,0.015424347264499889,-0.04871650274629172,-0.004734205596034618,-38.21981876644256,-34.171294942999126,13.402513884828998
1700081067,0.9693248738430171,-0.23257455138634048,0.03500204312945973,0.014966198335851376,-0.04871650274629172,-0.006108652381980153,-37.75211926337329,-33.192049108447826,14.849459222449577
1700081067,0.9693248738430171,-0.23257455138634048,0.03500204312945973,0.014966198335851376,-0.04871650274629172,-0.006108652381980153,-38.395206080093544,-33.849751534639,14.542531423560362
1700081067,0.9679833321202853,-0.23233063470948012,0.032684834699286444,0.01435533309765336,-0.047494772269895694,-0.006872233929727673,-38.07366267173341,-33.747442268342596,14.352528500438469
1700081067,0.9679833321202853,-0.23233063470948012,0.032684834699286444,0.01435533309765336,-0.047494772269895694,-0.006872233929727673,-37.50365390236773,-34.22975738088278,14.308681672025724
1700081067,0.9689589988277266,-0.23245259304791024,0.03231895968399592,0.014049900478554353,-0.04612032548395016,-0.006719517620178169,-38.395206080093544,-34.22975738088278,13.504823151125404
1700081067,0.9689589988277266,-0.23245259304791024,0.03231895968399592,0.014049900478554353,-0.04612032548395016,-0.006719517620178169,-37.942122186495176,-34.20052616194095,13.534054370067231
1700081067,0.9694468321814476,-0.23257455138634048,0.03073350128440367,0.015271630954950384,-0.04321871560250958,-0.006566801310628665,-37.82519731072786,-34.02513884828998,14.00175387313651
1700081067,0.9694468321814476,-0.23257455138634048,0.03073350128440367,0.015271630954950384,-0.04321871560250958,-0.006566801310628665,-37.67904121601871,-33.849751534639,14.542531423560362
1700081067,0.9693248738430171,-0.2313549680020387,0.032928751376146786,0.017409659288643436,-0.04077525464971753,-0.005345070834232635,-37.51826951183864,-33.70359543992984,14.615609470914936
1700081067,0.9693248738430171,-0.2313549680020387,0.032928751376146786,0.017409659288643436,-0.04077525464971753,-0.005345070834232635,-38.439052908506284,-33.83513592516808,13.02250803858521
1700081067,0.9694468321814476,-0.23074517630988783,0.03463616811416921,0.018631389765039467,-0.038637226316024474,-0.0035124751196385882,-37.44519146448407,-34.171294942999126,13.475591932183573
1700081067,0.9694468321814476,-0.23074517630988783,0.03463616811416921,0.018631389765039467,-0.038637226316024474,-0.0035124751196385882,-37.7667348728442,-34.33206664717919,14.498684595147617
1700081067,0.9689589988277266,-0.2309890929867482,0.0356118348216106,0.018173240836390957,-0.03787364476827695,-0.0015271630954950383,-37.635194387605964,-34.010523238819054,14.03098509207834
1700081067,0.9689589988277266,-0.2309890929867482,0.0356118348216106,0.018173240836390957,-0.03787364476827695,-0.0015271630954950383,-38.02981584332067,-33.995907629348146,14.17714118678749
1700081067,0.9676174571049948,-0.23233063470948012,0.03634358485219164,0.016951510359994926,-0.038331793696925465,-0.0007635815477475192,-37.635194387605964,-33.995907629348146,14.250219234142063
1700081067,0.9676174571049948,-0.23233063470948012,0.03634358485219164,0.016951510359994926,-0.039095375244672985,0.0003054326190990077,-37.32826658871675,-33.849751534639,13.7971353405437
1700081067,0.967007665412844,-0.23281846806320078,0.037197293221202854,0.015729779883598895,-0.039095375244672985,0.0003054326190990077,-37.44519146448407,-33.864367144109906,13.76790412160187
1700081067,0.967007665412844,-0.23281846806320078,0.037197293221202854,0.014508049407202865,-0.04230241774521256,0.0004581489286485115,-38.27828120432622,-33.83513592516808,13.97252265419468
1700081067,0.9674954987665647,-0.23281846806320078,0.0374412098980632,0.014508049407202865,-0.04230241774521256,0.0004581489286485115,-38.33674364220988,-33.73282665887167,14.250219234142063
1700081067,0.9674954987665647,-0.23281846806320078,0.0374412098980632,0.01435533309765336,-0.04550946024575214,0.00015271630954950385,-38.643671441099094,-33.42589885998246,13.183279742765272
1700081067,0.9667637487359836,-0.23416000978593274,0.037319251559633025,0.01435533309765336,-0.04550946024575214,0.00015271630954950385,-38.40982168956445,-33.820520315697166,13.7971353405437
1700081067,0.9673735404281345,-0.23367217643221203,0.03646554319062181,0.01389718416900485,-0.048411070127192715,-0.000916297857297023,-38.07366267173341,-34.346682256650105,13.76790412160187
1700081067,0.9673735404281345,-0.23367217643221203,0.03646554319062181,0.01389718416900485,-0.048411070127192715,-0.000916297857297023,-38.10289389067524,-33.849751534639,14.133294358374746
1700081067,0.9671296237512741,-0.23513567649337408,0.0360996681753313,0.012828170002158322,-0.049938233222687756,-0.002901609881440573,-37.92750657702426,-33.820520315697166,14.498684595147617
1700081067,0.9671296237512741,-0.23513567649337408,0.0360996681753313,0.012828170002158322,-0.049938233222687756,-0.002901609881440573,-37.40134463607133,-34.43437591347559,14.732534346682257
1700081067,0.9678613737818552,-0.2342819681243629,0.036587501529051984,0.01313360262125733,-0.05100724738953428,-0.005497787143782138,-38.044431452791585,-34.27360420929553,15.171002630809705
1700081067,0.9678613737818552,-0.2342819681243629,0.036587501529051984,0.01313360262125733,-0.05100724738953428,-0.005497787143782138,-38.07366267173341,-34.22975738088278,14.571762642502192
1700081067,0.9687150821508664,-0.23452588480122322,0.0360996681753313,0.014660765716752368,-0.05253441048502932,-0.007330382858376184,-38.17597193802982,-34.346682256650105,14.542531423560362
1700081067,0.9687150821508664,-0.23452588480122322,0.0360996681753313,0.014660765716752368,-0.05253441048502932,-0.007330382858376184,-37.7667348728442,-33.791289096755335,14.191756796258403
1700081067,0.9679833321202853,-0.23306238474006113,0.03475812645259938,0.01557706357404939,-0.05238169417547982,-0.009010262263420726,-37.78135048231511,-34.60976322712657,14.220988015200234
1700081067,0.9679833321202853,-0.23306238474006113,0.03475812645259938,0.01557706357404939,-0.05238169417547982,-0.009010262263420726,-37.32826658871675,-33.77667348728442,14.557147033031278
1700081067,0.9692029155045871,-0.23233063470948012,0.03439225143730886,0.015271630954950384,-0.05115996369908379,-0.010537425358915765,-37.75211926337329,-34.010523238819054,14.761765565624085
1700081067,0.9692029155045871,-0.23233063470948012,0.03439225143730886,0.015271630954950384,-0.05115996369908379,-0.010537425358915765,-37.09441683718211,-34.27360420929553,14.820228003507745
1700081067,0.9693248738430171,-0.23233063470948012,0.03317266805300713,0.015424347264499889,-0.050396382151336266,-0.011606439525762293,-37.51826951183864,-33.9520608009354,14.089447529962
1700081067,0.9693248738430171,-0.23233063470948012,0.03317266805300713,0.015424347264499889,-0.050396382151336266,-0.011606439525762293,-37.85442852966969,-34.02513884828998,14.674071908798597
1700081067,0.9683492071355759,-0.23245259304791024,0.03231895968399592,0.015424347264499889,-0.04902193536539073,-0.011759155835311794,-38.01520023384975,-34.28821981876644,15.15638702133879
1700081067,0.9683492071355759,-0.23245259304791024,0.03231895968399592,0.015424347264499889,-0.04902193536539073,-0.011759155835311794,-38.161356328558895,-33.937445191464484,13.577901198479978
1700081067,0.9689589988277266,-0.2309890929867482,0.03317266805300713,0.01557706357404939,-0.0478002048889947,-0.010995574287564275,-38.395206080093544,-34.06898567670272,13.607132417421807
1700081067,0.9689589988277266,-0.2309890929867482,0.03317266805300713,0.01557706357404939,-0.047036623341247176,-0.00992656012071775,-37.5767319497223,-34.02513884828998,13.870213387898275
1700081067,0.9684711654740061,-0.23062321797145768,0.03475812645259938,0.0160352125026979,-0.047036623341247176,-0.00992656012071775,-38.088278281204325,-33.80590470622625,15.171002630809705
1700081067,0.9684711654740061,-0.23062321797145768,0.03475812645259938,0.0158824961931484,-0.04612032548395016,-0.008857545953871221,-37.693656825489626,-33.90821397252265,14.557147033031278
1700081067,0.9694468321814476,-0.23123300966360852,0.03390441808358817,0.0158824961931484,-0.04612032548395016,-0.008857545953871221,-37.459807073954984,-33.73282665887167,14.761765565624085
1700081067,0.9694468321814476,-0.23123300966360852,0.03390441808358817,0.015424347264499889,-0.04642575810304917,-0.007788531787024695,-37.386729026600406,-33.71821104940076,14.118678748903829
1700081067,0.9689589988277266,-0.2309890929867482,0.033782459745158,0.015424347264499889,-0.04642575810304917,-0.007788531787024695,-37.912890967553345,-34.46360713241742,14.980999707687811
1700081067,0.9689589988277266,-0.2309890929867482,0.03305070971457696,0.013744467859455345,-0.04596760917440065,-0.00717766654882668,-37.562116340251386,-34.09821689564455,14.68868751826951
1700081067,0.9696907488583079,-0.2311110513251784,0.03305070971457696,0.013744467859455345,-0.04596760917440065,-0.00717766654882668,-37.37211341712949,-33.995907629348146,14.03098509207834
1700081067,0.9694468321814476,-0.23147692634046887,0.032075043007135574,0.01313360262125733,-0.04444044607890562,-0.006108652381980153,-38.23443437591347,-33.966676410406315,14.410990938322128
1700081067,0.9694468321814476,-0.23147692634046887,0.032075043007135574,0.01313360262125733,-0.04444044607890562,-0.006108652381980153,-37.40134463607133,-33.83513592516808,15.21484945922245
1700081068,0.9695687905198777,-0.2309890929867482,0.032684834699286444,0.014508049407202865,-0.04245513405476207,-0.005039638215133627,-37.489038292896815,-34.244372990353696,13.91406021631102
1700081068,0.9695687905198777,-0.2309890929867482,0.032684834699286444,0.014508049407202865,-0.04245513405476207,-0.005039638215133627,-37.15287927506577,-33.90821397252265,14.03098509207834
1700081068,0.9687150821508664,-0.23062321797145768,0.03317266805300713,0.01511891464540088,-0.04138611988791554,-0.002596177262341565,-37.29903536977492,-33.9520608009354,14.162525577316574
1700081068,0.9687150821508664,-0.23062321797145768,0.03317266805300713,0.01511891464540088,-0.04138611988791554,-0.002596177262341565,-37.97135340543701,-34.244372990353696,13.680210464776382
1700081068,0.9687150821508664,-0.23037930129459733,0.03353854306829765,0.0160352125026979,-0.04092797095926703,-0.0003054326190990077,-38.05904706226249,-33.615901783104356,13.826366559485532
1700081068,0.9687150821508664,-0.23037930129459733,0.03353854306829765,0.0160352125026979,-0.04092797095926703,-0.0003054326190990077,-38.497515346389946,-33.60128617363344,13.957907044723767
1700081068,0.9685931238124362,-0.23086713464831804,0.032928751376146786,0.016187928812247405,-0.03940080786377199,0.000916297857297023,-37.62057877813505,-33.63051739257527,13.650979245834552
1700081068,0.9685931238124362,-0.23086713464831804,0.032928751376146786,0.016187928812247405,-0.03940080786377199,0.000916297857297023,-38.3513592516808,-33.71821104940076,13.577901198479978
1700081068,0.9693248738430171,-0.23086713464831804,0.03341658472986748,0.014508049407202865,-0.03787364476827695,0.0016798794050445422,-38.20520315697165,-34.522069570301085,14.089447529962
1700081068,0.9693248738430171,-0.23086713464831804,0.03341658472986748,0.014508049407202865,-0.03787364476827695,0.0016798794050445422,-37.7667348728442,-33.864367144109906,13.694826074247295
1700081068,0.9683492071355759,-0.2326965097247706,0.03488008479102956,0.012980886311707827,-0.037568212149177944,0.0022907446432425577,-38.044431452791585,-33.30897398421514,13.475591932183573
1700081068,0.9683492071355759,-0.2326965097247706,0.03488008479102956,0.012980886311707827,-0.037568212149177944,0.0022907446432425577,-38.07366267173341,-34.03975445776089,14.484068985676704
1700081068,0.967739415443425,-0.2326965097247706,0.03585575149847095,0.014202616788103856,-0.037110063220529434,0.003665191429188092,-37.85442852966969,-33.92282958199357,13.592516807950892
1700081068,0.967739415443425,-0.2326965097247706,0.03585575149847095,0.014202616788103856,-0.037110063220529434,0.003665191429188092,-38.07366267173341,-33.63051739257527,14.3817597193803
1700081068,0.9682272487971457,-0.23367217643221203,0.03585575149847095,0.016493361431346415,-0.038179077387375956,0.003817907738737596,-37.95673779596609,-33.55743934522069,13.650979245834552
1700081068,0.9682272487971457,-0.23367217643221203,0.03585575149847095,0.016493361431346415,-0.038179077387375956,0.0024434609527920616,-38.14674071908799,-33.747442268342596,14.20637240572932
1700081068,0.9674954987665647,-0.23306238474006113,0.0374412098980632,0.017256942979093935,-0.04016438941151951,0.0024434609527920616,-38.05904706226249,-33.937445191464484,13.636363636363635
1700081068,0.9674954987665647,-0.23306238474006113,0.0374412098980632,0.0158824961931484,-0.04230241774521256,0.001069014166846527,-37.883659748611514,-33.659748611517095,13.91406021631102
1700081068,0.9667637487359836,-0.2342819681243629,0.036953376544342505,0.0158824961931484,-0.04230241774521256,0.001069014166846527,-38.00058462437884,-33.864367144109906,14.045600701549255
1700081068,0.9667637487359836,-0.2342819681243629,0.036953376544342505,0.01557706357404939,-0.04459316238845512,-0.0006108652381980154,-37.25518854136218,-33.9520608009354,14.644840689856768
1700081068,0.9673735404281345,-0.23525763483180426,0.037563168236493374,0.01557706357404939,-0.04459316238845512,-0.0006108652381980154,-37.09441683718211,-33.820520315697166,13.884828997369189
1700081068,0.9673735404281345,-0.23525763483180426,0.037319251559633025,0.0160352125026979,-0.047342055960346185,-0.0032070425005395805,-37.664425606547795,-33.83513592516808,14.86407483192049
1700081068,0.9673735404281345,-0.23513567649337408,0.037319251559633025,0.0160352125026979,-0.047342055960346185,-0.0032070425005395805,-37.8690441391406,-34.25898859982461,13.519438760596318
1700081068,0.9668857070744138,-0.2342819681243629,0.03573379316004077,0.015729779883598895,-0.04902193536539073,-0.006414085001079161,-37.79596609178603,-33.83513592516808,13.56328558900906
1700081068,0.9668857070744138,-0.2342819681243629,0.03573379316004077,0.015729779883598895,-0.04902193536539073,-0.006414085001079161,-37.95673779596609,-34.0543700672318,14.440222157263957
1700081068,0.9683492071355759,-0.23391609310907233,0.03524595980632008,0.015271630954950384,-0.049938233222687756,-0.008704829644321718,-38.19058754750073,-34.010523238819054,14.235603624671148
1700081068,0.9683492071355759,-0.23391609310907233,0.03524595980632008,0.015271630954950384,-0.049938233222687756,-0.008704829644321718,-37.35749780765858,-33.937445191464484,13.76790412160187
1700081068,0.967739415443425,-0.23233063470948012,0.03366050140672783,0.014660765716752368,-0.050549098460885775,-0.010537425358915765,-38.13212510961707,-33.80590470622625,14.016369482607423
1700081068,0.967739415443425,-0.23233063470948012,0.03366050140672783,0.014660765716752368,-0.050549098460885775,-0.010537425358915765,-38.21981876644256,-33.864367144109906,14.074831920491086
1700081068,0.9695687905198777,-0.23281846806320078,0.03305070971457696,0.014813482026301871,-0.050549098460885775,-0.01069014166846527,-37.693656825489626,-34.09821689564455,13.70944168371821
1700081068,0.9695687905198777,-0.23281846806320078,0.03305070971457696,0.014813482026301871,-0.050549098460885775,-0.01069014166846527,-38.249049985384396,-33.9520608009354,14.571762642502192
1700081068,0.9688370404892966,-0.23074517630988783,0.03305070971457696,0.0160352125026979,-0.049480084294039245,-0.00992656012071775,-38.57059339374452,-34.0543700672318,14.367144109909383
1700081068,0.9688370404892966,-0.23074517630988783,0.03305070971457696,0.0160352125026979,-0.049480084294039245,-0.00992656012071775,-37.635194387605964,-34.08360128617363,14.805612394036832
1700081068,0.9700566238735983,-0.2309890929867482,0.032684834699286444,0.0160352125026979,-0.047342055960346185,-0.009010262263420726,-37.89827535808244,-34.317451037708274,14.279450453083895
1700081068,0.9700566238735983,-0.2309890929867482,0.032684834699286444,0.0160352125026979,-0.047342055960346185,-0.009010262263420726,-38.01520023384975,-34.361297866121014,14.557147033031278
1700081068,0.969934665535168,-0.22976950960244646,0.032684834699286444,0.01557706357404939,-0.04474587869800463,-0.007635815477475192,-38.20520315697165,-33.83513592516808,14.454837766734874
1700081068,0.969934665535168,-0.22976950960244646,0.032684834699286444,0.01557706357404939,-0.04474587869800463,-0.007635815477475192,-38.14674071908799,-33.9520608009354,13.91406021631102
1700081068,0.9688370404892966,-0.23025734295616715,0.032928751376146786,0.014660765716752368,-0.04291328298341058,-0.006108652381980153,-37.82519731072786,-33.46974568839521,13.607132417421807
1700081068,0.9688370404892966,-0.23025734295616715,0.032928751376146786,0.014660765716752368,-0.04291328298341058,-0.006108652381980153,-38.17597193802982,-33.60128617363344,13.855597778427361
1700081068,0.9688370404892966,-0.2311110513251784,0.03390441808358817,0.014049900478554353,-0.04123340357836603,-0.004734205596034618,-38.77521192633733,-33.98129201987723,13.70944168371821
1700081068,0.9688370404892966,-0.2311110513251784,0.03390441808358817,0.014049900478554353,-0.04123340357836603,-0.004734205596034618,-38.117509500146156,-34.142063724057294,13.7971353405437
1700081068,0.9685931238124362,-0.23123300966360852,0.03439225143730886,0.014813482026301871,-0.04046982203061852,-0.003665191429188092,-38.322128032738966,-34.09821689564455,13.855597778427361
1700081068,0.9685931238124362,-0.23123300966360852,0.03439225143730886,0.014813482026301871,-0.04046982203061852,-0.003665191429188092,-37.81058170125694,-34.18591055247004,13.855597778427361
1700081068,0.9673735404281345,-0.2313549680020387,0.03500204312945973,0.014966198335851376,-0.040317105721069016,-0.0022907446432425577,-37.8690441391406,-34.171294942999126,14.484068985676704
1700081068,0.9673735404281345,-0.2313549680020387,0.03500204312945973,0.014966198335851376,-0.040317105721069016,-0.0022907446432425577,-37.85442852966969,-34.28821981876644,14.761765565624085
1700081068,0.967739415443425,-0.23257455138634048,0.03573379316004077,0.01511891464540088,-0.04153883619746504,-0.0012217304763960308,-37.40134463607133,-34.50745396083016,14.367144109909383
1700081068,0.967739415443425,-0.23257455138634048,0.03573379316004077,0.01511891464540088,-0.04153883619746504,-0.0012217304763960308,-37.635194387605964,-34.536685179772,14.644840689856768
1700081068,0.9683492071355759,-0.2326965097247706,0.0374412098980632,0.014660765716752368,-0.0436768645311581,-0.0007635815477475192,-37.79596609178603,-34.522069570301085,13.884828997369189
1700081068,0.9672515820897043,-0.23367217643221203,0.03500204312945973,0.014508049407202865,-0.045662176555301644,-0.0013744467859455344,-37.16749488453669,-34.62437883659749,13.519438760596318
1700081068,0.9672515820897043,-0.23367217643221203,0.03500204312945973,0.014508049407202865,-0.045662176555301644,-0.0013744467859455344,-37.29903536977492,-34.44899152294651,13.73867290266004
1700081068,0.9687150821508664,-0.2331843430784913,0.03524595980632008,0.01435533309765336,-0.047036623341247176,-0.002596177262341565,-37.89827535808244,-34.25898859982461,13.344051446945338
1700081068,0.9687150821508664,-0.2331843430784913,0.03524595980632008,0.01435533309765336,-0.047036623341247176,-0.002596177262341565,-37.59134755919322,-34.02513884828998,14.060216311020168
1700081068,0.9676174571049948,-0.2331843430784913,0.03475812645259938,0.01435533309765336,-0.047647488579445195,-0.0032070425005395805,-38.20520315697165,-34.1566793335282,13.840982168956446
1700081068,0.9676174571049948,-0.2331843430784913,0.03475812645259938,0.01435533309765336,-0.047647488579445195,-0.0032070425005395805,-37.737503653902365,-34.1566793335282,13.344051446945338
1700081068,0.9683492071355759,-0.23245259304791024,0.03451420977573903,0.014508049407202865,-0.047494772269895694,-0.003817907738737596,-37.7667348728442,-34.142063724057294,13.94329143525285
1700081068,0.9683492071355759,-0.23245259304791024,0.03451420977573903,0.014508049407202865,-0.047494772269895694,-0.003817907738737596,-37.70827243496054,-34.215141771411865,13.91406021631102
1700081068,0.9684711654740061,-0.23208671803261977,0.03353854306829765,0.014508049407202865,-0.046883907031697675,-0.004123340357836604,-38.01520023384975,-34.375913475591936,14.045600701549255
1700081068,0.9684711654740061,-0.23208671803261977,0.03353854306829765,0.014508049407202865,-0.046883907031697675,-0.004123340357836604,-37.19672610347852,-34.361297866121014,13.91406021631102
1700081068,0.9689589988277266,-0.23220867637104994,0.03402637642201835,0.014813482026301871,-0.04627304179349966,-0.004428772976935611,-38.05904706226249,-34.244372990353696,13.636363636363635
1700081068,0.9689589988277266,-0.23220867637104994,0.03402637642201835,0.014813482026301871,-0.04627304179349966,-0.004428772976935611,-37.60596316866413,-34.08360128617363,13.490207541654486
1700081068,0.9682272487971457,-0.2319647596941896,0.03390441808358817,0.01557706357404939,-0.04474587869800463,-0.004276056667386108,-37.95673779596609,-33.9520608009354,13.534054370067231
1700081068,0.9682272487971457,-0.2319647596941896,0.03390441808358817,0.01557706357404939,-0.04474587869800463,-0.004276056667386108,-37.737503653902365,-34.11283250511546,14.060216311020168
1700081068,0.9684711654740061,-0.23257455138634048,0.03402637642201835,0.015729779883598895,-0.0436768645311581,-0.0039706240482871,-38.20520315697165,-34.142063724057294,14.074831920491086
1700081068,0.9684711654740061,-0.23257455138634048,0.03402637642201835,0.015729779883598895,-0.0436768645311581,-0.0039706240482871,-38.05904706226249,-34.02513884828998,14.3817597193803
1700081068,0.9692029155045871,-0.23159888467889905,0.03500204312945973,0.015424347264499889,-0.04291328298341058,-0.0032070425005395805,-37.92750657702426,-34.06898567670272,14.308681672025724
1700081068,0.9692029155045871,-0.23159888467889905,0.03500204312945973,0.015424347264499889,-0.04291328298341058,-0.0032070425005395805,-38.21981876644256,-34.18591055247004,14.644840689856768
1700081068,0.9679833321202853,-0.23208671803261977,0.03488008479102956,0.015424347264499889,-0.04276056667386108,-0.0035124751196385882,-38.14674071908799,-34.06898567670272,14.674071908798597
1700081068,0.9679833321202853,-0.23208671803261977,0.03488008479102956,0.015424347264499889,-0.04276056667386108,-0.0035124751196385882,-37.81058170125694,-34.346682256650105,14.294066062554808
1700081068,0.9678613737818552,-0.23294042640163096,0.03524595980632008,0.01557706357404939,-0.04306599929296008,-0.003817907738737596,-37.67904121601871,-34.30283542823736,14.849459222449577
1700081068,0.9678613737818552,-0.23294042640163096,0.03524595980632008,0.01557706357404939,-0.04306599929296008,-0.003817907738737596,-37.62057877813505,-34.142063724057294,14.3817597193803
1700081068,0.9682272487971457,-0.23220867637104994,0.03488008479102956,0.015271630954950384,-0.0438295808407076,-0.004123340357836604,-38.10289389067524,-34.30283542823736,14.045600701549255
1700081068,0.9682272487971457,-0.23220867637104994,0.03488008479102956,0.015271630954950384,-0.0438295808407076,-0.004123340357836604,-37.98596901490792,-34.346682256650105,14.469453376205788
1700081068,0.967739415443425,-0.23159888467889905,0.03475812645259938,0.015271630954950384,-0.04413501345980661,-0.003817907738737596,-38.00058462437884,-34.595147617655655,14.980999707687811
1700081068,0.967739415443425,-0.23159888467889905,0.03475812645259938,0.015271630954950384,-0.04413501345980661,-0.003817907738737596,-37.59134755919322,-34.375913475591936,14.732534346682257
1700081068,0.9678613737818552,-0.23220867637104994,0.03524595980632008,0.014660765716752368,-0.04474587869800463,-0.003665191429188092,-37.95673779596609,-34.22975738088278,14.20637240572932
1700081068,0.9678613737818552,-0.23220867637104994,0.03524595980632008,0.014660765716752368,-0.04474587869800463,-0.003665191429188092,-37.4744226834259,-34.375913475591936,14.410990938322128
1700081068,0.9688370404892966,-0.23245259304791024,0.03548987648318043,0.014966198335851376,-0.04474587869800463,-0.0039706240482871,-37.635194387605964,-33.659748611517095,14.337912890967552
1700081068,0.9688370404892966,-0.23245259304791024,0.03548987648318043,0.014966198335851376,-0.04474587869800463,-0.0039706240482871,-37.00672318035662,-33.849751534639,14.089447529962
1700081068,0.9681052904587156,-0.2319647596941896,0.0356118348216106,0.015424347264499889,-0.04520402762665313,-0.004581489286485115,-37.59134755919322,-33.937445191464484,13.94329143525285
1700081068,0.9681052904587156,-0.23220867637104994,0.03451420977573903,0.015729779883598895,-0.04550946024575214,-0.004276056667386108,-37.82519731072786,-34.33206664717919,13.665594855305466
1700081068,0.9678613737818552,-0.23220867637104994,0.03451420977573903,0.015729779883598895,-0.04550946024575214,-0.004276056667386108,-37.26980415083309,-34.361297866121014,13.97252265419468
1700081068,0.9683492071355759,-0.2311110513251784,0.03317266805300713,0.016493361431346415,-0.04520402762665313,-0.004276056667386108,-37.54750073078048,-33.98129201987723,14.32329728149664
1700081068,0.9683492071355759,-0.2311110513251784,0.03317266805300713,0.016493361431346415,-0.04520402762665313,-0.004276056667386108,-37.8690441391406,-34.40514469453376,14.659456299327683
1700081068,0.9690809571661569,-0.2311110513251784,0.03451420977573903,0.014508049407202865,-0.04520402762665313,-0.004734205596034618,-37.41596024554224,-34.142063724057294,14.425606547793043
1700081068,0.9690809571661569,-0.2311110513251784,0.03451420977573903,0.014508049407202865,-0.04520402762665313,-0.004734205596034618,-37.839812920198774,-34.09821689564455,13.314820228003507
1700081068,0.9681052904587156,-0.2326965097247706,0.03500204312945973,0.012522737383059314,-0.04428772976935611,-0.0035124751196385882,-37.72288804443145,-34.215141771411865,13.987138263665594
1700081068,0.9681052904587156,-0.2326965097247706,0.03500204312945973,0.012522737383059314,-0.04428772976935611,-0.0035124751196385882,-38.10289389067524,-34.565916398713824,14.104063139432915
1700081068,0.9684711654740061,-0.2326965097247706,0.03463616811416921,0.013439035240356337,-0.0438295808407076,-0.0024434609527920616,-37.75211926337329,-34.171294942999126,13.592516807950892
1700081068,0.9684711654740061,-0.2326965097247706,0.03463616811416921,0.013439035240356337,-0.0438295808407076,-0.0024434609527920616,-37.5767319497223,-34.1566793335282,13.650979245834552
1700081068,0.9683492071355759,-0.2333063014169215,0.03524595980632008,0.016951510359994926,-0.04428772976935611,-0.00198531202414355,-38.07366267173341,-34.50745396083016,14.454837766734874
1700081068,0.9683492071355759,-0.2333063014169215,0.03524595980632008,0.016951510359994926,-0.04428772976935611,-0.00198531202414355,-37.693656825489626,-34.03975445776089,14.17714118678749
1700081068,0.9681052904587156,-0.23208671803261977,0.03524595980632008,0.01832595714594046,-0.044898595007554123,-0.002748893571891069,-37.8690441391406,-34.33206664717919,13.490207541654486
1700081068,0.9681052904587156,-0.23208671803261977,0.03524595980632008,0.01832595714594046,-0.044898595007554123,-0.002748893571891069,-38.19058754750073,-34.375913475591936,12.774042677579656
1700081068,0.9678613737818552,-0.23281846806320078,0.03488008479102956,0.0158824961931484,-0.044898595007554123,-0.0033597588100890844,-38.01520023384975,-34.27360420929553,14.367144109909383
1700081068,0.9678613737818552,-0.23281846806320078,0.03488008479102956,0.0158824961931484,-0.044898595007554123,-0.0033597588100890844,-38.14674071908799,-34.43437591347559,13.285589009061678
1700081068,0.9683492071355759,-0.23306238474006113,0.03500204312945973,0.01389718416900485,-0.044898595007554123,-0.003665191429188092,-38.088278281204325,-33.820520315697166,13.402513884828998
1700081068,0.9683492071355759,-0.23306238474006113,0.03500204312945973,0.01389718416900485,-0.044898595007554123,-0.003665191429188092,-38.14674071908799,-33.762057877813504,13.811750950014615
1700081068,0.9674954987665647,-0.23172084301732923,0.03402637642201835,0.014508049407202865,-0.045662176555301644,-0.004886921905584123,-38.00058462437884,-34.12744811458638,13.037123648056124
1700081068,0.9674954987665647,-0.23172084301732923,0.03402637642201835,0.014508049407202865,-0.045662176555301644,-0.004886921905584123,-37.22595732242034,-34.11283250511546,14.294066062554808
1700081069,0.9683492071355759,-0.2326965097247706,0.03475812645259938,0.01511891464540088,-0.04596760917440065,-0.005497787143782138,-38.044431452791585,-34.03975445776089,14.162525577316574
1700081069,0.9683492071355759,-0.2326965097247706,0.03475812645259938,0.01511891464540088,-0.04596760917440065,-0.005497787143782138,-37.97135340543701,-34.66822566501023,13.504823151125404
1700081069,0.9682272487971457,-0.23220867637104994,0.03427029309887869,0.0158824961931484,-0.04520402762665313,-0.005345070834232635,-38.93598363051739,-34.346682256650105,13.680210464776382
1700081069,0.9682272487971457,-0.23220867637104994,0.03427029309887869,0.0158824961931484,-0.04520402762665313,-0.005345070834232635,-38.23443437591347,-34.565916398713824,13.7971353405437
1700081069,0.9690809571661569,-0.23220867637104994,0.03402637642201835,0.016187928812247405,-0.04444044607890562,-0.00519235452468313,-38.292896813797135,-34.536685179772,13.431745103770828
1700081069,0.9690809571661569,-0.23220867637104994,0.03402637642201835,0.016187928812247405,-0.04444044607890562,-0.00519235452468313,-37.883659748611514,-34.06898567670272,13.811750950014615
1700081069,0.9681052904587156,-0.23147692634046887,0.03488008479102956,0.0160352125026979,-0.04413501345980661,-0.004276056667386108,-38.3513592516808,-33.791289096755335,14.279450453083895
1700081069,0.9681052904587156,-0.23147692634046887,0.03488008479102956,0.0160352125026979,-0.04413501345980661,-0.004276056667386108,-38.3513592516808,-34.595147617655655,13.680210464776382
1700081069,0.9681052904587156,-0.23257455138634048,0.03451420977573903,0.014966198335851376,-0.0438295808407076,-0.004123340357836604,-37.95673779596609,-34.09821689564455,13.7971353405437
1700081069,0.9681052904587156,-0.23257455138634048,0.03451420977573903,0.014966198335851376,-0.04291328298341058,-0.0033597588100890844,-38.42443729903537,-34.0543700672318,13.387898275358081
1700081069,0.9696907488583079,-0.2318428013557594,0.0356118348216106,0.015424347264499889,-0.04291328298341058,-0.0033597588100890844,-38.14674071908799,-33.67436422098802,14.016369482607423
1700081069,0.9696907488583079,-0.2318428013557594,0.0356118348216106,0.015424347264499889,-0.04337143191205909,-0.002596177262341565,-37.78135048231511,-33.63051739257527,13.300204618532593
1700081069,0.9692029155045871,-0.2313549680020387,0.03451420977573903,0.015424347264499889,-0.04337143191205909,-0.002596177262341565,-38.30751242326805,-34.1566793335282,13.97252265419468
1700081069,0.9689589988277266,-0.23233063470948012,0.03475812645259938,0.014508049407202865,-0.04306599929296008,-0.002138028333693054,-38.117509500146156,-34.1566793335282,13.694826074247295
1700081069,0.9689589988277266,-0.23233063470948012,0.03475812645259938,0.014508049407202865,-0.04306599929296008,-0.002138028333693054,-37.664425606547795,-33.762057877813504,13.680210464776382
1700081069,0.9684711654740061,-0.2318428013557594,0.03427029309887869,0.013439035240356337,-0.04169155250701455,-0.0013744467859455344,-37.89827535808244,-33.747442268342596,14.133294358374746
1700081069,0.9684711654740061,-0.2318428013557594,0.03427029309887869,0.013439035240356337,-0.04169155250701455,-0.0013744467859455344,-37.95673779596609,-34.06898567670272,13.76790412160187
1700081069,0.9688370404892966,-0.2331843430784913,0.03463616811416921,0.013744467859455345,-0.04169155250701455,-0.001069014166846527,-37.737503653902365,-34.010523238819054,13.753288512130958
1700081069,0.9688370404892966,-0.2331843430784913,0.03463616811416921,0.013744467859455345,-0.04169155250701455,-0.001069014166846527,-37.5767319497223,-33.820520315697166,13.387898275358081
1700081069,0.9689589988277266,-0.23257455138634048,0.0351240014678899,0.014966198335851376,-0.04092797095926703,-0.0006108652381980154,-37.95673779596609,-34.11283250511546,13.665594855305466
1700081069,0.9689589988277266,-0.23257455138634048,0.0351240014678899,0.014966198335851376,-0.04092797095926703,-0.0006108652381980154,-37.8690441391406,-34.346682256650105,13.753288512130958
1700081069,0.9681052904587156,-0.23208671803261977,0.03475812645259938,0.0160352125026979,-0.04077525464971753,-0.0003054326190990077,-37.85442852966969,-34.02513884828998,13.548669979538147
1700081069,0.9681052904587156,-0.23208671803261977,0.03475812645259938,0.0160352125026979,-0.04077525464971753,-0.0003054326190990077,-37.75211926337329,-34.09821689564455,13.592516807950892
1700081069,0.9683492071355759,-0.2319647596941896,0.0351240014678899,0.015271630954950384,-0.04092797095926703,-0.0004581489286485115,-37.912890967553345,-34.361297866121014,13.855597778427361
1700081069,0.9683492071355759,-0.2319647596941896,0.0351240014678899,0.015271630954950384,-0.04092797095926703,-0.0004581489286485115,-38.13212510961707,-33.937445191464484,12.715580239695996
1700081069,0.9688370404892966,-0.2333063014169215,0.03597770983690112,0.012522737383059314,-0.04092797095926703,-0.0004581489286485115,-38.23443437591347,-33.77667348728442,13.25635779011985
1700081069,0.9688370404892966,-0.2333063014169215,0.03597770983690112,0.012522737383059314,-0.04092797095926703,-0.0004581489286485115,-37.8690441391406,-34.28821981876644,12.84712072493423
1700081069,0.9671296237512741,-0.23367217643221203,0.03475812645259938,0.012675453692608817,-0.04046982203061852,-0.0006108652381980154,-37.7667348728442,-34.244372990353696,13.460976322712655
1700081069,0.9671296237512741,-0.23367217643221203,0.03475812645259938,0.012675453692608817,-0.04046982203061852,-0.0006108652381980154,-37.883659748611514,-34.39052908506285,13.25635779011985
1700081069,0.9682272487971457,-0.23355021809378185,0.03585575149847095,0.015424347264499889,-0.040622538340168025,-0.000916297857297023,-37.64980999707688,-34.419760304004676,13.066354866997953
1700081069,0.9682272487971457,-0.23355021809378185,0.03585575149847095,0.015424347264499889,-0.040622538340168025,-0.000916297857297023,-37.8690441391406,-34.39052908506285,13.344051446945338
1700081069,0.9678613737818552,-0.23294042640163096,0.037197293221202854,0.01756237559819294,-0.04077525464971753,-0.0007635815477475192,-37.532885121309555,-34.492838351359254,13.227126571178019
1700081069,0.9678613737818552,-0.23294042640163096,0.037197293221202854,0.01756237559819294,-0.04077525464971753,-0.0007635815477475192,-37.92750657702426,-34.66822566501023,13.329435837474424
1700081069,0.9683492071355759,-0.23342825975535167,0.03707533488277268,0.01679879405044542,-0.04245513405476207,-0.0013744467859455344,-37.883659748611514,-34.522069570301085,13.05173925752704
1700081069,0.9683492071355759,-0.23342825975535167,0.03707533488277268,0.01679879405044542,-0.04245513405476207,-0.0013744467859455344,-37.89827535808244,-34.62437883659749,13.154048523823445
1700081069,0.9673735404281345,-0.23367217643221203,0.03646554319062181,0.014202616788103856,-0.04337143191205909,-0.002596177262341565,-38.19058754750073,-34.22975738088278,13.066354866997953
1700081069,0.9673735404281345,-0.23367217643221203,0.03646554319062181,0.014202616788103856,-0.04337143191205909,-0.002596177262341565,-38.044431452791585,-33.92282958199357,13.007892429114293
1700081069,0.967739415443425,-0.23452588480122322,0.036587501529051984,0.013286318930806833,-0.044898595007554123,-0.003817907738737596,-38.13212510961707,-34.244372990353696,13.110201695410698
1700081069,0.967739415443425,-0.23452588480122322,0.036587501529051984,0.013286318930806833,-0.044898595007554123,-0.003817907738737596,-38.249049985384396,-34.66822566501023,13.490207541654486
1700081069,0.9673735404281345,-0.23464784313965342,0.03573379316004077,0.01435533309765336,-0.04612032548395016,-0.005039638215133627,-38.21981876644256,-34.595147617655655,13.08097047646887
1700081069,0.9673735404281345,-0.23464784313965342,0.03573379316004077,0.016187928812247405,-0.047342055960346185,-0.00519235452468313,-37.912890967553345,-34.522069570301085,13.270973399590764
1700081069,0.9671296237512741,-0.23464784313965342,0.0360996681753313,0.016187928812247405,-0.047342055960346185,-0.00519235452468313,-37.54750073078048,-34.46360713241742,13.037123648056124
1700081069,0.9671296237512741,-0.23464784313965342,0.0360996681753313,0.016951510359994926,-0.047952921198544204,-0.005955936072430649,-38.044431452791585,-34.50745396083016,13.358667056416252
1700081069,0.9673735404281345,-0.23367217643221203,0.03646554319062181,0.016951510359994926,-0.047952921198544204,-0.005955936072430649,-38.4536685179772,-34.06898567670272,14.308681672025724
1700081069,0.9673735404281345,-0.23367217643221203,0.036587501529051984,0.0160352125026979,-0.04871650274629172,-0.006872233929727673,-37.489038292896815,-33.937445191464484,13.855597778427361
1700081069,0.9687150821508664,-0.2326965097247706,0.036587501529051984,0.0160352125026979,-0.04871650274629172,-0.006872233929727673,-38.3513592516808,-34.02513884828998,14.17714118678749
1700081069,0.9692029155045871,-0.23220867637104994,0.036831418205912334,0.014049900478554353,-0.049632800603588746,-0.0070249502392771765,-38.23443437591347,-34.0543700672318,14.820228003507745
1700081069,0.9692029155045871,-0.23220867637104994,0.036831418205912334,0.014049900478554353,-0.049632800603588746,-0.0070249502392771765,-38.263665594855304,-34.28821981876644,14.761765565624085
1700081069,0.9679833321202853,-0.23245259304791024,0.03463616811416921,0.012828170002158322,-0.05009094953223726,-0.00717766654882668,-37.89827535808244,-34.11283250511546,14.86407483192049
1700081069,0.9679833321202853,-0.23245259304791024,0.03463616811416921,0.012828170002158322,-0.05009094953223726,-0.00717766654882668,-37.4744226834259,-34.317451037708274,13.855597778427361
1700081069,0.9694468321814476,-0.23391609310907233,0.0351240014678899,0.01313360262125733,-0.049480084294039245,-0.006719517620178169,-37.78135048231511,-34.85822858813212,13.300204618532593
1700081069,0.9694468321814476,-0.23391609310907233,0.0351240014678899,0.01313360262125733,-0.049480084294039245,-0.006719517620178169,-37.562116340251386,-34.43437591347559,13.56328558900906
1700081069,0.9687150821508664,-0.2331843430784913,0.03463616811416921,0.01557706357404939,-0.04902193536539073,-0.0070249502392771765,-37.75211926337329,-34.65361005553931,13.197895352236188
1700081069,0.9687150821508664,-0.2331843430784913,0.03463616811416921,0.01557706357404939,-0.04902193536539073,-0.0070249502392771765,-38.07366267173341,-34.18591055247004,13.650979245834552
1700081069,0.9689589988277266,-0.23294042640163096,0.03390441808358817,0.017256942979093935,-0.048258353817643214,-0.00717766654882668,-38.19058754750073,-34.27360420929553,13.139432914352527
1700081069,0.9689589988277266,-0.23294042640163096,0.03390441808358817,0.017256942979093935,-0.048258353817643214,-0.00717766654882668,-38.14674071908799,-35.28208126278866,14.235603624671148
1700081069,0.9687150821508664,-0.23220867637104994,0.03463616811416921,0.01710422666954443,-0.047189339650796684,-0.006872233929727673,-37.489038292896815,-34.58053200818474,14.17714118678749
1700081069,0.9687150821508664,-0.23220867637104994,0.03463616811416921,0.01710422666954443,-0.047189339650796684,-0.006872233929727673,-37.98596901490792,-34.171294942999126,14.308681672025724
1700081069,0.9681052904587156,-0.23086713464831804,0.03597770983690112,0.014966198335851376,-0.047189339650796684,-0.006719517620178169,-37.78135048231511,-34.215141771411865,14.527915814089448
1700081069,0.9681052904587156,-0.23086713464831804,0.03597770983690112,0.014966198335851376,-0.047189339650796684,-0.006719517620178169,-37.54750073078048,-34.60976322712657,13.870213387898275
1700081069,0.9684711654740061,-0.23257455138634048,0.03536791814475025,0.013591751549905842,-0.04642575810304917,-0.005955936072430649,-37.25518854136218,-34.46360713241742,13.899444606840106
1700081069,0.9684711654740061,-0.23257455138634048,0.03536791814475025,0.013591751549905842,-0.04642575810304917,-0.005955936072430649,-37.89827535808244,-34.30283542823736,14.045600701549255
1700081069,0.9695687905198777,-0.23233063470948012,0.033782459745158,0.014813482026301871,-0.045662176555301644,-0.005955936072430649,-38.161356328558895,-34.171294942999126,13.139432914352527
1700081069,0.9695687905198777,-0.23233063470948012,0.033782459745158,0.014813482026301871,-0.045662176555301644,-0.005955936072430649,-37.7667348728442,-33.893598363051744,13.680210464776382
1700081069,0.9690809571661569,-0.23147692634046887,0.03305070971457696,0.014813482026301871,-0.0436768645311581,-0.005803219762881146,-37.95673779596609,-33.966676410406315,14.118678748903829
1700081069,0.9690809571661569,-0.23147692634046887,0.03305070971457696,0.014813482026301871,-0.0436768645311581,-0.005803219762881146,-37.60596316866413,-34.08360128617363,13.373282665887167
1700081069,0.9689589988277266,-0.23159888467889905,0.03439225143730886,0.013439035240356337,-0.04276056667386108,-0.004428772976935611,-38.07366267173341,-34.1566793335282,13.7971353405437
1700081069,0.9689589988277266,-0.23159888467889905,0.03439225143730886,0.01435533309765336,-0.04123340357836603,-0.0030543261909900766,-37.211341712949434,-34.09821689564455,14.469453376205788
1700081069,0.9683492071355759,-0.23233063470948012,0.03475812645259938,0.01435533309765336,-0.04123340357836603,-0.0030543261909900766,-37.942122186495176,-33.98129201987723,14.805612394036832
1700081069,0.9683492071355759,-0.23233063470948012,0.03475812645259938,0.01679879405044542,-0.04046982203061852,-0.001832595714594046,-37.62057877813505,-34.44899152294651,15.15638702133879
1700081069,0.9683492071355759,-0.2333063014169215,0.03500204312945973,0.01679879405044542,-0.04046982203061852,-0.001832595714594046,-37.22595732242034,-34.46360713241742,14.630225080385854
1700081069,0.9683492071355759,-0.2333063014169215,0.03500204312945973,0.018173240836390957,-0.04108068726881653,-0.0013744467859455344,-37.664425606547795,-34.361297866121014,14.776381175095002
1700081069,0.9679833321202853,-0.23208671803261977,0.036831418205912334,0.018173240836390957,-0.04108068726881653,-0.0013744467859455344,-38.01520023384975,-34.28821981876644,14.250219234142063
1700081069,0.9679833321202853,-0.23208671803261977,0.0360996681753313,0.015729779883598895,-0.04214970143566306,-0.000916297857297023,-38.512130955860854,-34.215141771411865,14.32329728149664
1700081069,0.9687150821508664,-0.23245259304791024,0.0360996681753313,0.015729779883598895,-0.04214970143566306,-0.000916297857297023,-38.13212510961707,-34.595147617655655,14.133294358374746
1700081069,0.967739415443425,-0.23281846806320078,0.03585575149847095,0.014813482026301871,-0.04260785036431157,-0.0006108652381980154,-38.13212510961707,-34.20052616194095,13.870213387898275
1700081069,0.967739415443425,-0.23281846806320078,0.03585575149847095,0.014813482026301871,-0.04260785036431157,-0.0006108652381980154,-37.89827535808244,-34.171294942999126,14.659456299327683
1700081069,0.9678613737818552,-0.23294042640163096,0.03548987648318043,0.0158824961931484,-0.04321871560250958,-0.0006108652381980154,-37.79596609178603,-34.02513884828998,14.586378251973105
1700081069,0.9678613737818552,-0.23294042640163096,0.03548987648318043,0.0158824961931484,-0.04321871560250958,-0.0006108652381980154,-38.3513592516808,-34.419760304004676,14.250219234142063
1700081069,0.9685931238124362,-0.2337941347706422,0.037319251559633025,0.0158824961931484,-0.04428772976935611,-0.000916297857297023,-38.07366267173341,-34.71207249342297,14.586378251973105
1700081069,0.9685931238124362,-0.2337941347706422,0.037319251559633025,0.0158824961931484,-0.04428772976935611,-0.000916297857297023,-37.85442852966969,-34.66822566501023,13.607132417421807
1700081069,0.9673735404281345,-0.23355021809378185,0.03548987648318043,0.0160352125026979,-0.04459316238845512,-0.0012217304763960308,-37.72288804443145,-34.55130078924291,13.957907044723767
1700081069,0.9673735404281345,-0.23355021809378185,0.03548987648318043,0.0160352125026979,-0.04459316238845512,-0.0012217304763960308,-37.75211926337329,-34.06898567670272,14.20637240572932
1700081069,0.9684711654740061,-0.23294042640163096,0.03573379316004077,0.016187928812247405,-0.04520402762665313,-0.0022907446432425577,-38.10289389067524,-34.25898859982461,13.300204618532593
1700081069,0.9684711654740061,-0.23294042640163096,0.03573379316004077,0.016187928812247405,-0.04520402762665313,-0.0022907446432425577,-37.98596901490792,-34.43437591347559,14.484068985676704
1700081069,0.9674954987665647,-0.23306238474006113,0.03500204312945973,0.01511891464540088,-0.04474587869800463,-0.002748893571891069,-37.839812920198774,-34.46360713241742,13.650979245834552
1700081069,0.9674954987665647,-0.23306238474006113,0.03500204312945973,0.01511891464540088,-0.04474587869800463,-0.002748893571891069,-37.92750657702426,-34.30283542823736,14.805612394036832
1700081069,0.9683492071355759,-0.2342819681243629,0.03488008479102956,0.01389718416900485,-0.04505131131710363,-0.0032070425005395805,-38.13212510961707,-34.43437591347559,14.498684595147617
1700081069,0.9683492071355759,-0.2342819681243629,0.03488008479102956,0.01389718416900485,-0.04505131131710363,-0.0032070425005395805,-37.25518854136218,-34.08360128617363,14.893306050862321
1700081069,0.9682272487971457,-0.2337941347706422,0.03573379316004077,0.0160352125026979,-0.045662176555301644,-0.003817907738737596,-37.59134755919322,-34.20052616194095,14.3817597193803
1700081069,0.9682272487971457,-0.2337941347706422,0.03573379316004077,0.0160352125026979,-0.045662176555301644,-0.003817907738737596,-37.912890967553345,-34.47822274188834,14.600993861444023
1700081069,0.9683492071355759,-0.23367217643221203,0.03548987648318043,0.016646077740895916,-0.04459316238845512,-0.00519235452468313,-37.81058170125694,-34.6389944460684,14.659456299327683
1700081069,0.9683492071355759,-0.23367217643221203,0.03548987648318043,0.016646077740895916,-0.04459316238845512,-0.00519235452468313,-37.839812920198774,-34.66822566501023,14.133294358374746
1700081069,0.9687150821508664,-0.23342825975535167,0.03622162651376147,0.016646077740895916,-0.04505131131710363,-0.005345070834232635,-37.92750657702426,-34.361297866121014,14.352528500438469
1700081069,0.9687150821508664,-0.23342825975535167,0.03622162651376147,0.016646077740895916,-0.04505131131710363,-0.005345070834232635,-38.00058462437884,-34.244372990353696,14.089447529962
1700081069,0.9682272487971457,-0.23257455138634048,0.03536791814475025,0.01511891464540088,-0.04520402762665313,-0.005955936072430649,-37.95673779596609,-33.849751534639,13.97252265419468
1700081069,0.9682272487971457,-0.23257455138634048,0.03536791814475025,0.01511891464540088,-0.04520402762665313,-0.005955936072430649,-38.439052908506284,-34.03975445776089,14.557147033031278
1700081069,0.9683492071355759,-0.2331843430784913,0.0356118348216106,0.014813482026301871,-0.044898595007554123,-0.005955936072430649,-38.27828120432622,-34.28821981876644,14.440222157263957
1700081070,0.9683492071355759,-0.2331843430784913,0.0356118348216106,0.014813482026301871,-0.044898595007554123,-0.006108652381980153,-37.62057877813505,-34.171294942999126,14.907921660333237
1700081070,0.9678613737818552,-0.23208671803261977,0.03548987648318043,0.014813482026301871,-0.044898595007554123,-0.006108652381980153,-37.72288804443145,-34.375913475591936,14.016369482607423
1700081070,0.9678613737818552,-0.23208671803261977,0.03548987648318043,0.014049900478554353,-0.045356743936202634,-0.004886921905584123,-37.82519731072786,-34.361297866121014,14.86407483192049
1700081070,0.9682272487971457,-0.2333063014169215,0.03646554319062181,0.014049900478554353,-0.045356743936202634,-0.004886921905584123,-37.35749780765858,-34.346682256650105,14.410990938322128
1700081070,0.9682272487971457,-0.2333063014169215,0.03597770983690112,0.014966198335851376,-0.04581489286485115,-0.005039638215133627,-38.00058462437884,-33.70359543992984,14.469453376205788
1700081070,0.9682272487971457,-0.23342825975535167,0.03597770983690112,0.014966198335851376,-0.04581489286485115,-0.005039638215133627,-38.10289389067524,-34.40514469453376,14.337912890967552
1700081070,0.9685931238124362,-0.23220867637104994,0.0356118348216106,0.01557706357404939,-0.04627304179349966,-0.005650503453331642,-37.942122186495176,-34.25898859982461,14.937152879275065
1700081070,0.9685931238124362,-0.23220867637104994,0.0356118348216106,0.01557706357404939,-0.04627304179349966,-0.005650503453331642,-38.20520315697165,-34.30283542823736,14.644840689856768
1700081070,0.967739415443425,-0.23257455138634048,0.03548987648318043,0.014660765716752368,-0.04596760917440065,-0.005955936072430649,-37.70827243496054,-34.33206664717919,14.849459222449577
1700081070,0.967739415443425,-0.23257455138634048,0.03548987648318043,0.014660765716752368,-0.04596760917440065,-0.005955936072430649,-38.05904706226249,-34.0543700672318,15.09792458345513
1700081070,0.9685931238124362,-0.2331843430784913,0.03548987648318043,0.01435533309765336,-0.04612032548395016,-0.005497787143782138,-37.59134755919322,-34.171294942999126,14.674071908798597
1700081070,0.9685931238124362,-0.2331843430784913,0.03548987648318043,0.01435533309765336,-0.04612032548395016,-0.005497787143782138,-37.79596609178603,-34.02513884828998,14.907921660333237
1700081070,0.9693248738430171,-0.2326965097247706,0.0356118348216106,0.01435533309765336,-0.04596760917440065,-0.005650503453331642,-38.365974861151706,-34.62437883659749,15.244080678164279
1700081070,0.9693248738430171,-0.2326965097247706,0.0356118348216106,0.01435533309765336,-0.04596760917440065,-0.005650503453331642,-37.81058170125694,-34.88745980707396,14.425606547793043
1700081070,0.9684711654740061,-0.2333063014169215,0.03463616811416921,0.014966198335851376,-0.045662176555301644,-0.005345070834232635,-37.29903536977492,-34.375913475591936,15.21484945922245
1700081070,0.9684711654740061,-0.2333063014169215,0.03463616811416921,0.014966198335851376,-0.045662176555301644,-0.005345070834232635,-37.54750073078048,-34.1566793335282,14.571762642502192
1700081070,0.9683492071355759,-0.23245259304791024,0.03402637642201835,0.0158824961931484,-0.04520402762665313,-0.005345070834232635,-37.98596901490792,-34.44899152294651,14.337912890967552
1700081070,0.9683492071355759,-0.23245259304791024,0.03402637642201835,0.0158824961931484,-0.04520402762665313,-0.005345070834232635,-37.883659748611514,-34.565916398713824,13.870213387898275
1700081070,0.9687150821508664,-0.23245259304791024,0.03500204312945973,0.0158824961931484,-0.04474587869800463,-0.005345070834232635,-37.8690441391406,-34.142063724057294,14.235603624671148
1700081070,0.9687150821508664,-0.23245259304791024,0.03500204312945973,0.0158824961931484,-0.04474587869800463,-0.005345070834232635,-37.54750073078048,-34.33206664717919,11.48786904413914
1700081070,0.9693248738430171,-0.23220867637104994,0.03548987648318043,0.0158824961931484,-0.0438295808407076,-0.004734205596034618,-38.10289389067524,-34.46360713241742,14.104063139432915
1700081070,0.9693248738430171,-0.23220867637104994,0.03548987648318043,0.0158824961931484,-0.0438295808407076,-0.004734205596034618,-37.60596316866413,-34.39052908506285,14.308681672025724
1700081070,0.9688370404892966,-0.23233063470948012,0.0351240014678899,0.01557706357404939,-0.0436768645311581,-0.004428772976935611,-37.35749780765858,-34.65361005553931,13.855597778427361
1700081070,0.9688370404892966,-0.23233063470948012,0.0351240014678899,0.01557706357404939,-0.0436768645311581,-0.004428772976935611,-38.01520023384975,-34.46360713241742,13.56328558900906
1700081070,0.9685931238124362,-0.2319647596941896,0.0356118348216106,0.01557706357404939,-0.04337143191205909,-0.003665191429188092,-37.34288219818767,-34.46360713241742,14.03098509207834
1700081070,0.9685931238124362,-0.2319647596941896,0.0356118348216106,0.01557706357404939,-0.04337143191205909,-0.002748893571891069,-37.459807073954984,-34.244372990353696,14.747149956153171
1700081070,0.9685931238124362,-0.2326965097247706,0.03634358485219164,0.01557706357404939,-0.0436768645311581,-0.002748893571891069,-37.839812920198774,-33.90821397252265,14.790996784565916
1700081070,0.9685931238124362,-0.2326965097247706,0.03634358485219164,0.016187928812247405,-0.0439822971502571,-0.00198531202414355,-38.13212510961707,-33.995907629348146,14.527915814089448
1700081070,0.9674954987665647,-0.2326965097247706,0.0360996681753313,0.016187928812247405,-0.0439822971502571,-0.00198531202414355,-37.85442852966969,-34.522069570301085,14.32329728149664
1700081070,0.9674954987665647,-0.2326965097247706,0.0360996681753313,0.015424347264499889,-0.044898595007554123,-0.0016798794050445422,-37.664425606547795,-34.66822566501023,14.060216311020168
1700081070,0.9679833321202853,-0.23245259304791024,0.03670945986748216,0.015424347264499889,-0.044898595007554123,-0.0016798794050445422,-37.62057877813505,-34.81438175971938,13.139432914352527
1700081070,0.9679833321202853,-0.23245259304791024,0.03670945986748216,0.01389718416900485,-0.04505131131710363,-0.0012217304763960308,-37.82519731072786,-34.62437883659749,13.987138263665594
1700081070,0.9671296237512741,-0.23342825975535167,0.03573379316004077,0.01389718416900485,-0.04505131131710363,-0.0012217304763960308,-37.95673779596609,-34.84361297866121,13.855597778427361
1700081070,0.9671296237512741,-0.23342825975535167,0.03646554319062181,0.01389718416900485,-0.04612032548395016,-0.0016798794050445422,-37.664425606547795,-34.726688102893895,14.060216311020168
1700081070,0.9681052904587156,-0.23416000978593274,0.03646554319062181,0.01389718416900485,-0.04612032548395016,-0.0016798794050445422,-38.044431452791585,-34.215141771411865,13.110201695410698
1700081070,0.967739415443425,-0.23342825975535167,0.03597770983690112,0.015424347264499889,-0.046883907031697675,-0.002748893571891069,-37.97135340543701,-34.741303712364804,13.270973399590764
1700081070,0.967739415443425,-0.23342825975535167,0.03597770983690112,0.015424347264499889,-0.046883907031697675,-0.002748893571891069,-37.79596609178603,-34.46360713241742,14.118678748903829
1700081070,0.967739415443425,-0.23367217643221203,0.03427029309887869,0.01634064512179691,-0.047342055960346185,-0.0030543261909900766,-38.02981584332067,-33.995907629348146,13.650979245834552
1700081070,0.967739415443425,-0.23367217643221203,0.03427029309887869,0.01634064512179691,-0.047342055960346185,-0.0030543261909900766,-38.40982168956445,-33.659748611517095,14.396375328851214
1700081070,0.9694468321814476,-0.2331843430784913,0.03366050140672783,0.015729779883598895,-0.047494772269895694,-0.0039706240482871,-37.64980999707688,-34.12744811458638,14.03098509207834
1700081070,0.9694468321814476,-0.2331843430784913,0.03366050140672783,0.015729779883598895,-0.047494772269895694,-0.0039706240482871,-37.79596609178603,-34.010523238819054,14.045600701549255
1700081070,0.9696907488583079,-0.23245259304791024,0.03463616811416921,0.014508049407202865,-0.04627304179349966,-0.005650503453331642,-38.05904706226249,-34.361297866121014,14.703303127740428
1700081070,0.9696907488583079,-0.23245259304791024,0.03463616811416921,0.014508049407202865,-0.04627304179349966,-0.005650503453331642,-38.40982168956445,-34.215141771411865,14.352528500438469
1700081070,0.9684711654740061,-0.23294042640163096,0.033782459745158,0.013591751549905842,-0.04413501345980661,-0.005803219762881146,-37.839812920198774,-34.25898859982461,15.054077755042385
1700081070,0.9684711654740061,-0.23294042640163096,0.033782459745158,0.013591751549905842,-0.04413501345980661,-0.005803219762881146,-38.27828120432622,-34.06898567670272,14.089447529962
1700081070,0.9688370404892966,-0.2326965097247706,0.03414833476044852,0.014966198335851376,-0.04245513405476207,-0.004734205596034618,-38.13212510961707,-34.06898567670272,15.419467991815258
1700081070,0.9688370404892966,-0.2326965097247706,0.03414833476044852,0.014966198335851376,-0.04245513405476207,-0.004734205596034618,-38.21981876644256,-34.02513884828998,14.644840689856768
1700081070,0.9687150821508664,-0.23245259304791024,0.03427029309887869,0.017867808217291947,-0.04199698512611356,-0.004123340357836604,-38.088278281204325,-34.91669102601578,15.0686933645133
1700081070,0.9687150821508664,-0.23245259304791024,0.03427029309887869,0.017867808217291947,-0.04199698512611356,-0.004123340357836604,-37.78135048231511,-34.55130078924291,15.33177433498977
1700081070,0.9679833321202853,-0.23220867637104994,0.0360996681753313,0.018631389765039467,-0.04153883619746504,-0.0032070425005395805,-38.117509500146156,-34.06898567670272,14.659456299327683
1700081070,0.9679833321202853,-0.23220867637104994,0.0360996681753313,0.018631389765039467,-0.04153883619746504,-0.0032070425005395805,-37.60596316866413,-34.18591055247004,13.285589009061678
1700081070,0.9682272487971457,-0.2318428013557594,0.03597770983690112,0.016187928812247405,-0.04214970143566306,-0.0035124751196385882,-37.489038292896815,-34.09821689564455,13.91406021631102
1700081070,0.9682272487971457,-0.2318428013557594,0.03597770983690112,0.014202616788103856,-0.04321871560250958,-0.004581489286485115,-37.737503653902365,-33.92282958199357,14.367144109909383
1700081070,0.9681052904587156,-0.23403805144750256,0.03548987648318043,0.014202616788103856,-0.04321871560250958,-0.004581489286485115,-37.89827535808244,-34.142063724057294,14.32329728149664
1700081070,0.9681052904587156,-0.23403805144750256,0.03548987648318043,0.014813482026301871,-0.04459316238845512,-0.005345070834232635,-37.62057877813505,-33.747442268342596,13.665594855305466
1700081070,0.9673735404281345,-0.23403805144750256,0.0356118348216106,0.014813482026301871,-0.04459316238845512,-0.005345070834232635,-37.35749780765858,-34.08360128617363,14.045600701549255
1700081070,0.9673735404281345,-0.23403805144750256,0.0356118348216106,0.0160352125026979,-0.04642575810304917,-0.006108652381980153,-38.07366267173341,-33.63051739257527,14.045600701549255
1700081070,0.9676174571049948,-0.23391609310907233,0.036953376544342505,0.0160352125026979,-0.04642575810304917,-0.006108652381980153,-36.97749196141479,-33.864367144109906,13.197895352236188
1700081070,0.9676174571049948,-0.23391609310907233,0.036953376544342505,0.01634064512179691,-0.047036623341247176,-0.006872233929727673,-37.51826951183864,-33.762057877813504,13.957907044723767
1700081070,0.967739415443425,-0.23208671803261977,0.03646554319062181,0.01634064512179691,-0.047036623341247176,-0.006872233929727673,-37.35749780765858,-33.586670564162524,14.191756796258403
1700081070,0.9684711654740061,-0.2319647596941896,0.03488008479102956,0.015271630954950384,-0.047647488579445195,-0.007483099167925688,-37.737503653902365,-34.02513884828998,13.534054370067231
1700081070,0.9684711654740061,-0.2319647596941896,0.03488008479102956,0.015271630954950384,-0.047647488579445195,-0.007483099167925688,-37.635194387605964,-34.25898859982461,14.104063139432915
1700081070,0.9676174571049948,-0.23233063470948012,0.03536791814475025,0.01389718416900485,-0.047342055960346185,-0.006414085001079161,-37.386729026600406,-33.92282958199357,13.957907044723767
1700081070,0.9676174571049948,-0.23233063470948012,0.03536791814475025,0.01389718416900485,-0.047342055960346185,-0.006414085001079161,-37.75211926337329,-34.0543700672318,13.650979245834552
1700081070,0.9678613737818552,-0.23233063470948012,0.03427029309887869,0.01435533309765336,-0.047189339650796684,-0.005497787143782138,-37.98596901490792,-33.762057877813504,14.14790996784566
1700081070,0.9678613737818552,-0.23233063470948012,0.03427029309887869,0.01435533309765336,-0.047189339650796684,-0.005497787143782138,-37.4744226834259,-33.864367144109906,13.650979245834552
1700081070,0.9693248738430171,-0.2319647596941896,0.03439225143730886,0.015271630954950384,-0.047036623341247176,-0.005345070834232635,-37.43057585501315,-34.18591055247004,14.352528500438469
1700081070,0.9693248738430171,-0.2319647596941896,0.03439225143730886,0.015271630954950384,-0.047036623341247176,-0.005345070834232635,-37.562116340251386,-33.762057877813504,13.592516807950892
1700081070,0.9690809571661569,-0.23208671803261977,0.03366050140672783,0.01557706357404939,-0.04673119072214818,-0.004886921905584123,-37.635194387605964,-33.52820812627886,14.133294358374746
1700081070,0.9690809571661569,-0.23208671803261977,0.03366050140672783,0.01557706357404939,-0.04673119072214818,-0.004886921905584123,-37.532885121309555,-33.849751534639,13.73867290266004
1700081070,0.9688370404892966,-0.23123300966360852,0.03451420977573903,0.01511891464540088,-0.04505131131710363,-0.0035124751196385882,-36.97749196141479,-33.3674364220988,14.220988015200234
1700081070,0.9688370404892966,-0.23123300966360852,0.03451420977573903,0.01511891464540088,-0.04505131131710363,-0.0035124751196385882,-37.50365390236773,-33.659748611517095,14.454837766734874
1700081070,0.9683492071355759,-0.23281846806320078,0.03414833476044852,0.014202616788103856,-0.04444044607890562,-0.002901609881440573,-37.59134755919322,-33.73282665887167,13.73867290266004
1700081070,0.9683492071355759,-0.23281846806320078,0.03414833476044852,0.014202616788103856,-0.04444044607890562,-0.002901609881440573,-37.532885121309555,-33.16281788950599,14.454837766734874
1700081070,0.9694468321814476,-0.23233063470948012,0.0351240014678899,0.014813482026301871,-0.0438295808407076,-0.002138028333693054,-37.7667348728442,-33.542823735749785,14.235603624671148
1700081070,0.9694468321814476,-0.23233063470948012,0.0351240014678899,0.014813482026301871,-0.0438295808407076,-0.002138028333693054,-37.05057000876937,-33.77667348728442,13.08097047646887
1700081070,0.9674954987665647,-0.23281846806320078,0.03536791814475025,0.01511891464540088,-0.04306599929296008,-0.001832595714594046,-37.41596024554224,-33.995907629348146,13.680210464776382
1700081070,0.9674954987665647,-0.23281846806320078,0.03536791814475025,0.01511891464540088,-0.04306599929296008,-0.001832595714594046,-37.43057585501315,-33.60128617363344,14.308681672025724
1700081070,0.967739415443425,-0.2331843430784913,0.0360996681753313,0.01511891464540088,-0.04321871560250958,-0.00198531202414355,-37.211341712949434,-34.215141771411865,13.811750950014615
1700081070,0.967739415443425,-0.2331843430784913,0.0360996681753313,0.01511891464540088,-0.04321871560250958,-0.00198531202414355,-36.90441391406022,-33.265127155802396,13.592516807950892
1700081070,0.967739415443425,-0.23281846806320078,0.0360996681753313,0.01511891464540088,-0.04306599929296008,-0.002138028333693054,-37.70827243496054,-33.70359543992984,14.86407483192049
1700081070,0.967739415443425,-0.23281846806320078,0.0360996681753313,0.01511891464540088,-0.04306599929296008,-0.002138028333693054,-37.635194387605964,-34.22975738088278,14.630225080385854
1700081070,0.9681052904587156,-0.23306238474006113,0.0360996681753313,0.01511891464540088,-0.04413501345980661,-0.0032070425005395805,-37.43057585501315,-33.659748611517095,13.94329143525285
1700081070,0.9681052904587156,-0.23306238474006113,0.0360996681753313,0.01511891464540088,-0.04474587869800463,-0.0035124751196385882,-37.79596609178603,-34.12744811458638,14.352528500438469
1700081070,0.9681052904587156,-0.23367217643221203,0.03597770983690112,0.015424347264499889,-0.04474587869800463,-0.0035124751196385882,-37.5767319497223,-33.71821104940076,13.7971353405437
1700081070,0.9681052904587156,-0.23367217643221203,0.03597770983690112,0.0160352125026979,-0.04505131131710363,-0.004428772976935611,-37.85442852966969,-33.995907629348146,13.870213387898275
1700081070,0.9684711654740061,-0.23233063470948012,0.03573379316004077,0.0160352125026979,-0.04505131131710363,-0.004428772976935611,-37.5767319497223,-33.659748611517095,14.352528500438469
1700081070,0.9684711654740061,-0.23233063470948012,0.03573379316004077,0.014813482026301871,-0.04581489286485115,-0.004886921905584123,-37.34288219818767,-33.747442268342596,13.680210464776382
1700081070,0.9683492071355759,-0.23294042640163096,0.0351240014678899,0.014813482026301871,-0.04581489286485115,-0.004886921905584123,-37.26980415083309,-33.83513592516808,13.724057293189126
1700081070,0.9683492071355759,-0.23281846806320078,0.03573379316004077,0.013744467859455345,-0.04612032548395016,-0.004886921905584123,-41.12832505115463,-33.9520608009354,14.410990938322128
1700081070,0.9685931238124362,-0.23281846806320078,0.03573379316004077,0.013744467859455345,-0.04612032548395016,-0.004886921905584123,-37.737503653902365,-33.382052031569714,14.03098509207834
1700081070,0.9682272487971457,-0.23367217643221203,0.03500204312945973,0.014049900478554353,-0.045662176555301644,-0.004428772976935611,-37.16749488453669,-33.849751534639,13.826366559485532
1700081070,0.9682272487971457,-0.23367217643221203,0.03500204312945973,0.014049900478554353,-0.045662176555301644,-0.004428772976935611,-37.182110494007595,-33.71821104940076,13.7971353405437
1700081070,0.9684711654740061,-0.23281846806320078,0.03475812645259938,0.014813482026301871,-0.04550946024575214,-0.004428772976935611,-37.97135340543701,-33.46974568839521,13.636363636363635
1700081070,0.9684711654740061,-0.23281846806320078,0.03475812645259938,0.014813482026301871,-0.04550946024575214,-0.004428772976935611,-37.839812920198774,-33.791289096755335,13.957907044723767
1700081070,0.9695687905198777,-0.23257455138634048,0.03488008479102956,0.014966198335851376,-0.04505131131710363,-0.004428772976935611,-37.54750073078048,-33.46974568839521,13.753288512130958
1700081070,0.9695687905198777,-0.23257455138634048,0.03488008479102956,0.014966198335851376,-0.04505131131710363,-0.004428772976935611,-36.94826074247296,-33.966676410406315,13.840982168956446
1700081070,0.9682272487971457,-0.23294042640163096,0.03585575149847095,0.014660765716752368,-0.04520402762665313,-0.004428772976935611,-37.138263665594856,-33.80590470622625,14.264834843612977
1700081071,0.9682272487971457,-0.23294042640163096,0.03585575149847095,0.014660765716752368,-0.04520402762665313,-0.004428772976935611,-37.54750073078048,-33.55743934522069,14.615609470914936
1700081071,0.9682272487971457,-0.23294042640163096,0.03475812645259938,0.014508049407202865,-0.04428772976935611,-0.0039706240482871,-37.386729026600406,-33.90821397252265,14.074831920491086
1700081071,0.9682272487971457,-0.23294042640163096,0.03475812645259938,0.014508049407202865,-0.04428772976935611,-0.0039706240482871,-37.664425606547795,-34.20052616194095,13.782519731072787
1700081071,0.9684711654740061,-0.23355021809378185,0.0351240014678899,0.015271630954950384,-0.044898595007554123,-0.004123340357836604,-37.532885121309555,-34.39052908506285,14.32329728149664
1700081071,0.9684711654740061,-0.23355021809378185,0.0351240014678899,0.015271630954950384,-0.044898595007554123,-0.004123340357836604,-37.313650979245836,-34.08360128617363,13.884828997369189
1700081071,0.9683492071355759,-0.23281846806320078,0.0360996681753313,0.015424347264499889,-0.04612032548395016,-0.003665191429188092,-37.75211926337329,-34.171294942999126,13.855597778427361
1700081071,0.9683492071355759,-0.23281846806320078,0.0360996681753313,0.015424347264499889,-0.04612032548395016,-0.003665191429188092,-37.64980999707688,-34.28821981876644,13.504823151125404
1700081071,0.9692029155045871,-0.23220867637104994,0.03500204312945973,0.014966198335851376,-0.04550946024575214,-0.004276056667386108,-38.07366267173341,-34.0543700672318,13.197895352236188
1700081071,0.9692029155045871,-0.23220867637104994,0.03500204312945973,0.014966198335851376,-0.04550946024575214,-0.004276056667386108,-37.78135048231511,-33.966676410406315,13.899444606840106
1700081071,0.9671296237512741,-0.23306238474006113,0.03670945986748216,0.014966198335851376,-0.04581489286485115,-0.004123340357836604,-37.7667348728442,-34.08360128617363,14.674071908798597
1700081071,0.9671296237512741,-0.23306238474006113,0.03670945986748216,0.014966198335851376,-0.04581489286485115,-0.004123340357836604,-37.693656825489626,-33.995907629348146,14.396375328851214
1700081071,0.9671296237512741,-0.2333063014169215,0.03524595980632008,0.0160352125026979,-0.04642575810304917,-0.004276056667386108,-37.72288804443145,-34.60976322712657,14.3817597193803
1700081071,0.9671296237512741,-0.2333063014169215,0.03524595980632008,0.0160352125026979,-0.04657847441259867,-0.004886921905584123,-37.62057877813505,-34.11283250511546,13.97252265419468
1700081071,0.9695687905198777,-0.2318428013557594,0.03427029309887869,0.016493361431346415,-0.04657847441259867,-0.004886921905584123,-37.98596901490792,-33.995907629348146,14.674071908798597
1700081071,0.9695687905198777,-0.2318428013557594,0.03427029309887869,0.014049900478554353,-0.045356743936202634,-0.005497787143782138,-37.912890967553345,-33.966676410406315,14.089447529962
1700081071,0.9685931238124362,-0.23159888467889905,0.03573379316004077,0.014049900478554353,-0.045356743936202634,-0.005497787143782138,-36.933645133002045,-34.215141771411865,14.00175387313651
1700081071,0.9685931238124362,-0.23159888467889905,0.03573379316004077,0.012675453692608817,-0.04505131131710363,-0.005345070834232635,-37.5767319497223,-34.317451037708274,13.7971353405437
1700081071,0.9692029155045871,-0.2326965097247706,0.03500204312945973,0.012675453692608817,-0.04505131131710363,-0.005345070834232635,-37.72288804443145,-34.317451037708274,13.534054370067231
1700081071,0.9692029155045871,-0.2326965097247706,0.03500204312945973,0.014202616788103856,-0.044898595007554123,-0.004886921905584123,-37.737503653902365,-33.864367144109906,14.279450453083895
1700081071,0.9688370404892966,-0.23281846806320078,0.03475812645259938,0.014202616788103856,-0.044898595007554123,-0.004886921905584123,-37.737503653902365,-33.762057877813504,13.97252265419468
1700081071,0.9688370404892966,-0.23294042640163096,0.03622162651376147,0.016493361431346415,-0.04459316238845512,-0.0035124751196385882,-37.459807073954984,-33.52820812627886,13.534054370067231
1700081071,0.9688370404892966,-0.23294042640163096,0.03622162651376147,0.016493361431346415,-0.04459316238845512,-0.0035124751196385882,-41.084478222741886,-34.375913475591936,14.060216311020168
1700081071,0.9684711654740061,-0.2313549680020387,0.03573379316004077,0.017256942979093935,-0.04428772976935611,-0.0035124751196385882,-37.34288219818767,-33.849751534639,14.220988015200234
