timestamp,acc-x,acc-y,acc-z,gyr-x,gyr-y,gyr-z,mag-x,mag-y,mag-z
1700081541,0.9679833321202853,-0.23440392646279307,0.04817354367991845,0.014508049407202865,-0.049174651674940235,-0.007483099167925688,-35.64747149956153,-35.44285296696872,13.168664133294358
1700081541,0.9681052904587156,-0.2342819681243629,0.047685710326197756,0.014508049407202865,-0.049174651674940235,-0.007483099167925688,-35.13592516807951,-35.048231511254016,13.329435837474424
1700081541,0.9685931238124362,-0.23355021809378185,0.0479296270030581,0.015271630954950384,-0.047036623341247176,-0.007788531787024695,-35.01900029231219,-35.223618824905,12.78865828705057
1700081541,0.9685931238124362,-0.23355021809378185,0.0479296270030581,0.015271630954950384,-0.047036623341247176,-0.007788531787024695,-35.23823443437591,-34.75591932183572,13.636363636363635
1700081541,0.9685931238124362,-0.2326965097247706,0.047685710326197756,0.0158824961931484,-0.047647488579445195,-0.007483099167925688,-35.16515638702134,-35.325928091201405,13.73867290266004
1700081542,0.9685931238124362,-0.2326965097247706,0.047685710326197756,0.0158824961931484,-0.047647488579445195,-0.007483099167925688,-35.10669394913768,-35.20900321543408,13.91406021631102
1700081542,0.9684711654740061,-0.2319647596941896,0.047441793649337406,0.01435533309765336,-0.045356743936202634,-0.00717766654882668,-34.68284127448115,-34.9313066354867,13.227126571178019
1700081542,0.9684711654740061,-0.2319647596941896,0.047441793649337406,0.01435533309765336,-0.045356743936202634,-0.00717766654882668,-34.799766150248466,-35.06284712072493,13.417129494299912
1700081542,0.9685931238124362,-0.2337941347706422,0.047075918634046886,0.013591751549905842,-0.04474587869800463,-0.006414085001079161,-35.223618824905,-35.077462730195855,13.241742180648933
1700081542,0.9685931238124362,-0.2337941347706422,0.047075918634046886,0.013591751549905842,-0.04474587869800463,-0.006414085001079161,-34.78515054077755,-35.38439052908507,13.650979245834552
1700081542,0.9689589988277266,-0.23403805144750256,0.04890529371049949,0.015271630954950384,-0.0438295808407076,-0.006566801310628665,-34.60976322712657,-35.10669394913768,13.782519731072787
1700081542,0.9689589988277266,-0.23403805144750256,0.04890529371049949,0.015271630954950384,-0.0438295808407076,-0.006566801310628665,-34.50745396083016,-34.68284127448115,12.730195849166911
1700081542,0.9681052904587156,-0.23294042640163096,0.047197876972477064,0.016951510359994926,-0.04230241774521256,-0.006566801310628665,-35.399006138555976,-34.50745396083016,13.300204618532593
1700081542,0.9681052904587156,-0.23294042640163096,0.047197876972477064,0.016951510359994926,-0.04230241774521256,-0.006566801310628665,-35.58900906167787,-34.78515054077755,13.373282665887167
1700081542,0.9679833321202853,-0.2333063014169215,0.04817354367991845,0.015729779883598895,-0.04108068726881653,-0.005803219762881146,-34.91669102601578,-34.98976907337036,12.832505115463313
1700081542,0.9679833321202853,-0.2333063014169215,0.04817354367991845,0.015424347264499889,-0.04092797095926703,-0.004886921905584123,-35.38439052908507,-34.81438175971938,13.811750950014615
1700081542,0.9671296237512741,-0.23342825975535167,0.04951508540265035,0.015424347264499889,-0.04092797095926703,-0.004886921905584123,-35.09207833966676,-35.179771996492256,13.724057293189126
1700081542,0.9671296237512741,-0.23464784313965342,0.05024683543323139,0.016646077740895916,-0.04214970143566306,-0.004428772976935611,-35.34054370067231,-35.03361590178311,13.285589009061678
1700081542,0.9672515820897043,-0.23464784313965342,0.05024683543323139,0.016646077740895916,-0.04214970143566306,-0.004428772976935611,-35.501315404852384,-35.501315404852384,13.665594855305466
1700081542,0.9678613737818552,-0.23306238474006113,0.05085662712538226,0.018631389765039467,-0.04413501345980661,-0.004581489286485115,-35.26746565331774,-34.91669102601578,13.91406021631102
1700081542,0.9678613737818552,-0.23306238474006113,0.05085662712538226,0.018631389765039467,-0.04413501345980661,-0.004581489286485115,-35.48669979538147,-35.121309558608594,13.548669979538147
1700081542,0.9681052904587156,-0.2333063014169215,0.0515883771559633,0.01756237559819294,-0.04642575810304917,-0.004123340357836604,-35.35515931014323,-34.741303712364804,13.168664133294358
1700081542,0.9681052904587156,-0.2333063014169215,0.0515883771559633,0.01756237559819294,-0.04642575810304917,-0.004123340357836604,-35.399006138555976,-34.872844197603044,12.96404560070155
1700081542,0.9667637487359836,-0.23440392646279307,0.05012487709480122,0.0158824961931484,-0.04856378643674222,-0.003817907738737596,-35.25285004384683,-35.20900321543408,13.110201695410698
1700081542,0.9667637487359836,-0.23440392646279307,0.05012487709480122,0.0158824961931484,-0.04856378643674222,-0.003817907738737596,-35.121309558608594,-35.150540777550425,12.8178895059924
1700081542,0.967739415443425,-0.23342825975535167,0.04902725204892966,0.016951510359994926,-0.049938233222687756,-0.0035124751196385882,-35.06284712072493,-35.325928091201405,13.25635779011985
1700081542,0.967739415443425,-0.23342825975535167,0.04902725204892966,0.016951510359994926,-0.049938233222687756,-0.0035124751196385882,-35.03361590178311,-35.150540777550425,12.861736334405144
1700081542,0.9689589988277266,-0.23294042640163096,0.04829550201834862,0.01756237559819294,-0.050396382151336266,-0.002596177262341565,-35.325928091201405,-35.194387605963165,12.84712072493423
1700081542,0.9689589988277266,-0.23294042640163096,0.04829550201834862,0.01756237559819294,-0.050396382151336266,-0.002596177262341565,-35.28208126278866,-35.121309558608594,13.08097047646887
1700081542,0.9685931238124362,-0.23342825975535167,0.047075918634046886,0.018173240836390957,-0.05070181477043527,-0.0024434609527920616,-34.872844197603044,-35.36977491961415,13.519438760596318
1700081542,0.9685931238124362,-0.23294042640163096,0.04634416860346585,0.01756237559819294,-0.049632800603588746,-0.00198531202414355,-35.179771996492256,-34.96053785442853,13.607132417421807
1700081542,0.9692029155045871,-0.23294042640163096,0.04634416860346585,0.01756237559819294,-0.049632800603588746,-0.00198531202414355,-35.121309558608594,-35.20900321543408,14.03098509207834
1700081542,0.9694468321814476,-0.2331843430784913,0.04634416860346585,0.017256942979093935,-0.047952921198544204,-0.00198531202414355,-35.20900321543408,-34.98976907337036,13.826366559485532
1700081542,0.9694468321814476,-0.2331843430784913,0.04634416860346585,0.017256942979093935,-0.047952921198544204,-0.00198531202414355,-35.69131832797427,-34.8289973691903,13.650979245834552
1700081542,0.9694468321814476,-0.2326965097247706,0.04512458521916412,0.01710422666954443,-0.045356743936202634,-0.0015271630954950383,-35.41362174802689,-35.42823735749781,13.227126571178019
1700081542,0.9694468321814476,-0.2326965097247706,0.04512458521916412,0.01710422666954443,-0.045356743936202634,-0.0015271630954950383,-35.58900906167787,-34.98976907337036,13.534054370067231
1700081542,0.9690809571661569,-0.23257455138634048,0.047075918634046886,0.0158824961931484,-0.04199698512611356,-0.0012217304763960308,-35.399006138555976,-35.16515638702134,12.920198772288805
1700081542,0.9690809571661569,-0.23257455138634048,0.047075918634046886,0.0158824961931484,-0.04199698512611356,-0.0012217304763960308,-35.48669979538147,-34.799766150248466,13.73867290266004
1700081542,0.9689589988277266,-0.2337941347706422,0.046953960295616715,0.014966198335851376,-0.03955352417332149,-0.0006108652381980154,-35.44285296696872,-34.68284127448115,12.379421221864952
1700081542,0.9689589988277266,-0.2337941347706422,0.046953960295616715,0.014966198335851376,-0.03955352417332149,-0.0006108652381980154,-35.16515638702134,-34.96053785442853,11.66325635779012
1700081542,0.9671296237512741,-0.23440392646279307,0.04780766866462793,0.015729779883598895,-0.037262779530078935,0.00015271630954950385,-35.48669979538147,-35.01900029231219,13.02250803858521
1700081542,0.9671296237512741,-0.23440392646279307,0.04780766866462793,0.015729779883598895,-0.037262779530078935,0.00015271630954950385,-35.01900029231219,-34.75591932183572,12.774042677579656
1700081542,0.9672515820897043,-0.23537959317023444,0.04890529371049949,0.01710422666954443,-0.036804630601430424,-0.000916297857297023,-35.48669979538147,-34.945922244957615,12.949429991230636
1700081542,0.9672515820897043,-0.23537959317023444,0.05036879377166156,0.01756237559819294,-0.037720928458727446,-0.00198531202414355,-35.36977491961415,-34.91669102601578,13.431745103770828
1700081542,0.9668857070744138,-0.2356235098470948,0.05036879377166156,0.01756237559819294,-0.037720928458727446,-0.00198531202414355,-35.45746857643964,-34.43437591347559,12.8178895059924
1700081542,0.9663978737206931,-0.23537959317023444,0.0515883771559633,0.016493361431346415,-0.0398589567924205,-0.0039706240482871,-35.150540777550425,-34.22975738088278,12.452499269219526
1700081542,0.9663978737206931,-0.23537959317023444,0.050734668786952083,0.015271630954950384,-0.04214970143566306,-0.005345070834232635,-35.44285296696872,-34.8289973691903,13.70944168371821
1700081542,0.967007665412844,-0.23452588480122322,0.050734668786952083,0.015271630954950384,-0.04214970143566306,-0.005345070834232635,-35.44285296696872,-34.58053200818474,13.270973399590764
1700081542,0.9665198320591233,-0.23501371815494393,0.05110054380224261,0.014660765716752368,-0.04444044607890562,-0.005955936072430649,-35.44285296696872,-34.565916398713824,13.05173925752704
1700081542,0.9667637487359836,-0.23416000978593274,0.04902725204892966,0.014966198335851376,-0.046883907031697675,-0.006719517620178169,-35.31131248173049,-34.726688102893895,12.379421221864952
1700081542,0.9667637487359836,-0.23416000978593274,0.04902725204892966,0.014966198335851376,-0.046883907031697675,-0.006719517620178169,-35.06284712072493,-35.296696872259574,13.037123648056124
1700081542,0.9667637487359836,-0.23489175981651375,0.05134446047910295,0.015424347264499889,-0.04902193536539073,-0.006872233929727673,-35.66208710903245,-34.84361297866121,13.504823151125404
1700081542,0.9667637487359836,-0.23489175981651375,0.05134446047910295,0.015424347264499889,-0.04902193536539073,-0.006872233929727673,-35.09207833966676,-35.10669394913768,13.811750950014615
1700081542,0.9671296237512741,-0.23513567649337408,0.04890529371049949,0.01634064512179691,-0.05085453107998478,-0.007483099167925688,-35.8082432037416,-34.75591932183572,12.379421221864952
1700081542,0.9671296237512741,-0.23513567649337408,0.04890529371049949,0.01634064512179691,-0.05085453107998478,-0.007483099167925688,-35.35515931014323,-34.536685179772,12.67173341128325
1700081542,0.9672515820897043,-0.23476980147808357,0.04866137703363914,0.016187928812247405,-0.0517708289372818,-0.008093964406123703,-35.399006138555976,-34.770534931306635,13.373282665887167
1700081542,0.9672515820897043,-0.23476980147808357,0.04866137703363914,0.016187928812247405,-0.0517708289372818,-0.009010262263420726,-35.194387605963165,-34.98976907337036,12.774042677579656
1700081542,0.9684711654740061,-0.23452588480122322,0.04902725204892966,0.016187928812247405,-0.05253441048502932,-0.009010262263420726,-35.09207833966676,-35.34054370067231,13.607132417421807
1700081542,0.9684711654740061,-0.23452588480122322,0.04902725204892966,0.0160352125026979,-0.05146539631818279,-0.009773843811168246,-35.23823443437591,-35.13592516807951,13.02250803858521
1700081542,0.9692029155045871,-0.23355021809378185,0.047685710326197756,0.0160352125026979,-0.05146539631818279,-0.009773843811168246,-35.47208418591055,-34.9313066354867,14.250219234142063
1700081542,0.9683492071355759,-0.2326965097247706,0.04622221026503568,0.0160352125026979,-0.05085453107998478,-0.009315694882519734,-35.36977491961415,-35.09207833966676,12.730195849166911
1700081542,0.9683492071355759,-0.2326965097247706,0.04622221026503568,0.0160352125026979,-0.05085453107998478,-0.009315694882519734,-35.36977491961415,-34.78515054077755,13.197895352236188
1700081542,0.9698127071967381,-0.23306238474006113,0.047075918634046886,0.016187928812247405,-0.048869219055841226,-0.00839939702522271,-35.25285004384683,-35.03361590178311,12.861736334405144
1700081542,0.9698127071967381,-0.23306238474006113,0.047075918634046886,0.016187928812247405,-0.048869219055841226,-0.00839939702522271,-35.23823443437591,-34.85822858813212,12.832505115463313
1700081542,0.9696907488583079,-0.23208671803261977,0.04622221026503568,0.016493361431346415,-0.047036623341247176,-0.007788531787024695,-35.26746565331774,-34.78515054077755,13.08097047646887
1700081542,0.9696907488583079,-0.23208671803261977,0.04622221026503568,0.016493361431346415,-0.047036623341247176,-0.007788531787024695,-35.64747149956153,-34.33206664717919,12.58403975445776
1700081542,0.9696907488583079,-0.2319647596941896,0.046588085280326194,0.016646077740895916,-0.0436768645311581,-0.006872233929727673,-35.58900906167787,-34.78515054077755,12.84712072493423
1700081542,0.9696907488583079,-0.2319647596941896,0.046588085280326194,0.016646077740895916,-0.0436768645311581,-0.006872233929727673,-34.98976907337036,-34.90207541654487,13.241742180648933
1700081542,0.9695687905198777,-0.23208671803261977,0.04683200195718654,0.01710422666954443,-0.04184426881656405,-0.005497787143782138,-35.09207833966676,-35.194387605963165,12.759427068108739
1700081542,0.9695687905198777,-0.23208671803261977,0.04683200195718654,0.01710422666954443,-0.039706240482871,-0.0033597588100890844,-35.36977491961415,-34.975153463899446,12.832505115463313
1700081542,0.9688370404892966,-0.23220867637104994,0.047685710326197756,0.01710422666954443,-0.039706240482871,-0.0033597588100890844,-35.09207833966676,-34.50745396083016,12.569424144986845
1700081542,0.9688370404892966,-0.23220867637104994,0.047685710326197756,0.01679879405044542,-0.03924809155422248,-0.0016798794050445422,-35.06284712072493,-34.872844197603044,13.358667056416252
1700081542,0.9678613737818552,-0.23245259304791024,0.04878333537206932,0.01679879405044542,-0.03924809155422248,-0.0016798794050445422,-34.69745688395206,-34.90207541654487,13.373282665887167
1700081542,0.9678613737818552,-0.2337941347706422,0.05012487709480122,0.017256942979093935,-0.0398589567924205,-0.0006108652381980154,-35.10669394913768,-34.244372990353696,13.446360713241742
1700081542,0.9678613737818552,-0.2337941347706422,0.05012487709480122,0.017256942979093935,-0.0398589567924205,-0.0006108652381980154,-35.8082432037416,-34.88745980707396,13.139432914352527
1700081542,0.9667637487359836,-0.2337941347706422,0.04939312706422018,0.016646077740895916,-0.04108068726881653,-0.000916297857297023,-35.98363051739257,-34.96053785442853,13.212510961707103
1700081542,0.9667637487359836,-0.2337941347706422,0.04939312706422018,0.016646077740895916,-0.04108068726881653,-0.000916297857297023,-35.83747442268342,-34.69745688395206,13.534054370067231
1700081542,0.9678613737818552,-0.23440392646279307,0.05000291875637105,0.0158824961931484,-0.04291328298341058,-0.0012217304763960308,-35.16515638702134,-35.399006138555976,13.680210464776382
1700081542,0.9678613737818552,-0.23440392646279307,0.05000291875637105,0.0158824961931484,-0.04291328298341058,-0.0012217304763960308,-35.23823443437591,-35.41362174802689,12.934814381759718
1700081542,0.9671296237512741,-0.23501371815494393,0.05024683543323139,0.014508049407202865,-0.04444044607890562,-0.001832595714594046,-35.501315404852384,-35.194387605963165,12.394036831335868
1700081542,0.9671296237512741,-0.23501371815494393,0.05024683543323139,0.014508049407202865,-0.04444044607890562,-0.001832595714594046,-35.42823735749781,-35.28208126278866,13.358667056416252
1700081542,0.9660319987054026,-0.23598938486238527,0.04902725204892966,0.014202616788103856,-0.044898595007554123,-0.002748893571891069,-35.45746857643964,-34.98976907337036,13.358667056416252
1700081542,0.9660319987054026,-0.23598938486238527,0.04902725204892966,0.014202616788103856,-0.044898595007554123,-0.002748893571891069,-35.38439052908507,-35.03361590178311,13.76790412160187
1700081542,0.9679833321202853,-0.2342819681243629,0.04914921038735983,0.016187928812247405,-0.04627304179349966,-0.0033597588100890844,-35.121309558608594,-35.42823735749781,13.329435837474424
1700081542,0.9679833321202853,-0.2342819681243629,0.04914921038735983,0.016187928812247405,-0.04627304179349966,-0.0033597588100890844,-35.296696872259574,-35.121309558608594,13.490207541654486
1700081542,0.9676174571049948,-0.2333063014169215,0.04939312706422018,0.01756237559819294,-0.047494772269895694,-0.004886921905584123,-35.45746857643964,-35.048231511254016,13.519438760596318
1700081542,0.9676174571049948,-0.2333063014169215,0.04939312706422018,0.01756237559819294,-0.047494772269895694,-0.004886921905584123,-35.64747149956153,-34.81438175971938,13.56328558900906
1700081542,0.9679833321202853,-0.23367217643221203,0.048417460356778796,0.01679879405044542,-0.0478002048889947,-0.005497787143782138,-35.13592516807951,-35.09207833966676,13.183279742765272
1700081542,0.9679833321202853,-0.23367217643221203,0.048417460356778796,0.0160352125026979,-0.047342055960346185,-0.005803219762881146,-35.399006138555976,-34.98976907337036,13.197895352236188
1700081542,0.9685931238124362,-0.2337941347706422,0.04829550201834862,0.0160352125026979,-0.047342055960346185,-0.005803219762881146,-35.31131248173049,-34.44899152294651,13.007892429114293
1700081542,0.9685931238124362,-0.2342819681243629,0.04829550201834862,0.016646077740895916,-0.047342055960346185,-0.006261368691529657,-35.41362174802689,-35.01900029231219,13.402513884828998
1700081542,0.9679833321202853,-0.2342819681243629,0.04829550201834862,0.016646077740895916,-0.047342055960346185,-0.006261368691529657,-35.45746857643964,-34.98976907337036,13.724057293189126
1700081542,0.9676174571049948,-0.23464784313965342,0.04780766866462793,0.017715091907742442,-0.048258353817643214,-0.006261368691529657,-35.048231511254016,-34.375913475591936,12.744811458637825
1700081542,0.9676174571049948,-0.23464784313965342,0.04780766866462793,0.017715091907742442,-0.048258353817643214,-0.006261368691529657,-35.42823735749781,-34.96053785442853,13.358667056416252
1700081542,0.9687150821508664,-0.23403805144750256,0.04805158534148827,0.018631389765039467,-0.048258353817643214,-0.006108652381980153,-34.522069570301085,-34.8289973691903,12.569424144986845
1700081542,0.9687150821508664,-0.23403805144750256,0.04805158534148827,0.018631389765039467,-0.048258353817643214,-0.006108652381980153,-35.03361590178311,-34.71207249342297,12.993276819643379
1700081542,0.9687150821508664,-0.23342825975535167,0.0479296270030581,0.018784106074588972,-0.047494772269895694,-0.005803219762881146,-35.121309558608594,-34.98976907337036,12.774042677579656
1700081542,0.9687150821508664,-0.23342825975535167,0.0479296270030581,0.018784106074588972,-0.047494772269895694,-0.005803219762881146,-35.530546623794216,-34.8289973691903,12.700964630225082
1700081543,0.9682272487971457,-0.23416000978593274,0.04805158534148827,0.017409659288643436,-0.046883907031697675,-0.006261368691529657,-35.09207833966676,-34.6389944460684,13.665594855305466
1700081543,0.9682272487971457,-0.23416000978593274,0.04805158534148827,0.017409659288643436,-0.046883907031697675,-0.006261368691529657,-35.26746565331774,-34.88745980707396,13.139432914352527
1700081543,0.9685931238124362,-0.23416000978593274,0.04829550201834862,0.01832595714594046,-0.04642575810304917,-0.006108652381980153,-34.6389944460684,-34.78515054077755,13.577901198479978
1700081543,0.9685931238124362,-0.23416000978593274,0.04829550201834862,0.01832595714594046,-0.04627304179349966,-0.006414085001079161,-35.16515638702134,-34.96053785442853,13.358667056416252
1700081543,0.9688370404892966,-0.2355015515086646,0.047563751987767584,0.020158552860534508,-0.04627304179349966,-0.006414085001079161,-35.41362174802689,-34.71207249342297,13.329435837474424
1700081543,0.9688370404892966,-0.2355015515086646,0.047563751987767584,0.022143864884678056,-0.0436768645311581,-0.00916297857297023,-35.16515638702134,-34.65361005553931,13.007892429114293
1700081543,0.9687150821508664,-0.23464784313965342,0.0447587102038736,0.022143864884678056,-0.0436768645311581,-0.00916297857297023,-35.179771996492256,-35.06284712072493,12.890967553346973
1700081543,0.9707883739041795,-0.2333063014169215,0.04500262688073395,0.019547687622336492,-0.039095375244672985,-0.012370021073509811,-35.44285296696872,-34.9313066354867,13.826366559485532
1700081543,0.9707883739041795,-0.2333063014169215,0.04500262688073395,0.019547687622336492,-0.039095375244672985,-0.012370021073509811,-35.223618824905,-34.975153463899446,13.446360713241742
1700081543,0.97115424891947,-0.23233063470948012,0.043783043496432215,0.01634064512179691,-0.03313943917224233,-0.013591751549905842,-35.44285296696872,-35.223618824905,13.154048523823445
1700081543,0.97115424891947,-0.23233063470948012,0.043783043496432215,0.01634064512179691,-0.03313943917224233,-0.013591751549905842,-34.375913475591936,-35.69131832797427,12.67173341128325
1700081543,0.9724957906422018,-0.23159888467889905,0.03951450165137614,0.016493361431346415,-0.026572637861613665,-0.015271630954950384,-35.00438468284127,-35.35515931014323,13.007892429114293
1700081543,0.9724957906422018,-0.23159888467889905,0.03951450165137614,0.016493361431346415,-0.026572637861613665,-0.015271630954950384,-35.10669394913768,-35.25285004384683,12.715580239695996
1700081543,0.9696907488583079,-0.23306238474006113,0.04207562675840978,0.017409659288643436,-0.018936822384138473,-0.0160352125026979,-35.48669979538147,-35.34054370067231,13.25635779011985
1700081543,0.9696907488583079,-0.23306238474006113,0.04207562675840978,0.017409659288643436,-0.018936822384138473,-0.0160352125026979,-35.41362174802689,-34.96053785442853,12.262496346097631
1700081543,0.9720079572884811,-0.227330342833843,0.046466126941896016,0.017867808217291947,-0.012522737383059314,-0.014508049407202865,-34.85822858813212,-35.501315404852384,12.408652440806781
1700081543,0.9720079572884811,-0.227330342833843,0.046466126941896016,0.017867808217291947,-0.012522737383059314,-0.014508049407202865,-35.55977784273604,-35.09207833966676,12.394036831335868
1700081543,0.9694468321814476,-0.22989146794087664,0.05085662712538226,0.014660765716752368,-0.008552113334772215,-0.011301006906663283,-34.96053785442853,-35.121309558608594,12.423268050277697
1700081543,0.9694468321814476,-0.22989146794087664,0.05085662712538226,0.014660765716752368,-0.008552113334772215,-0.011301006906663283,-35.28208126278866,-35.325928091201405,12.657117801812333
1700081543,0.9684711654740061,-0.22562292609582058,0.05305187721712538,0.014660765716752368,-0.008857545953871221,-0.0039706240482871,-35.325928091201405,-35.45746857643964,12.35019000292312
1700081543,0.9684711654740061,-0.22562292609582058,0.05305187721712538,0.014660765716752368,-0.008857545953871221,0.004886921905584123,-35.399006138555976,-35.45746857643964,12.028646594562993
1700081543,0.9672515820897043,-0.2274523011722732,0.057076502385321096,0.011606439525762293,-0.01313360262125733,0.004886921905584123,-35.26746565331774,-35.121309558608594,12.07249342297574
1700081543,0.9672515820897043,-0.2274523011722732,0.057076502385321096,0.00992656012071775,-0.019242255003237483,0.011759155835311794,-35.57439345220696,-34.945922244957615,12.496346097632271
1700081543,0.9657880820285422,-0.2309890929867482,0.0589058774617737,0.00992656012071775,-0.019242255003237483,0.011759155835311794,-34.975153463899446,-35.13592516807951,13.066354866997953
1700081543,0.9637147902752293,-0.23355021809378185,0.06000350250764525,0.009621127501618741,-0.027947084647559205,0.016646077740895916,-34.96053785442853,-34.726688102893895,12.949429991230636
1700081543,0.9637147902752293,-0.23355021809378185,0.06000350250764525,0.009621127501618741,-0.027947084647559205,0.016646077740895916,-35.26746565331774,-35.25285004384683,13.110201695410698
1700081543,0.9632269569215086,-0.23781875993883794,0.05975958583078492,0.011453723216212788,-0.036499197982331415,0.01832595714594046,-34.90207541654487,-34.84361297866121,13.431745103770828
1700081543,0.9632269569215086,-0.23781875993883794,0.05975958583078492,0.011453723216212788,-0.036499197982331415,0.01832595714594046,-35.45746857643964,-35.25285004384683,13.314820228003507
1700081543,0.9639587069520897,-0.2389163849847095,0.05878391912334352,0.014966198335851376,-0.04444044607890562,0.016646077740895916,-34.565916398713824,-35.20900321543408,12.569424144986845
1700081543,0.9639587069520897,-0.2389163849847095,0.05878391912334352,0.014966198335851376,-0.04444044607890562,0.016646077740895916,-34.492838351359254,-35.20900321543408,12.569424144986845
1700081543,0.9653002486748217,-0.2406238017227319,0.05683258570846075,0.015271630954950384,-0.05192354524683131,0.010995574287564275,-35.23823443437591,-34.872844197603044,13.197895352236188
1700081543,0.9653002486748217,-0.2406238017227319,0.05683258570846075,0.015271630954950384,-0.05192354524683131,0.010995574287564275,-35.23823443437591,-35.13592516807951,12.803273896521485
1700081543,0.9661539570438327,-0.23977009335372068,0.0529299188786952,0.01710422666954443,-0.05604688560466791,0.0030543261909900766,-34.9313066354867,-34.975153463899446,13.154048523823445
1700081543,0.9661539570438327,-0.23977009335372068,0.0529299188786952,0.01710422666954443,-0.05604688560466791,0.0030543261909900766,-34.71207249342297,-35.01900029231219,12.861736334405144
1700081543,0.9672515820897043,-0.2387944266462793,0.051832293832823645,0.016646077740895916,-0.056810467152415424,-0.004886921905584123,-35.23823443437591,-34.975153463899446,12.67173341128325
1700081543,0.9672515820897043,-0.2387944266462793,0.051832293832823645,0.014660765716752368,-0.05482515512827187,-0.011453723216212788,-35.09207833966676,-35.09207833966676,13.212510961707103
1700081543,0.9681052904587156,-0.23684309323139652,0.04988096041794087,0.014660765716752368,-0.05482515512827187,-0.011453723216212788,-34.945922244957615,-35.13592516807951,12.78865828705057
1700081543,0.9681052904587156,-0.23672113489296634,0.04866137703363914,0.014049900478554353,-0.052228977865930316,-0.016493361431346415,-35.34054370067231,-34.68284127448115,12.467114878690442
1700081543,0.969934665535168,-0.23672113489296634,0.04866137703363914,0.014049900478554353,-0.052228977865930316,-0.016493361431346415,-35.47208418591055,-35.194387605963165,12.598655363928676
1700081543,0.9695687905198777,-0.23367217643221203,0.04805158534148827,0.020158552860534508,-0.04902193536539073,-0.018631389765039467,-35.296696872259574,-35.70593393744519,13.650979245834552
1700081543,0.9695687905198777,-0.23367217643221203,0.04805158534148827,0.020158552860534508,-0.04902193536539073,-0.018631389765039467,-35.42823735749781,-35.86670564162526,12.233265127155803
1700081543,0.970544457227319,-0.22989146794087664,0.050490752110091734,0.02306016274197508,-0.04612032548395016,-0.018631389765039467,-35.296696872259574,-35.03361590178311,12.335574393452207
1700081543,0.970544457227319,-0.22989146794087664,0.050490752110091734,0.02306016274197508,-0.04612032548395016,-0.018631389765039467,-35.121309558608594,-35.296696872259574,12.78865828705057
1700081543,0.9704224988888888,-0.22940363458715596,0.0497590020795107,0.019700403931885994,-0.04214970143566306,-0.01557706357404939,-35.121309558608594,-35.223618824905,12.510961707103185
1700081543,0.9704224988888888,-0.22940363458715596,0.0497590020795107,0.019700403931885994,-0.04214970143566306,-0.01557706357404939,-35.09207833966676,-35.048231511254016,12.467114878690442
1700081543,0.9690809571661569,-0.23037930129459733,0.05097858546381243,0.016646077740895916,-0.038942658935123484,-0.011759155835311794,-35.23823443437591,-34.71207249342297,12.627886582870506
1700081543,0.9690809571661569,-0.23037930129459733,0.05097858546381243,0.016646077740895916,-0.038942658935123484,-0.011759155835311794,-35.63285589009062,-34.945922244957615,12.116340251388483
1700081543,0.9692029155045871,-0.23074517630988783,0.05134446047910295,0.016187928812247405,-0.03695734691097993,-0.007483099167925688,-35.399006138555976,-34.6389944460684,14.03098509207834
1700081543,0.9692029155045871,-0.23074517630988783,0.05134446047910295,0.016187928812247405,-0.03695734691097993,-0.007483099167925688,-34.726688102893895,-35.121309558608594,12.700964630225082
1700081543,0.9687150821508664,-0.2311110513251784,0.0529299188786952,0.016187928812247405,-0.03558290012503439,-0.0032070425005395805,-34.88745980707396,-34.81438175971938,13.183279742765272
1700081543,0.9687150821508664,-0.2311110513251784,0.0529299188786952,0.016187928812247405,-0.03558290012503439,-0.0032070425005395805,-34.98976907337036,-34.975153463899446,13.344051446945338
1700081543,0.9685931238124362,-0.23281846806320078,0.05268600220183486,0.0160352125026979,-0.03497203488683638,-0.0003054326190990077,-34.96053785442853,-35.150540777550425,13.519438760596318
1700081543,0.9685931238124362,-0.23281846806320078,0.05268600220183486,0.016187928812247405,-0.0358883327441334,0.0024434609527920616,-34.78515054077755,-34.81438175971938,12.96404560070155
1700081543,0.9678613737818552,-0.23147692634046887,0.05427146060142711,0.016187928812247405,-0.0358883327441334,0.0024434609527920616,-34.88745980707396,-35.28208126278866,13.007892429114293
1700081543,0.9678613737818552,-0.23147692634046887,0.05427146060142711,0.014660765716752368,-0.036193765363232405,0.0030543261909900766,-35.06284712072493,-35.55977784273604,13.066354866997953
1700081543,0.9668857070744138,-0.2333063014169215,0.05305187721712538,0.014660765716752368,-0.036193765363232405,0.0030543261909900766,-35.01900029231219,-34.90207541654487,12.890967553346973
1700081543,0.9674954987665647,-0.23306238474006113,0.05366166890927625,0.012675453692608817,-0.0358883327441334,0.0035124751196385882,-35.194387605963165,-35.325928091201405,12.43788365974861
1700081543,0.9674954987665647,-0.23306238474006113,0.05366166890927625,0.012675453692608817,-0.0358883327441334,0.0035124751196385882,-35.179771996492256,-35.16515638702134,13.139432914352527
1700081543,0.9673735404281345,-0.23635525987767586,0.053539710570846076,0.009773843811168246,-0.036193765363232405,0.0033597588100890844,-35.501315404852384,-35.194387605963165,12.262496346097631
1700081543,0.9673735404281345,-0.23635525987767586,0.053539710570846076,0.009773843811168246,-0.036193765363232405,0.0033597588100890844,-34.75591932183572,-35.01900029231219,12.423268050277697
1700081543,0.9665198320591233,-0.2369650515698267,0.0534177522324159,0.013286318930806833,-0.037110063220529434,0.001832595714594046,-35.03361590178311,-35.03361590178311,11.882490499853844
1700081543,0.9665198320591233,-0.2369650515698267,0.0534177522324159,0.013286318930806833,-0.037110063220529434,0.001832595714594046,-35.150540777550425,-35.36977491961415,12.657117801812333
1700081543,0.9678613737818552,-0.23476980147808357,0.05366166890927625,0.01710422666954443,-0.037568212149177944,0.001069014166846527,-35.06284712072493,-34.91669102601578,12.496346097632271
1700081543,0.9678613737818552,-0.23476980147808357,0.05366166890927625,0.01710422666954443,-0.037568212149177944,0.001069014166846527,-34.799766150248466,-35.01900029231219,12.67173341128325
1700081543,0.9676174571049948,-0.23489175981651375,0.05402754392456677,0.0160352125026979,-0.037262779530078935,-0.0004581489286485115,-35.47208418591055,-35.179771996492256,13.08097047646887
1700081543,0.9676174571049948,-0.23489175981651375,0.05402754392456677,0.0160352125026979,-0.037262779530078935,-0.0004581489286485115,-35.70593393744519,-34.88745980707396,12.78865828705057
1700081543,0.9671296237512741,-0.23537959317023444,0.05475929395514781,0.013439035240356337,-0.037415495839628436,-0.0013744467859455344,-35.179771996492256,-35.06284712072493,13.373282665887167
1700081543,0.9671296237512741,-0.23537959317023444,0.05475929395514781,0.014508049407202865,-0.038789942625573975,-0.0016798794050445422,-36.11517100263081,-34.50745396083016,13.037123648056124
1700081543,0.967007665412844,-0.23635525987767586,0.055734960662589185,0.014508049407202865,-0.038789942625573975,-0.0016798794050445422,-36.01286173633441,-34.68284127448115,12.306343174510378
1700081543,0.967007665412844,-0.23598938486238527,0.05451537727828745,0.020158552860534508,-0.040011673101970006,-0.001832595714594046,-35.5159310143233,-34.975153463899446,12.496346097632271
1700081543,0.9679833321202853,-0.23598938486238527,0.05451537727828745,0.020158552860534508,-0.040011673101970006,-0.001832595714594046,-35.121309558608594,-35.194387605963165,12.890967553346973
1700081543,0.9683492071355759,-0.2305012596330275,0.05439341893985729,0.023518311670623588,-0.039706240482871,-0.0004581489286485115,-35.35515931014323,-34.91669102601578,11.970184156679334
1700081543,0.9683492071355759,-0.2305012596330275,0.05439341893985729,0.023518311670623588,-0.039706240482871,-0.0004581489286485115,-34.799766150248466,-34.492838351359254,11.955568547208419
1700081543,0.9701785822120286,-0.23062321797145768,0.05488125229357798,0.017867808217291947,-0.040011673101970006,0.002901609881440573,-35.38439052908507,-34.565916398713824,12.993276819643379
1700081543,0.9701785822120286,-0.23062321797145768,0.05488125229357798,0.017867808217291947,-0.040011673101970006,0.002901609881440573,-35.03361590178311,-34.55130078924291,13.007892429114293
1700081543,0.9672515820897043,-0.2326965097247706,0.05561300232415902,0.01511891464540088,-0.04046982203061852,0.00717766654882668,-34.69745688395206,-34.536685179772,12.715580239695996
1700081543,0.9672515820897043,-0.2326965097247706,0.05561300232415902,0.01511891464540088,-0.04046982203061852,0.00717766654882668,-35.077462730195855,-34.62437883659749,13.124817304881613
1700081543,0.9656661236901122,-0.2376968016004077,0.05561300232415902,0.017715091907742442,-0.04260785036431157,0.010079276430267254,-34.6389944460684,-34.68284127448115,12.657117801812333
1700081543,0.9656661236901122,-0.2376968016004077,0.05561300232415902,0.017715091907742442,-0.04260785036431157,0.010079276430267254,-35.01900029231219,-34.84361297866121,12.627886582870506
1700081543,0.9660319987054026,-0.2369650515698267,0.05829608576962283,0.022143864884678056,-0.045662176555301644,0.010231992739816757,-35.06284712072493,-35.00438468284127,12.35019000292312
1700081543,0.9660319987054026,-0.2369650515698267,0.05829608576962283,0.022143864884678056,-0.045662176555301644,0.010231992739816757,-35.01900029231219,-35.36977491961415,12.496346097632271
1700081543,0.9644465403058102,-0.23684309323139652,0.06012546084607543,0.02199114857512855,-0.049480084294039245,0.009315694882519734,-34.91669102601578,-35.03361590178311,12.481730488161356
1700081543,0.9644465403058102,-0.23684309323139652,0.06012546084607543,0.02199114857512855,-0.049480084294039245,0.009315694882519734,-35.01900029231219,-35.223618824905,12.934814381759718
1700081543,0.9648124153211007,-0.2387944266462793,0.061710919245667684,0.018631389765039467,-0.05665775084286592,0.00717766654882668,-34.62437883659749,-35.06284712072493,12.627886582870506
1700081543,0.9648124153211007,-0.2387944266462793,0.061710919245667684,0.018631389765039467,-0.05665775084286592,0.00717766654882668,-35.13592516807951,-34.81438175971938,13.285589009061678
1700081543,0.9631049985830784,-0.24257513513761464,0.0593937108154944,0.01756237559819294,-0.06398813370124211,0.002748893571891069,-35.530546623794216,-34.62437883659749,13.007892429114293
1700081543,0.9631049985830784,-0.24257513513761464,0.0593937108154944,0.01756237559819294,-0.06398813370124211,0.002748893571891069,-35.20900321543408,-34.75591932183572,13.05173925752704
1700081543,0.9633489152599388,-0.24294101015290517,0.057076502385321096,0.020616701789183015,-0.07040221870232127,-0.004581489286485115,-35.10669394913768,-34.8289973691903,12.218649517684888
1700081543,0.9633489152599388,-0.24294101015290517,0.057076502385321096,0.020311269170084013,-0.0757472895365539,-0.01389718416900485,-35.00438468284127,-35.5159310143233,12.408652440806781
1700081543,0.9654222070132517,-0.24123359341488274,0.05585691900101936,0.020311269170084013,-0.0757472895365539,-0.01389718416900485,-35.150540777550425,-34.770534931306635,12.189418298743057
1700081543,0.9654222070132517,-0.24123359341488274,0.05585691900101936,0.018020524526841452,-0.07666358739385093,-0.022907446432425576,-34.492838351359254,-35.223618824905,11.677871967261035
1700081543,0.9662759153822629,-0.24074576006116208,0.052198168848114165,0.018020524526841452,-0.07666358739385093,-0.022907446432425576,-35.121309558608594,-34.88745980707396,12.130955860859398
1700081543,0.9682272487971457,-0.23672113489296634,0.04902725204892966,0.018936822384138473,-0.07605272215565291,-0.02901609881440573,-35.38439052908507,-35.501315404852384,11.999415375621163
1700081543,0.9706664155657491,-0.2326965097247706,0.0479296270030581,0.019394971312786988,-0.07315111227421234,-0.03283400655314333,-35.42823735749781,-35.01900029231219,13.168664133294358
1700081543,0.9706664155657491,-0.2326965097247706,0.0479296270030581,0.019394971312786988,-0.07315111227421234,-0.03283400655314333,-34.872844197603044,-35.10669394913768,12.452499269219526
1700081543,0.9701785822120286,-0.2319647596941896,0.046588085280326194,0.018478673455489966,-0.06979135346412325,-0.03222314131494531,-35.16515638702134,-35.048231511254016,12.744811458637825
1700081544,0.9701785822120286,-0.2319647596941896,0.046588085280326194,0.018478673455489966,-0.06979135346412325,-0.03222314131494531,-35.296696872259574,-34.68284127448115,13.05173925752704
1700081544,0.9706664155657491,-0.23147692634046887,0.04549046023445463,0.01832595714594046,-0.06475171524898962,-0.030848694528999777,-35.530546623794216,-34.58053200818474,12.949429991230636
1700081544,0.9706664155657491,-0.23147692634046887,0.04549046023445463,0.01832595714594046,-0.06475171524898962,-0.030848694528999777,-35.57439345220696,-34.69745688395206,12.598655363928676
1700081544,0.9707883739041795,-0.22891580123343527,0.043661085158002044,0.018936822384138473,-0.058337630247910464,-0.027947084647559205,-35.23823443437591,-34.58053200818474,12.627886582870506
1700081544,0.9707883739041795,-0.22891580123343527,0.043661085158002044,0.018936822384138473,-0.058337630247910464,-0.027947084647559205,-35.36977491961415,-35.06284712072493,13.212510961707103
1700081544,0.9715201239347604,-0.2263546761264016,0.04402696017329256,0.01756237559819294,-0.05085453107998478,-0.02306016274197508,-34.88745980707396,-35.077462730195855,12.320958783981292
1700081544,0.9715201239347604,-0.2263546761264016,0.04402696017329256,0.01756237559819294,-0.05085453107998478,-0.02306016274197508,-35.10669394913768,-35.31131248173049,12.700964630225082
1700081544,0.9724957906422018,-0.2263546761264016,0.04500262688073395,0.014049900478554353,-0.04321871560250958,-0.01634064512179691,-35.077462730195855,-34.91669102601578,12.8178895059924
1700081544,0.9724957906422018,-0.2263546761264016,0.04500262688073395,0.014049900478554353,-0.04321871560250958,-0.01634064512179691,-35.79362759427068,-34.741303712364804,12.554808535515932
1700081544,0.9710322905810397,-0.2263546761264016,0.0461002519266055,0.012675453692608817,-0.037568212149177944,-0.0079412480965742,-35.223618824905,-34.75591932183572,13.095586085939784
1700081544,0.9710322905810397,-0.2263546761264016,0.0461002519266055,0.012675453692608817,-0.037568212149177944,-0.0079412480965742,-35.41362174802689,-35.048231511254016,13.110201695410698
1700081544,0.97115424891947,-0.2279401345259939,0.04853941869520897,0.015271630954950384,-0.03436116964863836,0.001832595714594046,-35.45746857643964,-35.194387605963165,12.715580239695996
1700081544,0.97115424891947,-0.2279401345259939,0.04853941869520897,0.015271630954950384,-0.03436116964863836,0.001832595714594046,-35.34054370067231,-34.91669102601578,13.241742180648933
1700081544,0.969934665535168,-0.22867188455657492,0.05024683543323139,0.017715091907742442,-0.0319177086958463,0.010231992739816757,-34.90207541654487,-35.00438468284127,13.241742180648933
1700081544,0.969934665535168,-0.22867188455657492,0.05024683543323139,0.017715091907742442,-0.03130684345764829,0.01679879405044542,-35.44285296696872,-34.726688102893895,12.189418298743057
1700081544,0.9689589988277266,-0.23025734295616715,0.05134446047910295,0.017409659288643436,-0.03130684345764829,0.01679879405044542,-35.55977784273604,-34.770534931306635,12.61327097339959
1700081544,0.9689589988277266,-0.23025734295616715,0.05134446047910295,0.01511891464540088,-0.0317649923862968,0.02153299964648004,-35.00438468284127,-35.03361590178311,12.101724641917567
1700081544,0.9684711654740061,-0.2313549680020387,0.05305187721712538,0.01511891464540088,-0.0317649923862968,0.02153299964648004,-35.35515931014323,-34.565916398713824,12.540192926045016
1700081544,0.9684711654740061,-0.2313549680020387,0.053295793893985734,0.012370021073509811,-0.03329215548179183,0.02428189321837111,-35.223618824905,-34.8289973691903,13.110201695410698
1700081544,0.9682272487971457,-0.23489175981651375,0.053295793893985734,0.012370021073509811,-0.03329215548179183,0.02428189321837111,-35.55977784273604,-35.16515638702134,12.700964630225082
1700081544,0.9667637487359836,-0.23659917655453616,0.052564043863404686,0.012675453692608817,-0.035430183815484885,0.025198191075668133,-35.501315404852384,-34.46360713241742,13.826366559485532
1700081544,0.9667637487359836,-0.23659917655453616,0.052564043863404686,0.012675453692608817,-0.035430183815484885,0.025198191075668133,-35.23823443437591,-34.595147617655655,13.095586085939784
1700081544,0.9673735404281345,-0.2374528849235474,0.05195425217125382,0.014660765716752368,-0.036804630601430424,0.024129176908821607,-34.85822858813212,-34.62437883659749,12.379421221864952
1700081544,0.9673735404281345,-0.2374528849235474,0.05195425217125382,0.014660765716752368,-0.036804630601430424,0.024129176908821607,-34.88745980707396,-34.741303712364804,13.05173925752704
1700081544,0.967007665412844,-0.2387944266462793,0.052076210509684,0.014966198335851376,-0.037110063220529434,0.021685715956029545,-34.33206664717919,-34.25898859982461,12.78865828705057
1700081544,0.967007665412844,-0.2387944266462793,0.052076210509684,0.014966198335851376,-0.037110063220529434,0.021685715956029545,-35.06284712072493,-34.75591932183572,12.145571470330314
1700081544,0.9665198320591233,-0.23989205169215086,0.052198168848114165,0.01435533309765336,-0.038026361077826455,0.018020524526841452,-35.10669394913768,-34.741303712364804,12.67173341128325
1700081544,0.9665198320591233,-0.23989205169215086,0.052198168848114165,0.01435533309765336,-0.038026361077826455,0.018020524526841452,-35.194387605963165,-34.595147617655655,12.78865828705057
1700081544,0.9653002486748217,-0.24294101015290517,0.0534177522324159,0.014813482026301871,-0.038484510006474966,0.012522737383059314,-35.296696872259574,-35.00438468284127,12.744811458637825
1700081544,0.9653002486748217,-0.24294101015290517,0.0534177522324159,0.014813482026301871,-0.038484510006474966,0.012522737383059314,-35.779011984799766,-34.8289973691903,13.183279742765272
1700081544,0.9653002486748217,-0.24098967673802243,0.05366166890927625,0.017409659288643436,-0.04046982203061852,0.005650503453331642,-34.9313066354867,-34.975153463899446,12.934814381759718
1700081544,0.9653002486748217,-0.24098967673802243,0.05366166890927625,0.017409659288643436,-0.04153883619746504,-0.001832595714594046,-35.09207833966676,-34.595147617655655,12.525577316574102
1700081544,0.9654222070132517,-0.24184338510703363,0.05414950226299693,0.015729779883598895,-0.04153883619746504,-0.001832595714594046,-35.150540777550425,-34.872844197603044,12.291727565039462
1700081544,0.9654222070132517,-0.24184338510703363,0.05414950226299693,0.014508049407202865,-0.04321871560250958,-0.00916297857297023,-35.150540777550425,-34.85822858813212,12.78865828705057
1700081544,0.9653002486748217,-0.24098967673802243,0.05475929395514781,0.014508049407202865,-0.04321871560250958,-0.00916297857297023,-35.57439345220696,-34.58053200818474,13.095586085939784
1700081544,0.9653002486748217,-0.24098967673802243,0.05475929395514781,0.01389718416900485,-0.04550946024575214,-0.01511891464540088,-35.603624671148786,-34.71207249342297,12.832505115463313
1700081544,0.9653002486748217,-0.24159946843017327,0.05475929395514781,0.01389718416900485,-0.04550946024575214,-0.01511891464540088,-34.85822858813212,-34.58053200818474,12.700964630225082
1700081544,0.9656661236901122,-0.23940421833843015,0.05512516897043832,0.0160352125026979,-0.04871650274629172,-0.020005836550985003,-35.96901490792166,-34.85822858813212,12.481730488161356
1700081544,0.9656661236901122,-0.23940421833843015,0.05512516897043832,0.0160352125026979,-0.04871650274629172,-0.020005836550985003,-35.09207833966676,-34.60976322712657,12.96404560070155
1700081544,0.9654222070132517,-0.23781875993883794,0.05439341893985729,0.018020524526841452,-0.05192354524683131,-0.022143864884678056,-35.35515931014323,-34.522069570301085,12.8178895059924
1700081544,0.9654222070132517,-0.23781875993883794,0.05439341893985729,0.018020524526841452,-0.05192354524683131,-0.022143864884678056,-35.31131248173049,-34.945922244957615,13.475591932183573
1700081544,0.9656661236901122,-0.23586742652395515,0.05463733561671763,0.01832595714594046,-0.05467243881872237,-0.02306016274197508,-35.48669979538147,-35.23823443437591,12.394036831335868
1700081544,0.9656661236901122,-0.23586742652395515,0.05463733561671763,0.01832595714594046,-0.05467243881872237,-0.02306016274197508,-35.44285296696872,-35.10669394913768,12.890967553346973
1700081544,0.967007665412844,-0.2342819681243629,0.05414950226299693,0.017256942979093935,-0.057879481319261954,-0.02306016274197508,-35.69131832797427,-35.223618824905,12.335574393452207
1700081544,0.967007665412844,-0.2342819681243629,0.05414950226299693,0.017256942979093935,-0.057879481319261954,-0.02306016274197508,-34.84361297866121,-35.194387605963165,13.227126571178019
1700081544,0.9667637487359836,-0.23306238474006113,0.052807960540265035,0.01679879405044542,-0.06001750965295501,-0.02107485071783153,-35.179771996492256,-35.077462730195855,13.431745103770828
1700081544,0.9667637487359836,-0.23306238474006113,0.052807960540265035,0.01679879405044542,-0.06001750965295501,-0.02107485071783153,-34.945922244957615,-35.36977491961415,13.02250803858521
1700081544,0.9676174571049948,-0.23281846806320078,0.050490752110091734,0.016646077740895916,-0.061086523819801536,-0.018173240836390957,-35.38439052908507,-35.545162233265124,12.67173341128325
1700081544,0.9676174571049948,-0.23281846806320078,0.050490752110091734,0.016646077740895916,-0.061086523819801536,-0.018173240836390957,-35.73516515638702,-35.6182402806197,12.715580239695996
1700081544,0.9692029155045871,-0.23233063470948012,0.0497590020795107,0.016646077740895916,-0.062002821677098564,-0.014508049407202865,-35.35515931014323,-35.31131248173049,12.803273896521485
1700081544,0.9692029155045871,-0.23233063470948012,0.0497590020795107,0.016646077740895916,-0.062002821677098564,-0.014508049407202865,-35.35515931014323,-35.23823443437591,12.218649517684888
1700081544,0.9698127071967381,-0.23172084301732923,0.04988096041794087,0.017867808217291947,-0.06047565858160352,-0.010231992739816757,-35.077462730195855,-35.325928091201405,13.446360713241742
1700081544,0.9698127071967381,-0.23172084301732923,0.04988096041794087,0.017867808217291947,-0.06047565858160352,-0.006414085001079161,-35.45746857643964,-35.45746857643964,12.525577316574102
1700081544,0.9694468321814476,-0.23208671803261977,0.047319835310907235,0.018784106074588972,-0.059253928105207486,-0.006414085001079161,-35.8082432037416,-35.501315404852384,12.58403975445776
1700081544,0.9694468321814476,-0.23208671803261977,0.047319835310907235,0.01832595714594046,-0.05543602036646989,-0.0032070425005395805,-35.64747149956153,-35.603624671148786,13.519438760596318
1700081544,0.9704224988888888,-0.23172084301732923,0.04561241857288481,0.01832595714594046,-0.05543602036646989,-0.0032070425005395805,-35.179771996492256,-35.530546623794216,13.197895352236188
1700081544,0.9704224988888888,-0.23172084301732923,0.04561241857288481,0.016187928812247405,-0.05070181477043527,-0.0004581489286485115,-35.00438468284127,-35.150540777550425,13.241742180648933
1700081544,0.970544457227319,-0.23172084301732923,0.04549046023445463,0.016187928812247405,-0.05070181477043527,-0.0004581489286485115,-35.72054954691611,-35.09207833966676,13.197895352236188
1700081544,0.9696907488583079,-0.23294042640163096,0.04500262688073395,0.014660765716752368,-0.04581489286485115,0.002138028333693054,-35.5159310143233,-35.048231511254016,13.270973399590764
1700081544,0.9696907488583079,-0.23294042640163096,0.04500262688073395,0.014660765716752368,-0.04581489286485115,0.002138028333693054,-35.76439637532885,-35.10669394913768,12.920198772288805
1700081544,0.9706664155657491,-0.23208671803261977,0.047319835310907235,0.014813482026301871,-0.04092797095926703,0.004581489286485115,-35.296696872259574,-35.06284712072493,12.61327097339959
1700081544,0.9706664155657491,-0.23208671803261977,0.047319835310907235,0.014813482026301871,-0.04092797095926703,0.004581489286485115,-35.44285296696872,-34.9313066354867,12.642502192341421
1700081544,0.9688370404892966,-0.23355021809378185,0.047197876972477064,0.01435533309765336,-0.036499197982331415,0.006414085001079161,-35.16515638702134,-35.16515638702134,12.408652440806781
1700081544,0.9688370404892966,-0.23355021809378185,0.047197876972477064,0.01435533309765336,-0.036499197982331415,0.006414085001079161,-35.36977491961415,-34.84361297866121,12.78865828705057
1700081544,0.9676174571049948,-0.23598938486238527,0.04939312706422018,0.014202616788103856,-0.03313943917224233,0.008246680715673207,-35.501315404852384,-35.10669394913768,12.627886582870506
1700081544,0.9676174571049948,-0.23598938486238527,0.04939312706422018,0.014202616788103856,-0.03313943917224233,0.008246680715673207,-35.38439052908507,-35.16515638702134,13.314820228003507
1700081544,0.9673735404281345,-0.23867246830784913,0.04914921038735983,0.0158824961931484,-0.0317649923862968,0.00717766654882668,-35.077462730195855,-34.975153463899446,12.627886582870506
1700081544,0.9673735404281345,-0.23867246830784913,0.04914921038735983,0.0158824961931484,-0.0317649923862968,0.00717766654882668,-35.23823443437591,-35.150540777550425,13.446360713241742
1700081544,0.9673735404281345,-0.23720896824668705,0.04829550201834862,0.016951510359994926,-0.029168815123955232,0.0035124751196385882,-35.42823735749781,-35.121309558608594,12.452499269219526
1700081544,0.9673735404281345,-0.23720896824668705,0.04829550201834862,0.012370021073509811,-0.026114488932965158,-0.001069014166846527,-35.501315404852384,-35.13592516807951,13.124817304881613
1700081544,0.967739415443425,-0.23574546818552497,0.04939312706422018,0.012370021073509811,-0.026114488932965158,-0.001069014166846527,-35.194387605963165,-34.98976907337036,12.379421221864952
1700081544,0.967739415443425,-0.23574546818552497,0.04939312706422018,0.007635815477475192,-0.02428189321837111,-0.003817907738737596,-35.35515931014323,-35.077462730195855,12.890967553346973
1700081544,0.9671296237512741,-0.23684309323139652,0.05195425217125382,0.007635815477475192,-0.02428189321837111,-0.003817907738737596,-35.399006138555976,-34.69745688395206,13.066354866997953
1700081544,0.9653002486748217,-0.240014010030581,0.05512516897043832,0.010842857978014772,-0.024587325837470118,-0.0039706240482871,-35.06284712072493,-35.38439052908507,12.8178895059924
1700081544,0.9653002486748217,-0.240014010030581,0.05512516897043832,0.010842857978014772,-0.024587325837470118,-0.0039706240482871,-35.41362174802689,-34.770534931306635,12.890967553346973
1700081544,0.9648124153211007,-0.23855050996941896,0.057076502385321096,0.019547687622336492,-0.028405233576207712,-0.0039706240482871,-34.741303712364804,-35.03361590178311,12.84712072493423
1700081544,0.9648124153211007,-0.23855050996941896,0.057076502385321096,0.019547687622336492,-0.028405233576207712,-0.0039706240482871,-35.44285296696872,-35.20900321543408,13.7971353405437
1700081544,0.9635928319367991,-0.23586742652395515,0.06061329419979613,0.023976460599272102,-0.035735616434583894,-0.004123340357836604,-35.44285296696872,-35.03361590178311,13.110201695410698
1700081544,0.9635928319367991,-0.23586742652395515,0.06061329419979613,0.023976460599272102,-0.035735616434583894,-0.004123340357836604,-35.83747442268342,-35.325928091201405,13.197895352236188
1700081544,0.9634708735983688,-0.23623330153924563,0.06146700256880734,0.020616701789183015,-0.04459316238845512,-0.005039638215133627,-35.545162233265124,-35.179771996492256,13.73867290266004
1700081544,0.9634708735983688,-0.23623330153924563,0.06146700256880734,0.020616701789183015,-0.04459316238845512,-0.005039638215133627,-35.45746857643964,-35.13592516807951,12.262496346097631
1700081544,0.9627391235677879,-0.23794071827726807,0.06061329419979613,0.014966198335851376,-0.05406157358052436,-0.006261368691529657,-35.121309558608594,-35.41362174802689,12.481730488161356
1700081544,0.9627391235677879,-0.23794071827726807,0.06061329419979613,0.014966198335851376,-0.05406157358052436,-0.006261368691529657,-35.69131832797427,-34.945922244957615,12.43788365974861
1700081544,0.9635928319367991,-0.23928226,0.057076502385321096,0.012980886311707827,-0.06261368691529658,-0.008093964406123703,-35.86670564162526,-34.6389944460684,12.408652440806781
1700081544,0.9635928319367991,-0.23928226,0.057076502385321096,0.012980886311707827,-0.06261368691529658,-0.008093964406123703,-35.83747442268342,-35.42823735749781,12.978661210172465
1700081544,0.9662759153822629,-0.2376968016004077,0.053295793893985734,0.015271630954950384,-0.06902777191637574,-0.009773843811168246,-35.501315404852384,-35.296696872259574,12.774042677579656
1700081544,0.9662759153822629,-0.2376968016004077,0.053295793893985734,0.015271630954950384,-0.06902777191637574,-0.009773843811168246,-35.048231511254016,-34.84361297866121,12.759427068108739
1700081544,0.9683492071355759,-0.23574546818552497,0.04902725204892966,0.018020524526841452,-0.07024950239277176,-0.012217304763960306,-35.06284712072493,-34.39052908506285,12.832505115463313
1700081544,0.9683492071355759,-0.23574546818552497,0.04902725204892966,0.018020524526841452,-0.07024950239277176,-0.012217304763960306,-35.530546623794216,-34.565916398713824,12.291727565039462
1700081544,0.9695687905198777,-0.23464784313965342,0.04390500183486238,0.018631389765039467,-0.06704245989223219,-0.013439035240356337,-35.26746565331774,-34.799766150248466,12.320958783981292
1700081544,0.9695687905198777,-0.23464784313965342,0.04390500183486238,0.018020524526841452,-0.06047565858160352,-0.013744467859455345,-35.82285881321251,-34.62437883659749,13.007892429114293
1700081544,0.9717640406116207,-0.2326965097247706,0.043539126819571866,0.018020524526841452,-0.06047565858160352,-0.013744467859455345,-34.88745980707396,-35.296696872259574,13.548669979538147
1700081544,0.9717640406116207,-0.2326965097247706,0.043539126819571866,0.018020524526841452,-0.05268712679457882,-0.013286318930806833,-35.41362174802689,-34.84361297866121,13.241742180648933
1700081544,0.9713981655963302,-0.2326965097247706,0.043661085158002044,0.018020524526841452,-0.05268712679457882,-0.013286318930806833,-35.325928091201405,-35.13592516807951,12.832505115463313
1700081544,0.9709103322426095,-0.23294042640163096,0.04414891851172273,0.01832595714594046,-0.0439822971502571,-0.010995574287564275,-35.501315404852384,-34.726688102893895,12.8178895059924
1700081544,0.9709103322426095,-0.23294042640163096,0.04414891851172273,0.01832595714594046,-0.0439822971502571,-0.010995574287564275,-35.01900029231219,-34.492838351359254,13.212510961707103
1700081545,0.969934665535168,-0.23147692634046887,0.04524654355759429,0.0198531202414355,-0.036499197982331415,-0.008704829644321718,-35.64747149956153,-34.872844197603044,13.212510961707103
1700081545,0.969934665535168,-0.23147692634046887,0.04524654355759429,0.0198531202414355,-0.036499197982331415,-0.008704829644321718,-35.64747149956153,-34.726688102893895,13.431745103770828
1700081545,0.969934665535168,-0.2305012596330275,0.04902725204892966,0.01832595714594046,-0.03115412714809878,-0.005345070834232635,-35.73516515638702,-34.71207249342297,13.241742180648933
1700081545,0.969934665535168,-0.2305012596330275,0.04902725204892966,0.01832595714594046,-0.03115412714809878,-0.005345070834232635,-35.20900321543408,-34.58053200818474,13.139432914352527
1700081545,0.9685931238124362,-0.23233063470948012,0.05097858546381243,0.01389718416900485,-0.02871066619530672,-0.0015271630954950383,-35.41362174802689,-34.58053200818474,12.569424144986845
1700081545,0.9685931238124362,-0.23233063470948012,0.05097858546381243,0.01389718416900485,-0.02871066619530672,-0.0015271630954950383,-35.10669394913768,-34.75591932183572,12.803273896521485
1700081545,0.967739415443425,-0.2342819681243629,0.052564043863404686,0.012217304763960306,-0.0277943683380097,0.0013744467859455344,-35.26746565331774,-34.90207541654487,12.394036831335868
1700081545,0.967739415443425,-0.2342819681243629,0.052564043863404686,0.012217304763960306,-0.0277943683380097,0.0013744467859455344,-35.73516515638702,-35.23823443437591,12.774042677579656
1700081545,0.9657880820285422,-0.2355015515086646,0.053173835555555556,0.013286318930806833,-0.02871066619530672,0.002901609881440573,-35.55977784273604,-34.91669102601578,11.926337328266587
1700081545,0.9657880820285422,-0.2355015515086646,0.053173835555555556,0.013286318930806833,-0.02871066619530672,0.002901609881440573,-35.325928091201405,-35.16515638702134,12.920198772288805
1700081545,0.9646904569826708,-0.23635525987767586,0.05512516897043832,0.014660765716752368,-0.0317649923862968,0.0039706240482871,-35.325928091201405,-34.81438175971938,13.110201695410698
1700081545,0.9646904569826708,-0.23635525987767586,0.05512516897043832,0.014660765716752368,-0.036193765363232405,0.003665191429188092,-34.536685179772,-34.565916398713824,12.90558316281789
1700081545,0.9646904569826708,-0.23708700990825687,0.05646671069317023,0.01511891464540088,-0.036193765363232405,0.003665191429188092,-34.6389944460684,-35.20900321543408,12.715580239695996
1700081545,0.9646904569826708,-0.23708700990825687,0.05646671069317023,0.015271630954950384,-0.04077525464971753,0.001832595714594046,-35.296696872259574,-35.077462730195855,12.247880736626717
1700081545,0.96420262362895,-0.23855050996941896,0.05585691900101936,0.015271630954950384,-0.04077525464971753,0.001832595714594046,-35.530546623794216,-34.91669102601578,12.890967553346973
1700081545,0.9659100403669724,-0.2387944266462793,0.05500321063200815,0.015424347264499889,-0.04474587869800463,-0.0004581489286485115,-35.93978368897983,-35.194387605963165,13.168664133294358
1700081545,0.9659100403669724,-0.2387944266462793,0.05500321063200815,0.015424347264499889,-0.04474587869800463,-0.0004581489286485115,-35.150540777550425,-34.75591932183572,13.007892429114293
1700081545,0.9660319987054026,-0.2376968016004077,0.053539710570846076,0.01557706357404939,-0.04871650274629172,-0.0030543261909900766,-35.38439052908507,-34.71207249342297,12.949429991230636
1700081545,0.9660319987054026,-0.2376968016004077,0.053539710570846076,0.01557706357404939,-0.04871650274629172,-0.0030543261909900766,-35.20900321543408,-34.595147617655655,12.554808535515932
1700081545,0.9663978737206931,-0.23684309323139652,0.052807960540265035,0.014508049407202865,-0.050396382151336266,-0.005955936072430649,-35.26746565331774,-34.741303712364804,13.270973399590764
1700081545,0.9663978737206931,-0.23684309323139652,0.052807960540265035,0.014508049407202865,-0.050396382151336266,-0.005955936072430649,-35.06284712072493,-35.01900029231219,12.58403975445776
1700081545,0.9673735404281345,-0.23733092658511723,0.051466418817533124,0.01511891464540088,-0.05207626155638081,-0.00839939702522271,-35.399006138555976,-34.741303712364804,12.87635194387606
1700081545,0.9673735404281345,-0.23733092658511723,0.051466418817533124,0.01511891464540088,-0.05207626155638081,-0.00839939702522271,-35.44285296696872,-34.975153463899446,12.84712072493423
1700081545,0.9685931238124362,-0.23672113489296634,0.051466418817533124,0.016951510359994926,-0.05146539631818279,-0.009010262263420726,-35.194387605963165,-34.88745980707396,13.08097047646887
1700081545,0.9685931238124362,-0.23672113489296634,0.051466418817533124,0.016951510359994926,-0.05146539631818279,-0.009010262263420726,-35.077462730195855,-34.68284127448115,13.05173925752704
1700081545,0.9685931238124362,-0.23537959317023444,0.0497590020795107,0.018631389765039467,-0.05070181477043527,-0.009315694882519734,-35.31131248173049,-35.150540777550425,12.96404560070155
1700081545,0.9685931238124362,-0.23537959317023444,0.0497590020795107,0.018631389765039467,-0.05070181477043527,-0.009315694882519734,-35.20900321543408,-34.799766150248466,13.241742180648933
1700081545,0.9693248738430171,-0.23355021809378185,0.05012487709480122,0.017867808217291947,-0.049174651674940235,-0.00916297857297023,-35.121309558608594,-34.770534931306635,12.642502192341421
1700081545,0.9693248738430171,-0.23355021809378185,0.05012487709480122,0.017867808217291947,-0.049174651674940235,-0.00916297857297023,-35.150540777550425,-34.799766150248466,12.744811458637825
1700081545,0.9690809571661569,-0.2333063014169215,0.0497590020795107,0.0158824961931484,-0.045662176555301644,-0.008704829644321718,-35.10669394913768,-34.945922244957615,13.02250803858521
1700081545,0.9690809571661569,-0.23513567649337408,0.04939312706422018,0.01511891464540088,-0.04276056667386108,-0.008093964406123703,-35.121309558608594,-34.66822566501023,13.139432914352527
1700081545,0.9676174571049948,-0.23513567649337408,0.04939312706422018,0.01511891464540088,-0.04276056667386108,-0.008093964406123703,-35.42823735749781,-35.06284712072493,13.124817304881613
1700081545,0.9681052904587156,-0.23416000978593274,0.05097858546381243,0.017409659288643436,-0.04169155250701455,-0.006261368691529657,-35.048231511254016,-35.223618824905,13.373282665887167
1700081545,0.9681052904587156,-0.23416000978593274,0.05097858546381243,0.017409659288643436,-0.04169155250701455,-0.006261368691529657,-35.35515931014323,-34.47822274188834,12.657117801812333
1700081545,0.9676174571049948,-0.23464784313965342,0.0515883771559633,0.018631389765039467,-0.04276056667386108,-0.004276056667386108,-34.84361297866121,-34.81438175971938,13.168664133294358
1700081545,0.9676174571049948,-0.23464784313965342,0.0515883771559633,0.018631389765039467,-0.04276056667386108,-0.004276056667386108,-35.10669394913768,-34.46360713241742,13.139432914352527
1700081545,0.9674954987665647,-0.23464784313965342,0.05268600220183486,0.01832595714594046,-0.04352414822160859,-0.002748893571891069,-35.13592516807951,-34.741303712364804,13.05173925752704
1700081545,0.9674954987665647,-0.23464784313965342,0.05268600220183486,0.01832595714594046,-0.04352414822160859,-0.002748893571891069,-35.399006138555976,-34.65361005553931,13.154048523823445
1700081545,0.9665198320591233,-0.23501371815494393,0.052442085524974515,0.016646077740895916,-0.04520402762665313,-0.0030543261909900766,-35.42823735749781,-34.40514469453376,13.650979245834552
1700081545,0.9665198320591233,-0.23501371815494393,0.052442085524974515,0.016646077740895916,-0.04520402762665313,-0.0030543261909900766,-35.44285296696872,-35.077462730195855,13.212510961707103
1700081545,0.9673735404281345,-0.23489175981651375,0.052564043863404686,0.014966198335851376,-0.04612032548395016,-0.0030543261909900766,-34.91669102601578,-34.492838351359254,13.475591932183573
1700081545,0.9673735404281345,-0.23489175981651375,0.052564043863404686,0.014966198335851376,-0.04612032548395016,-0.0030543261909900766,-35.25285004384683,-34.27360420929553,13.694826074247295
1700081545,0.9674954987665647,-0.23574546818552497,0.05268600220183486,0.013439035240356337,-0.047036623341247176,-0.0032070425005395805,-34.88745980707396,-35.34054370067231,13.037123648056124
1700081545,0.9674954987665647,-0.23574546818552497,0.05268600220183486,0.013439035240356337,-0.047036623341247176,-0.0032070425005395805,-34.85822858813212,-34.88745980707396,12.920198772288805
1700081545,0.9667637487359836,-0.23684309323139652,0.05085662712538226,0.013744467859455345,-0.047036623341247176,-0.0039706240482871,-35.01900029231219,-34.375913475591936,13.270973399590764
1700081545,0.9667637487359836,-0.23684309323139652,0.05085662712538226,0.013744467859455345,-0.047036623341247176,-0.0039706240482871,-35.26746565331774,-34.69745688395206,13.475591932183573
1700081545,0.9676174571049948,-0.2355015515086646,0.05000291875637105,0.01756237559819294,-0.0478002048889947,-0.004276056667386108,-34.8289973691903,-34.65361005553931,13.519438760596318
1700081545,0.9676174571049948,-0.2355015515086646,0.05000291875637105,0.01756237559819294,-0.0478002048889947,-0.004276056667386108,-35.121309558608594,-34.47822274188834,12.920198772288805
1700081545,0.9681052904587156,-0.23501371815494393,0.04939312706422018,0.018478673455489966,-0.04642575810304917,-0.004886921905584123,-35.20900321543408,-34.47822274188834,13.270973399590764
1700081545,0.9681052904587156,-0.23501371815494393,0.04939312706422018,0.017256942979093935,-0.044898595007554123,-0.004581489286485115,-35.83747442268342,-34.65361005553931,13.91406021631102
1700081545,0.9685931238124362,-0.23403805144750256,0.051466418817533124,0.017256942979093935,-0.044898595007554123,-0.004581489286485115,-35.296696872259574,-34.91669102601578,12.803273896521485
1700081545,0.9682272487971457,-0.23464784313965342,0.05122250214067278,0.0160352125026979,-0.04428772976935611,-0.0039706240482871,-34.799766150248466,-34.565916398713824,13.05173925752704
1700081545,0.9682272487971457,-0.23464784313965342,0.05122250214067278,0.0160352125026979,-0.04428772976935611,-0.0039706240482871,-35.38439052908507,-34.43437591347559,12.993276819643379
1700081545,0.9676174571049948,-0.23513567649337408,0.050612710448521905,0.016646077740895916,-0.0436768645311581,-0.0033597588100890844,-34.65361005553931,-34.6389944460684,13.577901198479978
1700081545,0.9676174571049948,-0.23513567649337408,0.050612710448521905,0.016646077740895916,-0.0436768645311581,-0.0033597588100890844,-34.81438175971938,-34.81438175971938,13.066354866997953
1700081545,0.9673735404281345,-0.23440392646279307,0.05036879377166156,0.016646077740895916,-0.04276056667386108,-0.0022907446432425577,-35.44285296696872,-34.726688102893895,13.417129494299912
1700081545,0.9673735404281345,-0.23440392646279307,0.05036879377166156,0.016646077740895916,-0.04276056667386108,-0.0022907446432425577,-35.58900906167787,-34.595147617655655,13.285589009061678
1700081545,0.9676174571049948,-0.23525763483180426,0.05195425217125382,0.015271630954950384,-0.04260785036431157,-0.002138028333693054,-35.545162233265124,-34.58053200818474,12.627886582870506
1700081545,0.9676174571049948,-0.23525763483180426,0.05195425217125382,0.015271630954950384,-0.04260785036431157,-0.002138028333693054,-34.945922244957615,-34.90207541654487,12.408652440806781
1700081545,0.9665198320591233,-0.23659917655453616,0.052076210509684,0.014813482026301871,-0.04276056667386108,-0.00198531202414355,-35.325928091201405,-34.65361005553931,12.700964630225082
1700081545,0.9665198320591233,-0.23659917655453616,0.052076210509684,0.014813482026301871,-0.04276056667386108,-0.00198531202414355,-35.5159310143233,-35.194387605963165,12.700964630225082
1700081545,0.9671296237512741,-0.2374528849235474,0.052564043863404686,0.016187928812247405,-0.0436768645311581,-0.001832595714594046,-35.03361590178311,-34.44899152294651,12.306343174510378
1700081545,0.9671296237512741,-0.2374528849235474,0.052564043863404686,0.016187928812247405,-0.0436768645311581,-0.001832595714594046,-34.66822566501023,-34.71207249342297,13.197895352236188
1700081545,0.9673735404281345,-0.2374528849235474,0.053295793893985734,0.01710422666954443,-0.04550946024575214,-0.0032070425005395805,-35.03361590178311,-34.872844197603044,13.577901198479978
1700081545,0.9673735404281345,-0.2374528849235474,0.053295793893985734,0.01710422666954443,-0.04550946024575214,-0.004886921905584123,-35.194387605963165,-35.31131248173049,12.8178895059924
1700081545,0.9659100403669724,-0.23672113489296634,0.053295793893985734,0.01634064512179691,-0.04657847441259867,-0.004886921905584123,-34.9313066354867,-34.975153463899446,12.715580239695996
1700081545,0.9659100403669724,-0.23672113489296634,0.053295793893985734,0.0160352125026979,-0.04871650274629172,-0.006872233929727673,-34.88745980707396,-34.595147617655655,14.118678748903829
1700081545,0.9662759153822629,-0.23623330153924563,0.053539710570846076,0.0160352125026979,-0.04871650274629172,-0.006872233929727673,-34.98976907337036,-34.770534931306635,13.475591932183573
1700081545,0.9662759153822629,-0.23623330153924563,0.053539710570846076,0.01557706357404939,-0.049632800603588746,-0.007788531787024695,-35.13592516807951,-34.98976907337036,13.753288512130958
1700081545,0.967007665412844,-0.23635525987767586,0.05232012718654434,0.01557706357404939,-0.049632800603588746,-0.007788531787024695,-35.28208126278866,-35.25285004384683,14.016369482607423
1700081545,0.9682272487971457,-0.23525763483180426,0.0515883771559633,0.014813482026301871,-0.049938233222687756,-0.007788531787024695,-35.048231511254016,-35.03361590178311,13.884828997369189
1700081545,0.9682272487971457,-0.23525763483180426,0.0515883771559633,0.014813482026301871,-0.049938233222687756,-0.007788531787024695,-35.676702718503364,-34.88745980707396,12.335574393452207
1700081545,0.9679833321202853,-0.23513567649337408,0.05024683543323139,0.014813482026301871,-0.050396382151336266,-0.0070249502392771765,-35.10669394913768,-35.16515638702134,12.8178895059924
1700081545,0.9679833321202853,-0.23513567649337408,0.05024683543323139,0.014813482026301871,-0.050396382151336266,-0.0070249502392771765,-34.65361005553931,-35.09207833966676,13.08097047646887
1700081545,0.9685931238124362,-0.23476980147808357,0.05012487709480122,0.01634064512179691,-0.04902193536539073,-0.00717766654882668,-34.91669102601578,-35.16515638702134,14.162525577316574
1700081545,0.9685931238124362,-0.23476980147808357,0.05012487709480122,0.01634064512179691,-0.04902193536539073,-0.00717766654882668,-34.62437883659749,-35.06284712072493,12.744811458637825
1700081545,0.9681052904587156,-0.23367217643221203,0.050490752110091734,0.016493361431346415,-0.047647488579445195,-0.006261368691529657,-35.44285296696872,-34.75591932183572,13.168664133294358
1700081545,0.9681052904587156,-0.23367217643221203,0.050490752110091734,0.016493361431346415,-0.047647488579445195,-0.006261368691529657,-35.58900906167787,-34.84361297866121,12.759427068108739
1700081545,0.9682272487971457,-0.23501371815494393,0.0497590020795107,0.016187928812247405,-0.046883907031697675,-0.005803219762881146,-35.99824612686349,-34.65361005553931,13.56328558900906
1700081545,0.9682272487971457,-0.23501371815494393,0.0497590020795107,0.016187928812247405,-0.046883907031697675,-0.005803219762881146,-35.76439637532885,-35.01900029231219,12.949429991230636
1700081545,0.9682272487971457,-0.23537959317023444,0.05110054380224261,0.01679879405044542,-0.045662176555301644,-0.004734205596034618,-35.179771996492256,-35.20900321543408,13.285589009061678
1700081545,0.9682272487971457,-0.23537959317023444,0.05110054380224261,0.01679879405044542,-0.045662176555301644,-0.004734205596034618,-35.45746857643964,-34.96053785442853,12.277111955568547
1700081545,0.9674954987665647,-0.23574546818552497,0.05097858546381243,0.01756237559819294,-0.04505131131710363,-0.004428772976935611,-35.223618824905,-35.048231511254016,13.154048523823445
1700081545,0.9674954987665647,-0.23574546818552497,0.05097858546381243,0.01756237559819294,-0.04505131131710363,-0.004428772976935611,-35.35515931014323,-34.75591932183572,13.504823151125404
1700081545,0.9684711654740061,-0.2355015515086646,0.05122250214067278,0.01710422666954443,-0.04520402762665313,-0.0039706240482871,-34.8289973691903,-34.91669102601578,13.76790412160187
1700081545,0.9684711654740061,-0.2355015515086646,0.05122250214067278,0.01710422666954443,-0.04520402762665313,-0.0039706240482871,-35.6182402806197,-34.68284127448115,12.657117801812333
1700081545,0.9681052904587156,-0.2356235098470948,0.051832293832823645,0.016187928812247405,-0.04581489286485115,-0.003817907738737596,-35.13592516807951,-34.75591932183572,12.525577316574102
1700081545,0.9681052904587156,-0.2356235098470948,0.051832293832823645,0.016187928812247405,-0.04581489286485115,-0.003817907738737596,-35.01900029231219,-35.00438468284127,12.657117801812333
1700081545,0.9674954987665647,-0.23537959317023444,0.05097858546381243,0.01557706357404939,-0.045662176555301644,-0.0039706240482871,-35.25285004384683,-34.361297866121014,12.90558316281789
1700081545,0.9674954987665647,-0.23537959317023444,0.05097858546381243,0.0158824961931484,-0.045662176555301644,-0.004123340357836604,-35.72054954691611,-35.150540777550425,13.300204618532593
1700081545,0.9674954987665647,-0.2356235098470948,0.05024683543323139,0.0158824961931484,-0.045662176555301644,-0.004123340357836604,-35.296696872259574,-35.01900029231219,13.680210464776382
1700081545,0.9674954987665647,-0.2356235098470948,0.05024683543323139,0.016493361431346415,-0.04520402762665313,-0.004123340357836604,-35.34054370067231,-35.09207833966676,13.753288512130958
1700081545,0.9681052904587156,-0.2356235098470948,0.04951508540265035,0.016493361431346415,-0.04520402762665313,-0.004123340357836604,-35.55977784273604,-34.9313066354867,12.920198772288805
1700081545,0.967007665412844,-0.23476980147808357,0.04914921038735983,0.016646077740895916,-0.04428772976935611,-0.004276056667386108,-35.64747149956153,-35.16515638702134,13.197895352236188
1700081545,0.967007665412844,-0.23476980147808357,0.04914921038735983,0.016646077740895916,-0.04428772976935611,-0.004276056667386108,-35.55977784273604,-34.91669102601578,12.803273896521485
1700081545,0.9687150821508664,-0.23476980147808357,0.04988096041794087,0.0160352125026979,-0.04291328298341058,-0.0039706240482871,-35.73516515638702,-34.9313066354867,12.174802689272141
1700081545,0.9687150821508664,-0.23476980147808357,0.04988096041794087,0.0160352125026979,-0.04291328298341058,-0.0039706240482871,-35.44285296696872,-35.150540777550425,11.502484653610056
1700081546,0.9678613737818552,-0.23537959317023444,0.050734668786952083,0.01435533309765336,-0.04123340357836603,-0.0035124751196385882,-35.121309558608594,-35.25285004384683,11.794796843028355
1700081546,0.9678613737818552,-0.23537959317023444,0.050734668786952083,0.01435533309765336,-0.04123340357836603,-0.0035124751196385882,-35.676702718503364,-35.47208418591055,12.510961707103185
1700081546,0.9682272487971457,-0.23635525987767586,0.051466418817533124,0.016187928812247405,-0.04138611988791554,-0.0024434609527920616,-35.6182402806197,-34.98976907337036,12.934814381759718
1700081546,0.9682272487971457,-0.23635525987767586,0.051466418817533124,0.016187928812247405,-0.04138611988791554,-0.0024434609527920616,-35.57439345220696,-35.296696872259574,12.978661210172465
1700081546,0.967739415443425,-0.23537959317023444,0.0529299188786952,0.01832595714594046,-0.04245513405476207,-0.00198531202414355,-35.31131248173049,-35.150540777550425,13.270973399590764
1700081546,0.967739415443425,-0.23537959317023444,0.0529299188786952,0.01832595714594046,-0.04245513405476207,-0.00198531202414355,-35.36977491961415,-35.077462730195855,12.890967553346973
1700081546,0.9668857070744138,-0.23537959317023444,0.052807960540265035,0.017409659288643436,-0.04321871560250958,-0.0024434609527920616,-35.64747149956153,-34.98976907337036,13.417129494299912
1700081546,0.9668857070744138,-0.23537959317023444,0.052807960540265035,0.017409659288643436,-0.04321871560250958,-0.0024434609527920616,-35.57439345220696,-35.194387605963165,13.124817304881613
1700081546,0.9665198320591233,-0.23635525987767586,0.05305187721712538,0.01435533309765336,-0.0439822971502571,-0.002901609881440573,-35.545162233265124,-35.10669394913768,13.270973399590764
1700081546,0.9665198320591233,-0.23635525987767586,0.05305187721712538,0.01435533309765336,-0.045662176555301644,-0.0032070425005395805,-35.545162233265124,-35.26746565331774,13.241742180648933
1700081546,0.9666417903975535,-0.23806267661569824,0.05171033549439348,0.01435533309765336,-0.045662176555301644,-0.0032070425005395805,-35.121309558608594,-35.16515638702134,12.803273896521485
1700081546,0.9666417903975535,-0.23806267661569824,0.05171033549439348,0.017409659288643436,-0.047189339650796684,-0.005039638215133627,-34.8289973691903,-34.9313066354867,13.344051446945338
1700081546,0.9676174571049948,-0.2375748432619776,0.0515883771559633,0.017409659288643436,-0.047189339650796684,-0.005039638215133627,-34.770534931306635,-35.194387605963165,13.197895352236188
1700081546,0.9676174571049948,-0.2375748432619776,0.0515883771559633,0.018020524526841452,-0.04856378643674222,-0.006872233929727673,-35.10669394913768,-35.06284712072493,13.300204618532593
1700081546,0.9679833321202853,-0.23537959317023444,0.05024683543323139,0.018020524526841452,-0.04856378643674222,-0.006872233929727673,-35.121309558608594,-34.98976907337036,13.197895352236188
1700081546,0.9692029155045871,-0.23452588480122322,0.050734668786952083,0.01710422666954443,-0.048411070127192715,-0.0079412480965742,-35.09207833966676,-35.00438468284127,12.96404560070155
1700081546,0.9692029155045871,-0.23452588480122322,0.050734668786952083,0.01710422666954443,-0.048411070127192715,-0.0079412480965742,-35.13592516807951,-34.84361297866121,12.277111955568547
1700081546,0.9671296237512741,-0.23586742652395515,0.05000291875637105,0.01557706357404939,-0.047036623341247176,-0.008246680715673207,-34.88745980707396,-34.945922244957615,12.744811458637825
1700081546,0.9671296237512741,-0.23586742652395515,0.05000291875637105,0.01557706357404939,-0.047036623341247176,-0.008246680715673207,-35.31131248173049,-35.16515638702134,12.569424144986845
1700081546,0.9681052904587156,-0.23489175981651375,0.05012487709480122,0.016951510359994926,-0.04596760917440065,-0.008093964406123703,-35.121309558608594,-35.20900321543408,13.694826074247295
1700081546,0.9681052904587156,-0.23489175981651375,0.05012487709480122,0.016951510359994926,-0.04596760917440065,-0.008093964406123703,-35.58900906167787,-35.121309558608594,13.446360713241742
1700081546,0.9692029155045871,-0.23476980147808357,0.05012487709480122,0.018631389765039467,-0.044898595007554123,-0.007330382858376184,-35.223618824905,-34.91669102601578,13.460976322712655
1700081546,0.9692029155045871,-0.23476980147808357,0.05012487709480122,0.018631389765039467,-0.044898595007554123,-0.007330382858376184,-35.45746857643964,-35.121309558608594,12.84712072493423
1700081546,0.9683492071355759,-0.23306238474006113,0.05036879377166156,0.019089538693687978,-0.0438295808407076,-0.005955936072430649,-35.10669394913768,-34.741303712364804,13.227126571178019
1700081546,0.9683492071355759,-0.23306238474006113,0.05036879377166156,0.019089538693687978,-0.0438295808407076,-0.005955936072430649,-35.6182402806197,-34.43437591347559,13.066354866997953
1700081546,0.9688370404892966,-0.2337941347706422,0.05024683543323139,0.018631389765039467,-0.04321871560250958,-0.004734205596034618,-34.9313066354867,-35.01900029231219,13.007892429114293
1700081546,0.9688370404892966,-0.2337941347706422,0.05024683543323139,0.018631389765039467,-0.04321871560250958,-0.004734205596034618,-34.799766150248466,-34.770534931306635,12.890967553346973
1700081546,0.9683492071355759,-0.23440392646279307,0.05232012718654434,0.0160352125026979,-0.04306599929296008,-0.0033597588100890844,-35.31131248173049,-34.8289973691903,12.58403975445776
1700081546,0.9683492071355759,-0.23440392646279307,0.05232012718654434,0.0160352125026979,-0.04306599929296008,-0.0033597588100890844,-35.38439052908507,-35.09207833966676,12.423268050277697
1700081546,0.9678613737818552,-0.23586742652395515,0.05134446047910295,0.014813482026301871,-0.04230241774521256,-0.002748893571891069,-35.00438468284127,-35.179771996492256,12.481730488161356
1700081546,0.9678613737818552,-0.23586742652395515,0.05134446047910295,0.014966198335851376,-0.04199698512611356,-0.002596177262341565,-35.38439052908507,-34.522069570301085,11.677871967261035
1700081546,0.967739415443425,-0.23586742652395515,0.050490752110091734,0.014966198335851376,-0.04199698512611356,-0.002596177262341565,-35.69131832797427,-34.90207541654487,13.154048523823445
1700081546,0.967739415443425,-0.23586742652395515,0.050490752110091734,0.015424347264499889,-0.04169155250701455,-0.002138028333693054,-35.48669979538147,-34.9313066354867,12.43788365974861
1700081546,0.9668857070744138,-0.23598938486238527,0.05122250214067278,0.015424347264499889,-0.04169155250701455,-0.002138028333693054,-35.779011984799766,-35.01900029231219,12.569424144986845
1700081546,0.9672515820897043,-0.23659917655453616,0.05171033549439348,0.016493361431346415,-0.04245513405476207,-0.002138028333693054,-35.38439052908507,-34.9313066354867,12.452499269219526
1700081546,0.9672515820897043,-0.23659917655453616,0.05171033549439348,0.016493361431346415,-0.04245513405476207,-0.002138028333693054,-35.13592516807951,-35.13592516807951,12.057877813504824
1700081546,0.967007665412844,-0.23635525987767586,0.05195425217125382,0.017256942979093935,-0.04291328298341058,-0.002901609881440573,-35.325928091201405,-34.78515054077755,11.911721718795674
1700081546,0.967007665412844,-0.23635525987767586,0.05195425217125382,0.017256942979093935,-0.04291328298341058,-0.002901609881440573,-35.96901490792166,-34.90207541654487,12.218649517684888
1700081546,0.9673735404281345,-0.23537959317023444,0.052442085524974515,0.017409659288643436,-0.0438295808407076,-0.004276056667386108,-35.325928091201405,-34.98976907337036,12.189418298743057
1700081546,0.9673735404281345,-0.23537959317023444,0.052442085524974515,0.017409659288643436,-0.0438295808407076,-0.004276056667386108,-35.28208126278866,-34.85822858813212,12.452499269219526
1700081546,0.9673735404281345,-0.23598938486238527,0.05171033549439348,0.016187928812247405,-0.0438295808407076,-0.00519235452468313,-36.02747734580532,-34.91669102601578,11.853259280912013
1700081546,0.9673735404281345,-0.23598938486238527,0.05171033549439348,0.016187928812247405,-0.0438295808407076,-0.00519235452468313,-35.42823735749781,-35.23823443437591,12.320958783981292
1700081546,0.9672515820897043,-0.23623330153924563,0.051832293832823645,0.0158824961931484,-0.04352414822160859,-0.006108652381980153,-35.98363051739257,-34.799766150248466,11.677871967261035
1700081546,0.9672515820897043,-0.23623330153924563,0.051832293832823645,0.0158824961931484,-0.04352414822160859,-0.006108652381980153,-35.63285589009062,-35.325928091201405,12.320958783981292
1700081546,0.9674954987665647,-0.2355015515086646,0.05024683543323139,0.017256942979093935,-0.0436768645311581,-0.006872233929727673,-36.39286758257819,-35.296696872259574,12.204033908213972
1700081546,0.9674954987665647,-0.2355015515086646,0.05024683543323139,0.017256942979093935,-0.0436768645311581,-0.006872233929727673,-36.07132417421807,-34.96053785442853,12.61327097339959
1700081546,0.9685931238124362,-0.23452588480122322,0.050734668786952083,0.017867808217291947,-0.04306599929296008,-0.006566801310628665,-35.20900321543408,-35.194387605963165,12.525577316574102
1700081546,0.9685931238124362,-0.23452588480122322,0.050734668786952083,0.017867808217291947,-0.04306599929296008,-0.006566801310628665,-35.79362759427068,-35.077462730195855,12.496346097632271
1700081546,0.9685931238124362,-0.23452588480122322,0.051832293832823645,0.01710422666954443,-0.04214970143566306,-0.005497787143782138,-35.66208710903245,-34.58053200818474,12.262496346097631
1700081546,0.9685931238124362,-0.23452588480122322,0.051832293832823645,0.01710422666954443,-0.04214970143566306,-0.005497787143782138,-35.779011984799766,-34.88745980707396,12.43788365974861
1700081546,0.9673735404281345,-0.23537959317023444,0.051832293832823645,0.01679879405044542,-0.04260785036431157,-0.004581489286485115,-35.89593686056708,-34.88745980707396,12.145571470330314
1700081546,0.9673735404281345,-0.23537959317023444,0.051832293832823645,0.01679879405044542,-0.04260785036431157,-0.004581489286485115,-35.82285881321251,-35.048231511254016,12.84712072493423
1700081546,0.9672515820897043,-0.23525763483180426,0.05366166890927625,0.017409659288643436,-0.04321871560250958,-0.0032070425005395805,-35.44285296696872,-35.31131248173049,12.715580239695996
1700081546,0.9672515820897043,-0.23525763483180426,0.05366166890927625,0.01679879405044542,-0.04474587869800463,-0.0033597588100890844,-35.25285004384683,-34.90207541654487,12.467114878690442
1700081546,0.9665198320591233,-0.23647721821610598,0.05232012718654434,0.01679879405044542,-0.04474587869800463,-0.0033597588100890844,-35.223618824905,-34.68284127448115,12.394036831335868
1700081546,0.9665198320591233,-0.23647721821610598,0.05232012718654434,0.015729779883598895,-0.046883907031697675,-0.0039706240482871,-35.223618824905,-34.50745396083016,13.02250803858521
1700081546,0.9672515820897043,-0.23659917655453616,0.053539710570846076,0.015729779883598895,-0.046883907031697675,-0.0039706240482871,-35.501315404852384,-34.69745688395206,12.218649517684888
1700081546,0.9672515820897043,-0.23672113489296634,0.052564043863404686,0.01557706357404939,-0.0478002048889947,-0.004581489286485115,-35.34054370067231,-34.69745688395206,13.124817304881613
1700081546,0.9674954987665647,-0.23672113489296634,0.052564043863404686,0.01557706357404939,-0.0478002048889947,-0.004581489286485115,-34.62437883659749,-35.048231511254016,12.262496346097631
1700081546,0.9676174571049948,-0.23537959317023444,0.05171033549439348,0.014966198335851376,-0.048411070127192715,-0.005345070834232635,-34.58053200818474,-35.09207833966676,13.066354866997953
1700081546,0.9676174571049948,-0.23537959317023444,0.05171033549439348,0.014966198335851376,-0.048411070127192715,-0.005345070834232635,-35.194387605963165,-35.150540777550425,12.569424144986845
1700081546,0.9689589988277266,-0.23586742652395515,0.051466418817533124,0.014660765716752368,-0.048411070127192715,-0.006261368691529657,-35.31131248173049,-34.98976907337036,12.262496346097631
1700081546,0.9689589988277266,-0.23586742652395515,0.051466418817533124,0.014660765716752368,-0.048411070127192715,-0.006261368691529657,-35.28208126278866,-35.501315404852384,12.8178895059924
1700081546,0.9683492071355759,-0.23513567649337408,0.04988096041794087,0.01557706357404939,-0.047342055960346185,-0.006719517620178169,-35.150540777550425,-35.55977784273604,12.627886582870506
1700081546,0.9683492071355759,-0.23513567649337408,0.04988096041794087,0.01557706357404939,-0.047342055960346185,-0.006719517620178169,-34.975153463899446,-35.01900029231219,13.02250803858521
1700081546,0.9679833321202853,-0.23452588480122322,0.04902725204892966,0.01679879405044542,-0.045662176555301644,-0.006414085001079161,-35.223618824905,-35.01900029231219,12.408652440806781
1700081546,0.9679833321202853,-0.23452588480122322,0.04902725204892966,0.01679879405044542,-0.045662176555301644,-0.006414085001079161,-35.150540777550425,-35.194387605963165,12.028646594562993
1700081546,0.9674954987665647,-0.2342819681243629,0.04927116872579,0.016951510359994926,-0.04459316238845512,-0.005497787143782138,-35.545162233265124,-34.9313066354867,11.970184156679334
1700081546,0.9674954987665647,-0.2342819681243629,0.04927116872579,0.016951510359994926,-0.04459316238845512,-0.005497787143782138,-35.63285589009062,-35.36977491961415,12.247880736626717
1700081546,0.9681052904587156,-0.2337941347706422,0.04927116872579,0.01679879405044542,-0.04276056667386108,-0.004123340357836604,-35.194387605963165,-34.215141771411865,13.08097047646887
1700081546,0.9681052904587156,-0.2337941347706422,0.04927116872579,0.01679879405044542,-0.04276056667386108,-0.004123340357836604,-35.26746565331774,-34.75591932183572,13.037123648056124
1700081546,0.9688370404892966,-0.23513567649337408,0.05085662712538226,0.01557706357404939,-0.04108068726881653,-0.003817907738737596,-35.00438468284127,-34.27360420929553,12.87635194387606
1700081546,0.9688370404892966,-0.23513567649337408,0.05085662712538226,0.016187928812247405,-0.04046982203061852,-0.0033597588100890844,-35.194387605963165,-34.81438175971938,12.686349020754164
1700081546,0.9672515820897043,-0.23525763483180426,0.0515883771559633,0.016187928812247405,-0.04046982203061852,-0.0033597588100890844,-35.530546623794216,-34.945922244957615,12.262496346097631
1700081546,0.9672515820897043,-0.23525763483180426,0.0515883771559633,0.01634064512179691,-0.04046982203061852,-0.0033597588100890844,-35.26746565331774,-34.9313066354867,12.07249342297574
1700081546,0.9668857070744138,-0.23598938486238527,0.05195425217125382,0.01634064512179691,-0.04046982203061852,-0.0033597588100890844,-35.89593686056708,-34.46360713241742,12.101724641917567
1700081546,0.9668857070744138,-0.2361113432008155,0.053173835555555556,0.016187928812247405,-0.04077525464971753,-0.0033597588100890844,-35.47208418591055,-35.077462730195855,12.423268050277697
1700081546,0.9660319987054026,-0.2361113432008155,0.053173835555555556,0.016187928812247405,-0.04077525464971753,-0.0033597588100890844,-35.34054370067231,-34.88745980707396,12.189418298743057
1700081546,0.9668857070744138,-0.2361113432008155,0.05414950226299693,0.01679879405044542,-0.04214970143566306,-0.003817907738737596,-35.82285881321251,-35.00438468284127,12.496346097632271
1700081546,0.9668857070744138,-0.2361113432008155,0.05414950226299693,0.01679879405044542,-0.04214970143566306,-0.003817907738737596,-35.86670564162526,-34.78515054077755,12.67173341128325
1700081546,0.9663978737206931,-0.2356235098470948,0.0534177522324159,0.01710422666954443,-0.04413501345980661,-0.003817907738737596,-35.55977784273604,-34.78515054077755,12.394036831335868
1700081546,0.9663978737206931,-0.2356235098470948,0.0534177522324159,0.01710422666954443,-0.04413501345980661,-0.003817907738737596,-35.89593686056708,-34.91669102601578,12.61327097339959
1700081546,0.9672515820897043,-0.23635525987767586,0.052564043863404686,0.016187928812247405,-0.04581489286485115,-0.004581489286485115,-35.6182402806197,-35.03361590178311,12.394036831335868
1700081546,0.9672515820897043,-0.23635525987767586,0.052564043863404686,0.016187928812247405,-0.04581489286485115,-0.004581489286485115,-35.64747149956153,-35.16515638702134,12.554808535515932
1700081546,0.9667637487359836,-0.23574546818552497,0.050734668786952083,0.01511891464540088,-0.047494772269895694,-0.005497787143782138,-35.58900906167787,-35.01900029231219,12.58403975445776
1700081546,0.9667637487359836,-0.23574546818552497,0.050734668786952083,0.01511891464540088,-0.047494772269895694,-0.005497787143782138,-35.47208418591055,-35.150540777550425,12.408652440806781
1700081546,0.9673735404281345,-0.23574546818552497,0.0515883771559633,0.01557706357404939,-0.0478002048889947,-0.005803219762881146,-35.36977491961415,-35.150540777550425,12.978661210172465
1700081546,0.9673735404281345,-0.23574546818552497,0.0515883771559633,0.01557706357404939,-0.0478002048889947,-0.005803219762881146,-35.179771996492256,-35.121309558608594,12.84712072493423
1700081546,0.9681052904587156,-0.2342819681243629,0.05134446047910295,0.01710422666954443,-0.047494772269895694,-0.005345070834232635,-35.676702718503364,-35.09207833966676,13.095586085939784
1700081546,0.9681052904587156,-0.2342819681243629,0.05134446047910295,0.01710422666954443,-0.047494772269895694,-0.005345070834232635,-35.501315404852384,-34.40514469453376,12.715580239695996
1700081546,0.9667637487359836,-0.23416000978593274,0.051466418817533124,0.01710422666954443,-0.04673119072214818,-0.004886921905584123,-36.100555393159894,-35.28208126278866,12.554808535515932
1700081546,0.9667637487359836,-0.23416000978593274,0.051466418817533124,0.01710422666954443,-0.04673119072214818,-0.004886921905584123,-35.63285589009062,-35.35515931014323,12.934814381759718
1700081546,0.9662759153822629,-0.23525763483180426,0.051466418817533124,0.01679879405044542,-0.047189339650796684,-0.004581489286485115,-35.676702718503364,-34.595147617655655,12.335574393452207
1700081546,0.9662759153822629,-0.23525763483180426,0.051466418817533124,0.01756237559819294,-0.047036623341247176,-0.0032070425005395805,-35.82285881321251,-34.69745688395206,12.364805612394036
1700081546,0.9682272487971457,-0.23476980147808357,0.05305187721712538,0.01756237559819294,-0.047036623341247176,-0.0032070425005395805,-35.749780765857935,-35.03361590178311,12.861736334405144
1700081546,0.9672515820897043,-0.23525763483180426,0.0529299188786952,0.01756237559819294,-0.048258353817643214,-0.0032070425005395805,-35.69131832797427,-35.150540777550425,12.174802689272141
1700081546,0.9672515820897043,-0.23525763483180426,0.0529299188786952,0.01756237559819294,-0.048258353817643214,-0.0032070425005395805,-35.89593686056708,-35.23823443437591,12.759427068108739
1700081547,0.9676174571049948,-0.2355015515086646,0.05122250214067278,0.017715091907742442,-0.048411070127192715,-0.0033597588100890844,-35.23823443437591,-34.81438175971938,12.949429991230636
1700081547,0.9676174571049948,-0.2355015515086646,0.05122250214067278,0.017715091907742442,-0.048411070127192715,-0.0033597588100890844,-35.399006138555976,-35.09207833966676,12.525577316574102
1700081547,0.9678613737818552,-0.2356235098470948,0.05097858546381243,0.01557706357404939,-0.048411070127192715,-0.004123340357836604,-35.92516807950892,-35.048231511254016,12.993276819643379
1700081547,0.9678613737818552,-0.2356235098470948,0.05097858546381243,0.01557706357404939,-0.048411070127192715,-0.004123340357836604,-35.72054954691611,-35.150540777550425,13.417129494299912
1700081547,0.9679833321202853,-0.23598938486238527,0.04988096041794087,0.013744467859455345,-0.047342055960346185,-0.00519235452468313,-35.64747149956153,-35.36977491961415,12.569424144986845
1700081547,0.9679833321202853,-0.23598938486238527,0.04988096041794087,0.013744467859455345,-0.047342055960346185,-0.00519235452468313,-34.91669102601578,-35.48669979538147,13.373282665887167
1700081547,0.967739415443425,-0.2361113432008155,0.04963704374108052,0.014660765716752368,-0.04627304179349966,-0.00519235452468313,-34.91669102601578,-34.91669102601578,12.642502192341421
1700081547,0.967739415443425,-0.2361113432008155,0.04963704374108052,0.014660765716752368,-0.04627304179349966,-0.00519235452468313,-35.00438468284127,-34.872844197603044,12.920198772288805
1700081547,0.9681052904587156,-0.23501371815494393,0.0497590020795107,0.0158824961931484,-0.04520402762665313,-0.00519235452468313,-35.86670564162526,-35.077462730195855,13.314820228003507
1700081547,0.9681052904587156,-0.23501371815494393,0.0497590020795107,0.0158824961931484,-0.04520402762665313,-0.00519235452468313,-35.954399298450745,-34.90207541654487,13.124817304881613
1700081547,0.9679833321202853,-0.23501371815494393,0.05097858546381243,0.016187928812247405,-0.0439822971502571,-0.005039638215133627,-35.88132125109617,-35.48669979538147,12.8178895059924
1700081547,0.9679833321202853,-0.23501371815494393,0.05097858546381243,0.016187928812247405,-0.0439822971502571,-0.005039638215133627,-36.21748026892722,-35.23823443437591,13.7971353405437
1700081547,0.9681052904587156,-0.23623330153924563,0.05171033549439348,0.017256942979093935,-0.04337143191205909,-0.005345070834232635,-36.159017831043556,-35.09207833966676,13.840982168956446
1700081547,0.9681052904587156,-0.23623330153924563,0.05171033549439348,0.017256942979093935,-0.04337143191205909,-0.005345070834232635,-35.73516515638702,-34.91669102601578,14.191756796258403
1700081547,0.9674954987665647,-0.23476980147808357,0.05036879377166156,0.017256942979093935,-0.04306599929296008,-0.005497787143782138,-35.82285881321251,-35.28208126278866,13.753288512130958
1700081547,0.9674954987665647,-0.23476980147808357,0.05036879377166156,0.017256942979093935,-0.04306599929296008,-0.005497787143782138,-36.04209295527623,-35.00438468284127,13.70944168371821
1700081547,0.9672515820897043,-0.23489175981651375,0.05134446047910295,0.0160352125026979,-0.04276056667386108,-0.005497787143782138,-36.04209295527623,-35.296696872259574,13.066354866997953
1700081547,0.9672515820897043,-0.23489175981651375,0.05134446047910295,0.01435533309765336,-0.04230241774521256,-0.00519235452468313,-35.88132125109617,-34.84361297866121,12.920198772288805
1700081547,0.9673735404281345,-0.2356235098470948,0.0515883771559633,0.01435533309765336,-0.04230241774521256,-0.00519235452468313,-35.10669394913768,-34.375913475591936,12.978661210172465
1700081547,0.9673735404281345,-0.2356235098470948,0.0515883771559633,0.014966198335851376,-0.04199698512611356,-0.004428772976935611,-35.34054370067231,-35.31131248173049,13.25635779011985
1700081547,0.9667637487359836,-0.2355015515086646,0.051832293832823645,0.014966198335851376,-0.04199698512611356,-0.004428772976935611,-34.91669102601578,-34.975153463899446,12.993276819643379
1700081547,0.9672515820897043,-0.2355015515086646,0.05232012718654434,0.016646077740895916,-0.04214970143566306,-0.004123340357836604,-35.69131832797427,-35.048231511254016,12.540192926045016
1700081547,0.9672515820897043,-0.2355015515086646,0.05232012718654434,0.016646077740895916,-0.04214970143566306,-0.004123340357836604,-35.8082432037416,-34.872844197603044,12.759427068108739
1700081547,0.9662759153822629,-0.2356235098470948,0.052442085524974515,0.017256942979093935,-0.04428772976935611,-0.004123340357836604,-35.23823443437591,-35.048231511254016,12.87635194387606
1700081547,0.9662759153822629,-0.2356235098470948,0.052442085524974515,0.017256942979093935,-0.04428772976935611,-0.004123340357836604,-35.194387605963165,-35.36977491961415,13.066354866997953
1700081547,0.9662759153822629,-0.23647721821610598,0.0529299188786952,0.016493361431346415,-0.04612032548395016,-0.0039706240482871,-35.501315404852384,-34.98976907337036,13.095586085939784
1700081547,0.9662759153822629,-0.23647721821610598,0.0529299188786952,0.016493361431346415,-0.04612032548395016,-0.0039706240482871,-35.13592516807951,-35.41362174802689,13.285589009061678
1700081547,0.9661539570438327,-0.2356235098470948,0.05232012718654434,0.016951510359994926,-0.048258353817643214,-0.004123340357836604,-35.13592516807951,-34.78515054077755,13.124817304881613
1700081547,0.9661539570438327,-0.2356235098470948,0.05232012718654434,0.016951510359994926,-0.048258353817643214,-0.004123340357836604,-35.09207833966676,-34.741303712364804,13.227126571178019
1700081547,0.9668857070744138,-0.23525763483180426,0.052442085524974515,0.014660765716752368,-0.049174651674940235,-0.004886921905584123,-35.35515931014323,-35.06284712072493,12.861736334405144
1700081547,0.9668857070744138,-0.23525763483180426,0.052442085524974515,0.014660765716752368,-0.049174651674940235,-0.004886921905584123,-35.35515931014323,-35.38439052908507,13.417129494299912
1700081547,0.9681052904587156,-0.23574546818552497,0.051466418817533124,0.013591751549905842,-0.05009094953223726,-0.005345070834232635,-35.44285296696872,-35.121309558608594,13.373282665887167
1700081547,0.9681052904587156,-0.23574546818552497,0.051466418817533124,0.013591751549905842,-0.05009094953223726,-0.005345070834232635,-35.501315404852384,-34.9313066354867,12.993276819643379
1700081547,0.9681052904587156,-0.23598938486238527,0.050734668786952083,0.014966198335851376,-0.050396382151336266,-0.00519235452468313,-35.79362759427068,-35.545162233265124,13.607132417421807
1700081547,0.9681052904587156,-0.23598938486238527,0.050734668786952083,0.014966198335851376,-0.050396382151336266,-0.005650503453331642,-35.121309558608594,-35.41362174802689,13.314820228003507
1700081547,0.9683492071355759,-0.23476980147808357,0.04939312706422018,0.017256942979093935,-0.049632800603588746,-0.005650503453331642,-35.545162233265124,-35.296696872259574,12.890967553346973
1700081547,0.9683492071355759,-0.23476980147808357,0.04939312706422018,0.01710422666954443,-0.047952921198544204,-0.005039638215133627,-35.910552470038,-35.23823443437591,13.270973399590764
1700081547,0.9684711654740061,-0.23403805144750256,0.05024683543323139,0.01710422666954443,-0.047952921198544204,-0.005039638215133627,-35.73516515638702,-35.23823443437591,13.373282665887167
1700081547,0.9684711654740061,-0.23403805144750256,0.05036879377166156,0.01557706357404939,-0.04657847441259867,-0.004123340357836604,-35.28208126278866,-35.325928091201405,12.657117801812333
1700081547,0.9683492071355759,-0.23501371815494393,0.05036879377166156,0.01557706357404939,-0.04657847441259867,-0.004123340357836604,-35.47208418591055,-34.872844197603044,12.700964630225082
1700081547,0.9687150821508664,-0.2356235098470948,0.05097858546381243,0.015271630954950384,-0.04581489286485115,-0.0039706240482871,-34.975153463899446,-35.048231511254016,13.197895352236188
1700081547,0.9687150821508664,-0.2356235098470948,0.05097858546381243,0.015271630954950384,-0.04581489286485115,-0.0039706240482871,-35.20900321543408,-35.79362759427068,12.014030985092077
1700081547,0.9688370404892966,-0.23574546818552497,0.05134446047910295,0.016646077740895916,-0.04520402762665313,-0.0035124751196385882,-35.16515638702134,-35.58900906167787,12.277111955568547
1700081547,0.9688370404892966,-0.23574546818552497,0.05134446047910295,0.016646077740895916,-0.04520402762665313,-0.0035124751196385882,-35.296696872259574,-35.42823735749781,12.67173341128325
1700081547,0.9679833321202853,-0.23574546818552497,0.05110054380224261,0.01679879405044542,-0.04413501345980661,-0.0039706240482871,-35.399006138555976,-35.20900321543408,12.920198772288805
1700081547,0.9679833321202853,-0.23574546818552497,0.05110054380224261,0.01679879405044542,-0.04413501345980661,-0.0039706240482871,-34.81438175971938,-35.28208126278866,13.183279742765272
1700081547,0.9681052904587156,-0.23598938486238527,0.05134446047910295,0.015729779883598895,-0.04352414822160859,-0.003817907738737596,-35.501315404852384,-35.296696872259574,12.920198772288805
1700081547,0.9681052904587156,-0.23598938486238527,0.05134446047910295,0.015729779883598895,-0.04352414822160859,-0.003817907738737596,-34.975153463899446,-35.25285004384683,12.189418298743057
1700081547,0.9668857070744138,-0.2356235098470948,0.050490752110091734,0.016187928812247405,-0.04260785036431157,-0.004734205596034618,-35.03361590178311,-35.16515638702134,12.262496346097631
1700081547,0.9668857070744138,-0.2356235098470948,0.050490752110091734,0.016187928812247405,-0.04260785036431157,-0.004734205596034618,-35.10669394913768,-34.975153463899446,12.8178895059924
1700081547,0.9678613737818552,-0.2356235098470948,0.051832293832823645,0.01557706357404939,-0.04169155250701455,-0.005345070834232635,-35.20900321543408,-35.34054370067231,12.320958783981292
1700081547,0.9678613737818552,-0.2356235098470948,0.051832293832823645,0.01557706357404939,-0.04169155250701455,-0.005345070834232635,-35.55977784273604,-35.42823735749781,11.736334405144696
1700081547,0.9672515820897043,-0.23525763483180426,0.052442085524974515,0.016646077740895916,-0.04306599929296008,-0.00519235452468313,-35.121309558608594,-35.01900029231219,12.028646594562993
1700081547,0.9672515820897043,-0.23525763483180426,0.052442085524974515,0.016646077740895916,-0.04306599929296008,-0.00519235452468313,-35.42823735749781,-34.770534931306635,12.145571470330314
1700081547,0.9663978737206931,-0.23489175981651375,0.051466418817533124,0.01710422666954443,-0.04352414822160859,-0.004581489286485115,-35.36977491961415,-35.42823735749781,12.408652440806781
1700081547,0.9663978737206931,-0.23489175981651375,0.051466418817533124,0.01710422666954443,-0.04352414822160859,-0.004581489286485115,-35.79362759427068,-34.98976907337036,11.955568547208419
1700081547,0.9661539570438327,-0.23574546818552497,0.052198168848114165,0.016646077740895916,-0.04459316238845512,-0.0039706240482871,-35.73516515638702,-35.01900029231219,12.803273896521485
1700081547,0.9661539570438327,-0.23574546818552497,0.052198168848114165,0.016646077740895916,-0.04459316238845512,-0.0039706240482871,-35.42823735749781,-35.06284712072493,11.794796843028355
1700081547,0.9663978737206931,-0.23525763483180426,0.052076210509684,0.01679879405044542,-0.04642575810304917,-0.0035124751196385882,-35.36977491961415,-35.34054370067231,12.8178895059924
1700081547,0.9663978737206931,-0.23525763483180426,0.052076210509684,0.01634064512179691,-0.046883907031697675,-0.003817907738737596,-35.44285296696872,-35.64747149956153,12.554808535515932
1700081547,0.9663978737206931,-0.23623330153924563,0.052198168848114165,0.01634064512179691,-0.046883907031697675,-0.003817907738737596,-35.00438468284127,-35.325928091201405,12.715580239695996
1700081547,0.9679833321202853,-0.2355015515086646,0.051832293832823645,0.01634064512179691,-0.047342055960346185,-0.004886921905584123,-35.57439345220696,-35.399006138555976,11.98479976615025
1700081547,0.9679833321202853,-0.2355015515086646,0.051832293832823645,0.01634064512179691,-0.047342055960346185,-0.004886921905584123,-34.9313066354867,-35.048231511254016,11.999415375621163
1700081547,0.9681052904587156,-0.23476980147808357,0.05097858546381243,0.01511891464540088,-0.047189339650796684,-0.004886921905584123,-35.779011984799766,-35.03361590178311,12.540192926045016
1700081547,0.9681052904587156,-0.23476980147808357,0.05097858546381243,0.01511891464540088,-0.047189339650796684,-0.004886921905584123,-35.545162233265124,-35.223618824905,12.423268050277697
1700081547,0.9673735404281345,-0.23672113489296634,0.05110054380224261,0.014660765716752368,-0.047036623341247176,-0.004734205596034618,-35.57439345220696,-35.399006138555976,12.949429991230636
1700081547,0.9673735404281345,-0.23672113489296634,0.05110054380224261,0.014660765716752368,-0.047036623341247176,-0.004734205596034618,-35.55977784273604,-35.20900321543408,12.554808535515932
1700081547,0.967739415443425,-0.2355015515086646,0.04951508540265035,0.017409659288643436,-0.04642575810304917,-0.005497787143782138,-36.02747734580532,-34.872844197603044,12.87635194387606
1700081547,0.967739415443425,-0.2355015515086646,0.04951508540265035,0.017409659288643436,-0.04642575810304917,-0.005497787143782138,-35.399006138555976,-35.03361590178311,13.08097047646887
1700081547,0.9678613737818552,-0.23476980147808357,0.05000291875637105,0.01679879405044542,-0.044898595007554123,-0.005497787143782138,-35.09207833966676,-35.077462730195855,12.087109032446651
1700081547,0.9678613737818552,-0.23476980147808357,0.05000291875637105,0.01679879405044542,-0.044898595007554123,-0.005497787143782138,-35.8082432037416,-34.69745688395206,12.335574393452207
1700081547,0.967739415443425,-0.23513567649337408,0.050612710448521905,0.016493361431346415,-0.04352414822160859,-0.005039638215133627,-35.676702718503364,-34.62437883659749,12.204033908213972
1700081547,0.967739415443425,-0.23513567649337408,0.050612710448521905,0.016493361431346415,-0.04352414822160859,-0.005039638215133627,-35.603624671148786,-35.10669394913768,12.306343174510378
1700081547,0.9668857070744138,-0.23525763483180426,0.05097858546381243,0.01679879405044542,-0.04413501345980661,-0.004581489286485115,-35.03361590178311,-34.726688102893895,12.84712072493423
1700081547,0.9668857070744138,-0.23525763483180426,0.05097858546381243,0.01679879405044542,-0.04413501345980661,-0.004581489286485115,-35.23823443437591,-34.62437883659749,11.867874890382929
1700081547,0.9676174571049948,-0.23586742652395515,0.0515883771559633,0.01756237559819294,-0.04520402762665313,-0.004123340357836604,-35.44285296696872,-34.71207249342297,11.458637825197311
1700081547,0.9676174571049948,-0.23586742652395515,0.0515883771559633,0.01756237559819294,-0.04520402762665313,-0.004123340357836604,-35.47208418591055,-34.75591932183572,12.43788365974861
1700081547,0.9672515820897043,-0.23403805144750256,0.05195425217125382,0.017715091907742442,-0.045356743936202634,-0.003665191429188092,-35.194387605963165,-34.71207249342297,11.66325635779012
1700081547,0.9672515820897043,-0.23403805144750256,0.05195425217125382,0.014202616788103856,-0.04550946024575214,-0.003817907738737596,-35.35515931014323,-34.43437591347559,12.744811458637825
1700081547,0.9673735404281345,-0.23501371815494393,0.05134446047910295,0.014202616788103856,-0.04550946024575214,-0.003817907738737596,-35.26746565331774,-34.770534931306635,11.707103186202865
1700081547,0.9673735404281345,-0.23501371815494393,0.05134446047910295,0.013286318930806833,-0.04550946024575214,-0.0035124751196385882,-35.26746565331774,-34.945922244957615,12.598655363928676
1700081547,0.9678613737818552,-0.2361113432008155,0.051466418817533124,0.013286318930806833,-0.04550946024575214,-0.0035124751196385882,-35.01900029231219,-35.03361590178311,13.329435837474424
1700081547,0.9674954987665647,-0.2376968016004077,0.050490752110091734,0.015271630954950384,-0.045356743936202634,-0.003817907738737596,-34.88745980707396,-34.90207541654487,12.335574393452207
1700081547,0.9674954987665647,-0.2376968016004077,0.050490752110091734,0.015271630954950384,-0.045356743936202634,-0.003817907738737596,-35.36977491961415,-34.9313066354867,12.715580239695996
1700081547,0.9673735404281345,-0.23586742652395515,0.05036879377166156,0.01832595714594046,-0.044898595007554123,-0.004581489286485115,-35.38439052908507,-35.09207833966676,13.56328558900906
1700081547,0.9673735404281345,-0.23586742652395515,0.05036879377166156,0.01832595714594046,-0.044898595007554123,-0.004581489286485115,-35.223618824905,-35.150540777550425,12.90558316281789
1700081547,0.967739415443425,-0.23598938486238527,0.04927116872579,0.018478673455489966,-0.0439822971502571,-0.005497787143782138,-34.84361297866121,-35.20900321543408,13.431745103770828
1700081547,0.967739415443425,-0.23598938486238527,0.04927116872579,0.018478673455489966,-0.0439822971502571,-0.005497787143782138,-35.501315404852384,-34.71207249342297,13.037123648056124
1700081547,0.9683492071355759,-0.23452588480122322,0.04902725204892966,0.016187928812247405,-0.04138611988791554,-0.006719517620178169,-35.01900029231219,-34.68284127448115,11.736334405144696
1700081547,0.9683492071355759,-0.23452588480122322,0.04902725204892966,0.016187928812247405,-0.04138611988791554,-0.006719517620178169,-35.45746857643964,-35.38439052908507,12.67173341128325
1700081547,0.9676174571049948,-0.2355015515086646,0.04939312706422018,0.013439035240356337,-0.038789942625573975,-0.0070249502392771765,-35.501315404852384,-35.03361590178311,12.43788365974861
1700081547,0.9676174571049948,-0.2355015515086646,0.04939312706422018,0.013439035240356337,-0.038789942625573975,-0.0070249502392771765,-35.09207833966676,-35.13592516807951,12.715580239695996
1700081547,0.9674954987665647,-0.23476980147808357,0.05134446047910295,0.01435533309765336,-0.037568212149177944,-0.005650503453331642,-34.872844197603044,-35.179771996492256,12.116340251388483
1700081547,0.9674954987665647,-0.23476980147808357,0.05134446047910295,0.01435533309765336,-0.037568212149177944,-0.005650503453331642,-36.01286173633441,-35.34054370067231,12.759427068108739
1700081547,0.9671296237512741,-0.23525763483180426,0.053539710570846076,0.018478673455489966,-0.038789942625573975,-0.0030543261909900766,-35.55977784273604,-35.28208126278866,12.525577316574102
1700081547,0.9671296237512741,-0.23525763483180426,0.053539710570846076,0.02138028333693054,-0.04169155250701455,-0.0012217304763960308,-35.34054370067231,-35.296696872259574,13.446360713241742
1700081547,0.9661539570438327,-0.23464784313965342,0.05402754392456677,0.02138028333693054,-0.04169155250701455,-0.0012217304763960308,-34.799766150248466,-34.91669102601578,12.408652440806781
1700081548,0.9661539570438327,-0.23464784313965342,0.05402754392456677,0.019547687622336492,-0.04596760917440065,-0.0006108652381980154,-35.150540777550425,-35.296696872259574,12.993276819643379
1700081548,0.9661539570438327,-0.2342819681243629,0.056100835677879705,0.019547687622336492,-0.04596760917440065,-0.0006108652381980154,-35.09207833966676,-34.91669102601578,13.037123648056124
1700081548,0.9661539570438327,-0.2342819681243629,0.05439341893985729,0.01435533309765336,-0.05070181477043527,-0.0004581489286485115,-35.34054370067231,-35.223618824905,12.394036831335868
1700081548,0.9662759153822629,-0.23659917655453616,0.05439341893985729,0.01435533309765336,-0.05070181477043527,-0.0004581489286485115,-35.150540777550425,-34.872844197603044,13.373282665887167
1700081548,0.9667637487359836,-0.23842855163098878,0.05305187721712538,0.01069014166846527,-0.05238169417547982,-0.0022907446432425577,-35.048231511254016,-34.85822858813212,13.402513884828998
1700081548,0.9667637487359836,-0.23842855163098878,0.05305187721712538,0.01069014166846527,-0.05238169417547982,-0.0022907446432425577,-35.55977784273604,-34.90207541654487,13.899444606840106
1700081548,0.9668857070744138,-0.23855050996941896,0.04939312706422018,0.012828170002158322,-0.05253441048502932,-0.004581489286485115,-35.150540777550425,-35.00438468284127,13.329435837474424
1700081548,0.9668857070744138,-0.23855050996941896,0.04939312706422018,0.012828170002158322,-0.05253441048502932,-0.004581489286485115,-35.09207833966676,-35.03361590178311,13.577901198479978
1700081548,0.9685931238124362,-0.23659917655453616,0.04829550201834862,0.0160352125026979,-0.0516181126277323,-0.007330382858376184,-35.20900321543408,-34.84361297866121,12.803273896521485
1700081548,0.9685931238124362,-0.23659917655453616,0.04829550201834862,0.0160352125026979,-0.0516181126277323,-0.007330382858376184,-35.38439052908507,-35.09207833966676,13.621748026892721
1700081548,0.9687150821508664,-0.23537959317023444,0.0479296270030581,0.017256942979093935,-0.048411070127192715,-0.008552113334772215,-34.81438175971938,-35.31131248173049,12.832505115463313
1700081548,0.9687150821508664,-0.23537959317023444,0.0479296270030581,0.017256942979093935,-0.048411070127192715,-0.008552113334772215,-34.85822858813212,-34.8289973691903,12.540192926045016
1700081548,0.9689589988277266,-0.23452588480122322,0.04805158534148827,0.01756237559819294,-0.04520402762665313,-0.008857545953871221,-34.85822858813212,-35.38439052908507,12.101724641917567
1700081548,0.9689589988277266,-0.23452588480122322,0.04805158534148827,0.01756237559819294,-0.04520402762665313,-0.008857545953871221,-34.726688102893895,-34.98976907337036,13.183279742765272
1700081548,0.9685931238124362,-0.2337941347706422,0.04902725204892966,0.01756237559819294,-0.04214970143566306,-0.007788531787024695,-34.945922244957615,-34.58053200818474,13.504823151125404
1700081548,0.9685931238124362,-0.2337941347706422,0.04902725204892966,0.01756237559819294,-0.04214970143566306,-0.007788531787024695,-35.25285004384683,-34.9313066354867,13.124817304881613
1700081548,0.967739415443425,-0.23294042640163096,0.05122250214067278,0.01710422666954443,-0.04046982203061852,-0.006261368691529657,-35.34054370067231,-35.44285296696872,12.481730488161356
1700081548,0.967739415443425,-0.23294042640163096,0.05122250214067278,0.01710422666954443,-0.04046982203061852,-0.006261368691529657,-34.91669102601578,-35.38439052908507,12.87635194387606
1700081548,0.9682272487971457,-0.23416000978593274,0.052442085524974515,0.015729779883598895,-0.03940080786377199,-0.0039706240482871,-35.13592516807951,-35.09207833966676,13.037123648056124
1700081548,0.9682272487971457,-0.23416000978593274,0.052442085524974515,0.015729779883598895,-0.03940080786377199,-0.0039706240482871,-35.09207833966676,-35.077462730195855,12.61327097339959
1700081548,0.9668857070744138,-0.2355015515086646,0.052807960540265035,0.01511891464540088,-0.0398589567924205,-0.002596177262341565,-34.726688102893895,-34.726688102893895,13.446360713241742
1700081548,0.9668857070744138,-0.2355015515086646,0.052807960540265035,0.01511891464540088,-0.0398589567924205,-0.002596177262341565,-35.03361590178311,-34.47822274188834,12.90558316281789
1700081548,0.9665198320591233,-0.23598938486238527,0.0534177522324159,0.015424347264499889,-0.04169155250701455,-0.002138028333693054,-35.20900321543408,-35.06284712072493,12.803273896521485
1700081548,0.9665198320591233,-0.23598938486238527,0.0534177522324159,0.015271630954950384,-0.04337143191205909,-0.00198531202414355,-35.048231511254016,-34.81438175971938,13.007892429114293
1700081548,0.9661539570438327,-0.23672113489296634,0.05366166890927625,0.015271630954950384,-0.04337143191205909,-0.00198531202414355,-35.06284712072493,-35.13592516807951,12.949429991230636
1700081548,0.9661539570438327,-0.23672113489296634,0.05366166890927625,0.0160352125026979,-0.045356743936202634,-0.0030543261909900766,-35.10669394913768,-35.20900321543408,12.730195849166911
1700081548,0.9661539570438327,-0.23781875993883794,0.053295793893985734,0.0160352125026979,-0.045356743936202634,-0.0030543261909900766,-34.726688102893895,-35.121309558608594,12.759427068108739
1700081548,0.9662759153822629,-0.23623330153924563,0.053173835555555556,0.01756237559819294,-0.048258353817643214,-0.005039638215133627,-35.223618824905,-35.09207833966676,12.452499269219526
1700081548,0.9662759153822629,-0.23623330153924563,0.053173835555555556,0.01756237559819294,-0.048258353817643214,-0.005039638215133627,-34.9313066354867,-34.945922244957615,12.78865828705057
1700081548,0.9662759153822629,-0.23635525987767586,0.05232012718654434,0.01679879405044542,-0.049174651674940235,-0.006108652381980153,-34.96053785442853,-35.58900906167787,13.650979245834552
1700081548,0.9662759153822629,-0.23635525987767586,0.05232012718654434,0.01679879405044542,-0.049174651674940235,-0.006108652381980153,-34.81438175971938,-35.38439052908507,13.70944168371821
1700081548,0.9673735404281345,-0.23574546818552497,0.05097858546381243,0.01511891464540088,-0.04932736798448974,-0.006872233929727673,-34.565916398713824,-35.077462730195855,13.25635779011985
1700081548,0.9673735404281345,-0.23574546818552497,0.05097858546381243,0.01511891464540088,-0.04932736798448974,-0.006872233929727673,-35.09207833966676,-34.565916398713824,13.431745103770828
1700081548,0.9684711654740061,-0.23513567649337408,0.05036879377166156,0.015424347264499889,-0.04856378643674222,-0.00717766654882668,-34.96053785442853,-34.88745980707396,13.212510961707103
1700081548,0.9684711654740061,-0.23513567649337408,0.05036879377166156,0.015424347264499889,-0.04856378643674222,-0.00717766654882668,-34.8289973691903,-34.8289973691903,13.168664133294358
1700081548,0.9685931238124362,-0.23416000978593274,0.04853941869520897,0.01679879405044542,-0.047189339650796684,-0.006872233929727673,-35.545162233265124,-34.50745396083016,13.475591932183573
1700081548,0.9685931238124362,-0.23416000978593274,0.04853941869520897,0.01679879405044542,-0.047189339650796684,-0.006872233929727673,-35.179771996492256,-34.9313066354867,13.183279742765272
1700081548,0.970544457227319,-0.2337941347706422,0.04963704374108052,0.016951510359994926,-0.04413501345980661,-0.006566801310628665,-35.45746857643964,-35.296696872259574,13.183279742765272
1700081548,0.970544457227319,-0.2337941347706422,0.04963704374108052,0.016951510359994926,-0.04413501345980661,-0.006566801310628665,-35.47208418591055,-35.42823735749781,13.02250803858521
1700081548,0.9684711654740061,-0.23513567649337408,0.05036879377166156,0.014966198335851376,-0.04138611988791554,-0.005345070834232635,-35.28208126278866,-34.90207541654487,13.826366559485532
1700081548,0.9684711654740061,-0.23513567649337408,0.05036879377166156,0.014966198335851376,-0.04138611988791554,-0.0032070425005395805,-34.62437883659749,-35.23823443437591,12.920198772288805
