timestamp,acc-x,acc-y,acc-z,gyr-x,gyr-y,gyr-z,mag-x,mag-y,mag-z
1700081298,0.9722518739653414,-0.21428080062181448,0.0589058774617737,0.0160352125026979,-0.04520402762665313,-0.002596177262341565,-36.43671441099094,-35.41362174802689,13.344051446945338
1700081298,0.9727397073190621,-0.2135490505912334,0.059027835800203876,0.0160352125026979,-0.04520402762665313,-0.002596177262341565,-36.61210172464192,-35.83747442268342,14.337912890967552
1700081298,0.9726177489806319,-0.21293925889908258,0.05951566915392456,0.016187928812247405,-0.045356743936202634,-0.002748893571891069,-36.64133294358375,-35.79362759427068,13.724057293189126
1700081298,0.9726177489806319,-0.21293925889908258,0.05951566915392456,0.0158824961931484,-0.04505131131710363,-0.003817907738737596,-36.597486115171,-35.25285004384683,13.183279742765272
1700081298,0.9721299156269112,-0.21440275896024466,0.06000350250764525,0.0158824961931484,-0.04505131131710363,-0.003817907738737596,-36.18824904998538,-35.399006138555976,14.089447529962
1700081298,0.9712762072579,-0.21452471729867478,0.06000350250764525,0.01557706357404939,-0.04459316238845512,-0.005497787143782138,-36.48056123940368,-35.70593393744519,13.91406021631102
1700081298,0.9712762072579,-0.21452471729867478,0.06000350250764525,0.01557706357404939,-0.04413501345980661,-0.005803219762881146,-36.729026600409235,-35.66208710903245,14.469453376205788
1700081299,0.9723738323037716,-0.2123294672069317,0.05768629407747196,0.015729779883598895,-0.04413501345980661,-0.005803219762881146,-35.99824612686349,-35.31131248173049,14.542531423560362
1700081299,0.9723738323037716,-0.2123294672069317,0.05768629407747196,0.014966198335851376,-0.04337143191205909,-0.005803219762881146,-37.313650979245836,-35.603624671148786,13.987138263665594
1700081299,0.9731055823343526,-0.21318317557594293,0.059027835800203876,0.014966198335851376,-0.04337143191205909,-0.005803219762881146,-36.655948553054664,-35.72054954691611,14.586378251973105
1700081299,0.9721299156269112,-0.21391492560652395,0.05988154416921509,0.01557706357404939,-0.04306599929296008,-0.005955936072430649,-36.29055831628179,-35.34054370067231,13.490207541654486
1700081299,0.9721299156269112,-0.21391492560652395,0.05988154416921509,0.01557706357404939,-0.04306599929296008,-0.005955936072430649,-36.758257819351066,-35.41362174802689,13.154048523823445
1700081299,0.9723738323037716,-0.2130612172375127,0.06012546084607543,0.017256942979093935,-0.04306599929296008,-0.00519235452468313,-37.12364805612394,-35.28208126278866,13.007892429114293
1700081299,0.9723738323037716,-0.2130612172375127,0.06012546084607543,0.017256942979093935,-0.04306599929296008,-0.00519235452468313,-36.4951768488746,-35.44285296696872,13.358667056416252
1700081299,0.9721299156269112,-0.21245142554536187,0.06024741918450561,0.017715091907742442,-0.04352414822160859,-0.004886921905584123,-36.407483192049106,-35.34054370067231,13.650979245834552
1700081299,0.9721299156269112,-0.21245142554536187,0.06024741918450561,0.017715091907742442,-0.04352414822160859,-0.004886921905584123,-37.05057000876937,-35.501315404852384,13.7971353405437
1700081299,0.9717640406116207,-0.21330513391437306,0.06049133586136595,0.0158824961931484,-0.04444044607890562,-0.004734205596034618,-36.129786612101725,-35.42823735749781,13.680210464776382
1700081299,0.9717640406116207,-0.21330513391437306,0.06049133586136595,0.0158824961931484,-0.04444044607890562,-0.004734205596034618,-36.46594562993277,-35.42823735749781,14.133294358374746
1700081299,0.9717640406116207,-0.2136710089296636,0.06073525253822629,0.014049900478554353,-0.044898595007554123,-0.004123340357836604,-36.860567085647475,-35.48669979538147,13.650979245834552
1700081299,0.9717640406116207,-0.2136710089296636,0.06073525253822629,0.014049900478554353,-0.044898595007554123,-0.004123340357836604,-36.11517100263081,-35.676702718503364,13.636363636363635
1700081299,0.9724957906422018,-0.21440275896024466,0.06049133586136595,0.014049900478554353,-0.045356743936202634,-0.004276056667386108,-36.34902075416545,-36.129786612101725,13.577901198479978
1700081299,0.9724957906422018,-0.21440275896024466,0.06049133586136595,0.014049900478554353,-0.045356743936202634,-0.004276056667386108,-36.68517977199649,-36.18824904998538,13.358667056416252
1700081299,0.9717640406116207,-0.21476863397553514,0.05963762749235474,0.01557706357404939,-0.046883907031697675,-0.004276056667386108,-36.29055831628179,-35.70593393744519,14.527915814089448
1700081299,0.9717640406116207,-0.21476863397553514,0.05963762749235474,0.01557706357404939,-0.046883907031697675,-0.004886921905584123,-36.87518269511838,-35.72054954691611,13.97252265419468
1700081299,0.9717640406116207,-0.21269534222222222,0.05951566915392456,0.01634064512179691,-0.046883907031697675,-0.004886921905584123,-36.87518269511838,-35.545162233265124,13.329435837474424
1700081299,0.9717640406116207,-0.21269534222222222,0.05951566915392456,0.01557706357404939,-0.04673119072214818,-0.00519235452468313,-36.7874890382929,-35.66208710903245,13.548669979538147
1700081299,0.9713981655963302,-0.21269534222222222,0.059027835800203876,0.01557706357404939,-0.04673119072214818,-0.00519235452468313,-36.597486115171,-35.38439052908507,13.680210464776382
1700081299,0.9724957906422018,-0.2135490505912334,0.05878391912334352,0.01511891464540088,-0.04627304179349966,-0.005039638215133627,-36.64133294358375,-35.70593393744519,13.05173925752704
1700081299,0.9724957906422018,-0.2135490505912334,0.05878391912334352,0.01511891464540088,-0.04627304179349966,-0.005039638215133627,-36.87518269511838,-35.676702718503364,14.060216311020168
1700081299,0.9720079572884811,-0.2135490505912334,0.05793021075433231,0.01634064512179691,-0.04581489286485115,-0.00519235452468313,-36.36363636363637,-36.02747734580532,13.387898275358081
1700081299,0.9720079572884811,-0.2135490505912334,0.05793021075433231,0.01634064512179691,-0.04581489286485115,-0.00519235452468313,-36.64133294358375,-35.48669979538147,13.417129494299912
1700081299,0.9726177489806319,-0.2122075088685015,0.058052169092762486,0.01679879405044542,-0.04474587869800463,-0.004581489286485115,-36.582870505700086,-35.69131832797427,13.417129494299912
1700081299,0.9726177489806319,-0.2122075088685015,0.058052169092762486,0.01679879405044542,-0.04474587869800463,-0.004581489286485115,-36.48056123940368,-35.58900906167787,12.686349020754164
1700081299,0.9722518739653414,-0.21245142554536187,0.058418044108053006,0.01679879405044542,-0.0438295808407076,-0.003817907738737596,-37.00672318035662,-35.603624671148786,13.753288512130958
1700081299,0.9722518739653414,-0.21245142554536187,0.058418044108053006,0.01679879405044542,-0.0438295808407076,-0.003817907738737596,-36.29055831628179,-35.603624671148786,12.642502192341421
1700081299,0.9728616656574923,-0.21269534222222222,0.05927175247706422,0.01634064512179691,-0.04321871560250958,-0.0032070425005395805,-36.61210172464192,-35.676702718503364,13.577901198479978
1700081299,0.9728616656574923,-0.21269534222222222,0.05927175247706422,0.01634064512179691,-0.04321871560250958,-0.0032070425005395805,-36.94826074247296,-35.64747149956153,13.621748026892721
1700081299,0.9729836239959225,-0.21281730056065234,0.06024741918450561,0.0160352125026979,-0.04260785036431157,-0.002596177262341565,-37.03595439929845,-35.83747442268342,13.329435837474424
1700081299,0.9729836239959225,-0.21281730056065234,0.06024741918450561,0.0160352125026979,-0.04260785036431157,-0.002596177262341565,-36.08593978368898,-35.63285589009062,13.124817304881613
1700081299,0.9720079572884811,-0.2135490505912334,0.0593937108154944,0.01557706357404939,-0.04276056667386108,-0.0022907446432425577,-36.46594562993277,-35.70593393744519,13.095586085939784
1700081299,0.9720079572884811,-0.2135490505912334,0.0593937108154944,0.014813482026301871,-0.04291328298341058,-0.0024434609527920616,-36.305173925752705,-35.5159310143233,13.212510961707103
1700081299,0.9724957906422018,-0.21379296726809377,0.05963762749235474,0.014813482026301871,-0.04291328298341058,-0.0024434609527920616,-37.19672610347852,-35.603624671148786,13.91406021631102
1700081299,0.9724957906422018,-0.21379296726809377,0.05963762749235474,0.014660765716752368,-0.04306599929296008,-0.002901609881440573,-36.48056123940368,-36.08593978368898,13.358667056416252
1700081299,0.9720079572884811,-0.2136710089296636,0.0593937108154944,0.014660765716752368,-0.04306599929296008,-0.002901609881440573,-36.24671148786904,-35.57439345220696,13.73867290266004
1700081299,0.9717640406116207,-0.21391492560652395,0.06000350250764525,0.015424347264499889,-0.04413501345980661,-0.004123340357836604,-36.53902367728734,-36.02747734580532,13.490207541654486
1700081299,0.9717640406116207,-0.21391492560652395,0.06000350250764525,0.015424347264499889,-0.04413501345980661,-0.004123340357836604,-36.69979538146741,-35.44285296696872,14.03098509207834
1700081299,0.9716420822731905,-0.21440275896024466,0.05963762749235474,0.015424347264499889,-0.044898595007554123,-0.004734205596034618,-36.2028646594563,-35.749780765857935,13.91406021631102
1700081299,0.9716420822731905,-0.21440275896024466,0.05963762749235474,0.015424347264499889,-0.044898595007554123,-0.004734205596034618,-36.84595147617656,-35.26746565331774,14.089447529962
1700081299,0.9722518739653414,-0.21428080062181448,0.06000350250764525,0.016646077740895916,-0.04550946024575214,-0.004886921905584123,-36.56825489622918,-35.48669979538147,13.7971353405437
1700081299,0.9722518739653414,-0.21428080062181448,0.06000350250764525,0.016646077740895916,-0.04550946024575214,-0.004886921905584123,-36.45133002046185,-35.57439345220696,12.84712072493423
1700081299,0.9717640406116207,-0.21293925889908258,0.05975958583078492,0.01679879405044542,-0.04642575810304917,-0.005345070834232635,-36.729026600409235,-35.88132125109617,14.367144109909383
1700081299,0.9717640406116207,-0.21293925889908258,0.05975958583078492,0.01679879405044542,-0.04642575810304917,-0.005345070834232635,-37.09441683718211,-35.88132125109617,14.089447529962
1700081299,0.9732275406727828,-0.2136710089296636,0.06012546084607543,0.016187928812247405,-0.04642575810304917,-0.005345070834232635,-36.67056416252558,-36.02747734580532,13.73867290266004
1700081299,0.9732275406727828,-0.2136710089296636,0.06012546084607543,0.016187928812247405,-0.04642575810304917,-0.005345070834232635,-37.7667348728442,-35.48669979538147,14.571762642502192
1700081299,0.9723738323037716,-0.21330513391437306,0.05914979413863404,0.0160352125026979,-0.046883907031697675,-0.005345070834232635,-37.62057877813505,-35.70593393744519,14.498684595147617
1700081299,0.9723738323037716,-0.21330513391437306,0.05914979413863404,0.0160352125026979,-0.046883907031697675,-0.005345070834232635,-37.00672318035662,-35.86670564162526,14.352528500438469
1700081299,0.9729836239959225,-0.2123294672069317,0.059027835800203876,0.015271630954950384,-0.04550946024575214,-0.005803219762881146,-37.182110494007595,-35.501315404852384,13.694826074247295
1700081299,0.9729836239959225,-0.2123294672069317,0.059027835800203876,0.015271630954950384,-0.04550946024575214,-0.005803219762881146,-36.94826074247296,-36.02747734580532,13.855597778427361
1700081299,0.9729836239959225,-0.21257338388379204,0.0589058774617737,0.014660765716752368,-0.045356743936202634,-0.005497787143782138,-37.109032446653025,-36.34902075416545,13.446360713241742
1700081299,0.9729836239959225,-0.21257338388379204,0.0589058774617737,0.014660765716752368,-0.045356743936202634,-0.004581489286485115,-37.26980415083309,-35.852090032154344,13.636363636363635
1700081299,0.9718859989500509,-0.2130612172375127,0.05878391912334352,0.015729779883598895,-0.044898595007554123,-0.004581489286485115,-37.50365390236773,-36.2028646594563,14.264834843612977
1700081299,0.9718859989500509,-0.2130612172375127,0.05878391912334352,0.017715091907742442,-0.04444044607890562,-0.004123340357836604,-37.37211341712949,-35.779011984799766,13.855597778427361
1700081299,0.9718859989500509,-0.2135490505912334,0.05927175247706422,0.017715091907742442,-0.04444044607890562,-0.004123340357836604,-37.54750073078048,-35.66208710903245,13.300204618532593
1700081299,0.9726177489806319,-0.2123294672069317,0.06000350250764525,0.018020524526841452,-0.04428772976935611,-0.0039706240482871,-37.138263665594856,-36.04209295527623,13.76790412160187
1700081299,0.9726177489806319,-0.2123294672069317,0.06000350250764525,0.018020524526841452,-0.04428772976935611,-0.0039706240482871,-37.211341712949434,-36.24671148786904,13.344051446945338
1700081299,0.9724957906422018,-0.21293925889908258,0.059027835800203876,0.015729779883598895,-0.04474587869800463,-0.003817907738737596,-36.84595147617656,-35.83747442268342,13.504823151125404
1700081299,0.9724957906422018,-0.21293925889908258,0.059027835800203876,0.015729779883598895,-0.04474587869800463,-0.003817907738737596,-37.02133878982753,-35.399006138555976,12.90558316281789
1700081299,0.9721299156269112,-0.2130612172375127,0.05963762749235474,0.014966198335851376,-0.044898595007554123,-0.0039706240482871,-37.09441683718211,-35.296696872259574,13.724057293189126
1700081299,0.9721299156269112,-0.2130612172375127,0.05963762749235474,0.014966198335851376,-0.044898595007554123,-0.0039706240482871,-37.19672610347852,-35.76439637532885,13.446360713241742
1700081299,0.9717640406116207,-0.21428080062181448,0.0589058774617737,0.015271630954950384,-0.045662176555301644,-0.004123340357836604,-37.00672318035662,-35.93978368897983,12.759427068108739
1700081299,0.9717640406116207,-0.21428080062181448,0.0589058774617737,0.015271630954950384,-0.045662176555301644,-0.004123340357836604,-37.05057000876937,-35.603624671148786,11.89710610932476
1700081299,0.9726177489806319,-0.2141588422833843,0.0593937108154944,0.016493361431346415,-0.045662176555301644,-0.004428772976935611,-36.758257819351066,-35.48669979538147,12.700964630225082
1700081299,0.9726177489806319,-0.2141588422833843,0.0593937108154944,0.016493361431346415,-0.045662176555301644,-0.004428772976935611,-37.109032446653025,-35.8082432037416,11.882490499853844
1700081299,0.9722518739653414,-0.21269534222222222,0.058418044108053006,0.016493361431346415,-0.04505131131710363,-0.004581489286485115,-37.02133878982753,-35.6182402806197,12.949429991230636
1700081299,0.9722518739653414,-0.21269534222222222,0.058418044108053006,0.016493361431346415,-0.04505131131710363,-0.004581489286485115,-37.25518854136218,-35.88132125109617,12.993276819643379
1700081299,0.9720079572884811,-0.21208555053007133,0.05878391912334352,0.01511891464540088,-0.0436768645311581,-0.004428772976935611,-36.933645133002045,-36.2028646594563,12.467114878690442
1700081299,0.9720079572884811,-0.21208555053007133,0.05878391912334352,0.01511891464540088,-0.04352414822160859,-0.004428772976935611,-37.211341712949434,-36.24671148786904,13.08097047646887
1700081299,0.9726177489806319,-0.21379296726809377,0.0589058774617737,0.01511891464540088,-0.04352414822160859,-0.004428772976935611,-36.962876351943876,-35.749780765857935,12.890967553346973
1700081299,0.9726177489806319,-0.21379296726809377,0.05988154416921509,0.016187928812247405,-0.04337143191205909,-0.0035124751196385882,-37.34288219818767,-35.545162233265124,12.78865828705057
1700081299,0.9722518739653414,-0.2141588422833843,0.05988154416921509,0.016187928812247405,-0.04337143191205909,-0.0035124751196385882,-36.962876351943876,-36.07132417421807,12.803273896521485
1700081299,0.9723738323037716,-0.21428080062181448,0.06000350250764525,0.016646077740895916,-0.04321871560250958,-0.003665191429188092,-36.91902952353113,-36.24671148786904,13.358667056416252
1700081299,0.9723738323037716,-0.21428080062181448,0.06000350250764525,0.016646077740895916,-0.04321871560250958,-0.003665191429188092,-37.05057000876937,-35.676702718503364,13.899444606840106
1700081299,0.9726177489806319,-0.2136710089296636,0.06024741918450561,0.016493361431346415,-0.04321871560250958,-0.0039706240482871,-36.933645133002045,-35.83747442268342,13.124817304881613
1700081299,0.9726177489806319,-0.2136710089296636,0.06024741918450561,0.016493361431346415,-0.04321871560250958,-0.0039706240482871,-36.509792458345515,-35.98363051739257,13.373282665887167
1700081299,0.9720079572884811,-0.2135490505912334,0.06024741918450561,0.015271630954950384,-0.04337143191205909,-0.003817907738737596,-36.84595147617656,-35.35515931014323,13.826366559485532
1700081299,0.9720079572884811,-0.2135490505912334,0.06024741918450561,0.015271630954950384,-0.04337143191205909,-0.003817907738737596,-37.05057000876937,-35.93978368897983,13.314820228003507
1700081299,0.9722518739653414,-0.2135490505912334,0.05963762749235474,0.014966198335851376,-0.04428772976935611,-0.003817907738737596,-36.94826074247296,-36.04209295527623,12.978661210172465
1700081299,0.9722518739653414,-0.2135490505912334,0.05963762749235474,0.014966198335851376,-0.04428772976935611,-0.003817907738737596,-36.597486115171,-35.36977491961415,12.96404560070155
1700081299,0.9720079572884811,-0.21330513391437306,0.06097916921508665,0.0158824961931484,-0.045356743936202634,-0.004428772976935611,-36.53902367728734,-35.66208710903245,13.007892429114293
1700081299,0.9720079572884811,-0.21330513391437306,0.06097916921508665,0.0158824961931484,-0.045356743936202634,-0.004428772976935611,-36.84595147617656,-35.749780765857935,12.715580239695996
1700081299,0.9717640406116207,-0.21257338388379204,0.06073525253822629,0.0160352125026979,-0.04673119072214818,-0.004428772976935611,-36.69979538146741,-35.76439637532885,13.782519731072787
1700081299,0.9717640406116207,-0.21257338388379204,0.06073525253822629,0.0160352125026979,-0.04673119072214818,-0.004428772976935611,-37.02133878982753,-35.603624671148786,13.724057293189126
1700081299,0.9722518739653414,-0.2130612172375127,0.0589058774617737,0.015271630954950384,-0.04673119072214818,-0.004734205596034618,-36.655948553054664,-35.852090032154344,13.76790412160187
1700081299,0.9722518739653414,-0.2130612172375127,0.0589058774617737,0.015271630954950384,-0.04673119072214818,-0.004734205596034618,-36.77287342882198,-35.676702718503364,13.884828997369189
1700081299,0.9726177489806319,-0.21245142554536187,0.059027835800203876,0.014966198335851376,-0.047494772269895694,-0.004886921905584123,-36.962876351943876,-35.779011984799766,12.861736334405144
1700081299,0.9720079572884811,-0.21293925889908258,0.0589058774617737,0.014508049407202865,-0.04673119072214818,-0.005497787143782138,-36.407483192049106,-36.14440222157264,13.300204618532593
1700081299,0.9720079572884811,-0.21293925889908258,0.0589058774617737,0.014508049407202865,-0.04673119072214818,-0.005497787143782138,-36.97749196141479,-36.02747734580532,13.314820228003507
1700081299,0.9724957906422018,-0.21379296726809377,0.0589058774617737,0.01511891464540088,-0.04642575810304917,-0.005497787143782138,-37.24057293189126,-35.55977784273604,13.197895352236188
1700081299,0.9724957906422018,-0.21379296726809377,0.0589058774617737,0.01511891464540088,-0.04642575810304917,-0.005497787143782138,-36.56825489622918,-35.88132125109617,13.110201695410698
1700081299,0.9716420822731905,-0.21330513391437306,0.059027835800203876,0.0160352125026979,-0.04657847441259867,-0.005345070834232635,-36.407483192049106,-35.5159310143233,13.270973399590764
1700081299,0.9716420822731905,-0.21330513391437306,0.059027835800203876,0.0160352125026979,-0.04657847441259867,-0.005345070834232635,-36.597486115171,-35.676702718503364,12.67173341128325
1700081299,0.9726177489806319,-0.21318317557594293,0.05988154416921509,0.01634064512179691,-0.04612032548395016,-0.005803219762881146,-36.597486115171,-35.88132125109617,13.782519731072787
1700081299,0.9726177489806319,-0.21318317557594293,0.05988154416921509,0.01634064512179691,-0.04612032548395016,-0.005803219762881146,-36.53902367728734,-36.05670856474715,13.197895352236188
1700081300,0.9721299156269112,-0.21281730056065234,0.05951566915392456,0.016187928812247405,-0.04581489286485115,-0.005803219762881146,-37.37211341712949,-35.82285881321251,13.504823151125404
1700081300,0.9721299156269112,-0.21281730056065234,0.05951566915392456,0.016187928812247405,-0.04581489286485115,-0.005803219762881146,-36.29055831628179,-36.100555393159894,13.446360713241742
1700081300,0.9724957906422018,-0.21293925889908258,0.06012546084607543,0.0158824961931484,-0.04642575810304917,-0.006108652381980153,-36.36363636363637,-35.852090032154344,13.387898275358081
1700081300,0.9724957906422018,-0.21293925889908258,0.06012546084607543,0.0158824961931484,-0.04642575810304917,-0.006108652381980153,-36.64133294358375,-35.70593393744519,13.241742180648933
1700081300,0.9729836239959225,-0.21330513391437306,0.06024741918450561,0.0160352125026979,-0.047342055960346185,-0.006414085001079161,-36.407483192049106,-35.79362759427068,13.007892429114293
1700081300,0.9729836239959225,-0.21330513391437306,0.06024741918450561,0.0160352125026979,-0.047342055960346185,-0.006414085001079161,-36.407483192049106,-36.01286173633441,13.197895352236188
1700081300,0.9717640406116207,-0.21281730056065234,0.05951566915392456,0.016493361431346415,-0.047189339650796684,-0.006414085001079161,-36.74364220988015,-35.48669979538147,12.84712072493423
1700081300,0.9717640406116207,-0.21281730056065234,0.05951566915392456,0.016493361431346415,-0.047189339650796684,-0.006414085001079161,-36.99210757088571,-35.57439345220696,13.928675825781935
1700081300,0.9721299156269112,-0.21159771717635062,0.058540002446483184,0.015271630954950384,-0.047036623341247176,-0.006261368691529657,-36.33440514469453,-35.749780765857935,13.110201695410698
1700081300,0.9721299156269112,-0.21159771717635062,0.058540002446483184,0.015271630954950384,-0.047036623341247176,-0.006261368691529657,-36.56825489622918,-35.92516807950892,14.133294358374746
1700081300,0.9732275406727828,-0.21245142554536187,0.058418044108053006,0.014049900478554353,-0.04581489286485115,-0.005345070834232635,-37.109032446653025,-35.98363051739257,13.344051446945338
1700081300,0.9732275406727828,-0.21245142554536187,0.058418044108053006,0.014049900478554353,-0.045356743936202634,-0.004123340357836604,-36.94826074247296,-35.89593686056708,13.91406021631102
1700081300,0.9727397073190621,-0.21208555053007133,0.058540002446483184,0.013591751549905842,-0.045356743936202634,-0.004123340357836604,-36.68517977199649,-35.89593686056708,13.373282665887167
1700081300,0.9727397073190621,-0.21208555053007133,0.058540002446483184,0.014660765716752368,-0.04444044607890562,-0.002748893571891069,-36.81672025723473,-36.129786612101725,14.586378251973105
1700081300,0.9726177489806319,-0.21208555053007133,0.05829608576962283,0.014660765716752368,-0.04444044607890562,-0.002748893571891069,-36.97749196141479,-35.82285881321251,14.00175387313651
1700081300,0.973349499011213,-0.2122075088685015,0.05829608576962283,0.015271630954950384,-0.0438295808407076,-0.0022907446432425577,-36.11517100263081,-35.64747149956153,13.91406021631102
1700081300,0.973349499011213,-0.2122075088685015,0.05829608576962283,0.015271630954950384,-0.0438295808407076,-0.0022907446432425577,-36.17363344051447,-35.31131248173049,14.440222157263957
1700081300,0.9727397073190621,-0.21403688394495413,0.05927175247706422,0.014508049407202865,-0.04260785036431157,-0.0016798794050445422,-36.81672025723473,-35.69131832797427,13.91406021631102
1700081300,0.9727397073190621,-0.21403688394495413,0.05927175247706422,0.014508049407202865,-0.04260785036431157,-0.0016798794050445422,-36.34902075416545,-35.530546623794216,14.410990938322128
1700081300,0.9727397073190621,-0.21330513391437306,0.06122308589194699,0.014813482026301871,-0.04291328298341058,-0.0013744467859455344,-36.68517977199649,-35.676702718503364,14.732534346682257
1700081300,0.9727397073190621,-0.21330513391437306,0.06122308589194699,0.014813482026301871,-0.04291328298341058,-0.0013744467859455344,-36.860567085647475,-35.64747149956153,14.060216311020168
1700081300,0.9715201239347604,-0.21440275896024466,0.06012546084607543,0.014049900478554353,-0.04321871560250958,-0.002138028333693054,-36.48056123940368,-35.530546623794216,13.680210464776382
1700081300,0.9715201239347604,-0.21440275896024466,0.06012546084607543,0.014049900478554353,-0.04321871560250958,-0.002138028333693054,-36.17363344051447,-35.82285881321251,13.7971353405437
1700081300,0.9713981655963302,-0.21574430068297654,0.06049133586136595,0.01557706357404939,-0.04444044607890562,-0.0030543261909900766,-36.29055831628179,-35.64747149956153,13.519438760596318
1700081300,0.9713981655963302,-0.21574430068297654,0.06049133586136595,0.01557706357404939,-0.04444044607890562,-0.0030543261909900766,-36.11517100263081,-36.02747734580532,13.782519731072787
1700081300,0.9718859989500509,-0.2150125506523955,0.05975958583078492,0.01710422666954443,-0.04520402762665313,-0.005039638215133627,-35.910552470038,-35.55977784273604,13.76790412160187
1700081300,0.9718859989500509,-0.2150125506523955,0.05975958583078492,0.01710422666954443,-0.04520402762665313,-0.005039638215133627,-36.407483192049106,-35.38439052908507,14.045600701549255
1700081300,0.9717640406116207,-0.21476863397553514,0.06000350250764525,0.016493361431346415,-0.04673119072214818,-0.006719517620178169,-36.05670856474715,-35.42823735749781,13.884828997369189
1700081300,0.9717640406116207,-0.21476863397553514,0.06000350250764525,0.016493361431346415,-0.047494772269895694,-0.0079412480965742,-36.378251973107275,-35.530546623794216,14.089447529962
1700081300,0.9720079572884811,-0.21379296726809377,0.06012546084607543,0.016493361431346415,-0.047494772269895694,-0.0079412480965742,-36.64133294358375,-35.31131248173049,14.089447529962
1700081300,0.9720079572884811,-0.21379296726809377,0.06012546084607543,0.016493361431346415,-0.047189339650796684,-0.008552113334772215,-36.407483192049106,-35.89593686056708,14.703303127740428
1700081300,0.9718859989500509,-0.21318317557594293,0.05963762749235474,0.016493361431346415,-0.047189339650796684,-0.008552113334772215,-36.08593978368898,-36.01286173633441,13.884828997369189
1700081300,0.9718859989500509,-0.21318317557594293,0.0593937108154944,0.01756237559819294,-0.047342055960346185,-0.0079412480965742,-36.55363928675826,-36.04209295527623,14.220988015200234
1700081300,0.9728616656574923,-0.21269534222222222,0.0593937108154944,0.01756237559819294,-0.047342055960346185,-0.0079412480965742,-37.02133878982753,-35.34054370067231,14.016369482607423
1700081300,0.973471457349643,-0.21159771717635062,0.058540002446483184,0.017409659288643436,-0.047494772269895694,-0.007330382858376184,-36.933645133002045,-35.48669979538147,13.694826074247295
1700081300,0.973471457349643,-0.21159771717635062,0.058540002446483184,0.017409659288643436,-0.047494772269895694,-0.007330382858376184,-36.378251973107275,-35.6182402806197,14.951768488745982
1700081300,0.9731055823343526,-0.21208555053007133,0.05829608576962283,0.0160352125026979,-0.04657847441259867,-0.006108652381980153,-36.27594270681087,-35.92516807950892,14.454837766734874
1700081300,0.9731055823343526,-0.21208555053007133,0.05829608576962283,0.0160352125026979,-0.04657847441259867,-0.006108652381980153,-35.93978368897983,-35.93978368897983,13.94329143525285
1700081300,0.9726177489806319,-0.21196359219164115,0.05829608576962283,0.015729779883598895,-0.04581489286485115,-0.00519235452468313,-36.69979538146741,-36.08593978368898,13.826366559485532
1700081300,0.9726177489806319,-0.21196359219164115,0.05829608576962283,0.015729779883598895,-0.04581489286485115,-0.00519235452468313,-36.714410990938326,-35.98363051739257,13.94329143525285
1700081300,0.9728616656574923,-0.21281730056065234,0.05793021075433231,0.01511891464540088,-0.04474587869800463,-0.003817907738737596,-36.509792458345515,-35.779011984799766,13.782519731072787
1700081300,0.9728616656574923,-0.21281730056065234,0.05793021075433231,0.01511891464540088,-0.04474587869800463,-0.003817907738737596,-37.16749488453669,-35.55977784273604,13.826366559485532
1700081300,0.9731055823343526,-0.21184163385321098,0.05829608576962283,0.01557706357404939,-0.04428772976935611,-0.0032070425005395805,-36.74364220988015,-36.02747734580532,13.650979245834552
1700081300,0.9731055823343526,-0.21184163385321098,0.05829608576962283,0.01557706357404939,-0.04428772976935611,-0.0032070425005395805,-36.45133002046185,-35.530546623794216,14.162525577316574
1700081300,0.9720079572884811,-0.21196359219164115,0.058052169092762486,0.01557706357404939,-0.0436768645311581,-0.002748893571891069,-36.860567085647475,-35.64747149956153,13.534054370067231
1700081300,0.9720079572884811,-0.21196359219164115,0.058052169092762486,0.01557706357404939,-0.0436768645311581,-0.002748893571891069,-36.97749196141479,-35.5159310143233,14.045600701549255
1700081300,0.9726177489806319,-0.2123294672069317,0.05829608576962283,0.01511891464540088,-0.04306599929296008,-0.002596177262341565,-36.90441391406022,-35.603624671148786,14.20637240572932
1700081300,0.9726177489806319,-0.2123294672069317,0.05829608576962283,0.01511891464540088,-0.04306599929296008,-0.002596177262341565,-36.509792458345515,-35.70593393744519,13.694826074247295
1700081300,0.9721299156269112,-0.21269534222222222,0.059027835800203876,0.014660765716752368,-0.04337143191205909,-0.002138028333693054,-36.4951768488746,-35.8082432037416,13.607132417421807
1700081300,0.9721299156269112,-0.21269534222222222,0.059027835800203876,0.014660765716752368,-0.04337143191205909,-0.002138028333693054,-36.509792458345515,-35.88132125109617,13.344051446945338
1700081300,0.9717640406116207,-0.21342709225280324,0.05914979413863404,0.015729779883598895,-0.04260785036431157,-0.001832595714594046,-35.89593686056708,-35.676702718503364,13.446360713241742
1700081300,0.9717640406116207,-0.21342709225280324,0.05914979413863404,0.016493361431346415,-0.04352414822160859,-0.002138028333693054,-36.45133002046185,-35.44285296696872,12.715580239695996
1700081300,0.9718859989500509,-0.21293925889908258,0.06000350250764525,0.016493361431346415,-0.04352414822160859,-0.002138028333693054,-36.81672025723473,-35.852090032154344,13.183279742765272
1700081300,0.9718859989500509,-0.21293925889908258,0.06000350250764525,0.0160352125026979,-0.0439822971502571,-0.0033597588100890844,-36.33440514469453,-35.8082432037416,13.56328558900906
1700081300,0.9724957906422018,-0.21293925889908258,0.05914979413863404,0.0160352125026979,-0.0439822971502571,-0.0033597588100890844,-36.81672025723473,-36.14440222157264,13.680210464776382
1700081300,0.9720079572884811,-0.21379296726809377,0.05988154416921509,0.014660765716752368,-0.0439822971502571,-0.0039706240482871,-36.84595147617656,-35.82285881321251,13.387898275358081
1700081300,0.9720079572884811,-0.21379296726809377,0.05988154416921509,0.014660765716752368,-0.0439822971502571,-0.0039706240482871,-36.714410990938326,-35.48669979538147,13.636363636363635
1700081300,0.9728616656574923,-0.21428080062181448,0.05975958583078492,0.015424347264499889,-0.04520402762665313,-0.005345070834232635,-37.19672610347852,-35.55977784273604,13.884828997369189
1700081300,0.9728616656574923,-0.21428080062181448,0.05975958583078492,0.015424347264499889,-0.04520402762665313,-0.005345070834232635,-36.42209880152002,-35.779011984799766,14.440222157263957
1700081300,0.9724957906422018,-0.2130612172375127,0.05963762749235474,0.01679879405044542,-0.04581489286485115,-0.005497787143782138,-36.62671733411283,-35.93978368897983,13.56328558900906
1700081300,0.9724957906422018,-0.2130612172375127,0.05963762749235474,0.01679879405044542,-0.04581489286485115,-0.005497787143782138,-36.2028646594563,-35.72054954691611,13.724057293189126
1700081300,0.9717640406116207,-0.21245142554536187,0.0589058774617737,0.0160352125026979,-0.04627304179349966,-0.005803219762881146,-36.7874890382929,-35.70593393744519,14.454837766734874
1700081300,0.9717640406116207,-0.21245142554536187,0.0589058774617737,0.0160352125026979,-0.04627304179349966,-0.005803219762881146,-36.94826074247296,-35.58900906167787,13.753288512130958
1700081300,0.9720079572884811,-0.21196359219164115,0.0589058774617737,0.015424347264499889,-0.04642575810304917,-0.005803219762881146,-36.729026600409235,-35.44285296696872,13.680210464776382
1700081300,0.9720079572884811,-0.21196359219164115,0.0589058774617737,0.015424347264499889,-0.04642575810304917,-0.005803219762881146,-36.26132709733996,-35.25285004384683,13.56328558900906
1700081300,0.9724957906422018,-0.21245142554536187,0.058661960784913356,0.014966198335851376,-0.04673119072214818,-0.005039638215133627,-36.08593978368898,-35.45746857643964,13.94329143525285
1700081300,0.9724957906422018,-0.21245142554536187,0.058661960784913356,0.014966198335851376,-0.04673119072214818,-0.005039638215133627,-36.77287342882198,-35.325928091201405,13.7971353405437
1700081300,0.9723738323037716,-0.2136710089296636,0.058052169092762486,0.014660765716752368,-0.04657847441259867,-0.004428772976935611,-37.109032446653025,-35.603624671148786,13.694826074247295
1700081300,0.9723738323037716,-0.2136710089296636,0.058052169092762486,0.014660765716752368,-0.04657847441259867,-0.004581489286485115,-37.41596024554224,-35.63285589009062,13.7971353405437
1700081300,0.9722518739653414,-0.21293925889908258,0.05817412743119265,0.015271630954950384,-0.04642575810304917,-0.004581489286485115,-37.211341712949434,-35.55977784273604,13.840982168956446
1700081300,0.9722518739653414,-0.21293925889908258,0.05817412743119265,0.016187928812247405,-0.04596760917440065,-0.004581489286485115,-37.24057293189126,-35.42823735749781,14.235603624671148
1700081300,0.9723738323037716,-0.21379296726809377,0.05829608576962283,0.016187928812247405,-0.04596760917440065,-0.004581489286485115,-36.407483192049106,-35.00438468284127,13.94329143525285
1700081300,0.9723738323037716,-0.21379296726809377,0.05829608576962283,0.016187928812247405,-0.045662176555301644,-0.005039638215133627,-36.94826074247296,-35.58900906167787,13.592516807950892
1700081300,0.9718859989500509,-0.21281730056065234,0.058052169092762486,0.016187928812247405,-0.045662176555301644,-0.005039638215133627,-37.211341712949434,-35.86670564162526,14.396375328851214
1700081300,0.9726177489806319,-0.21257338388379204,0.0593937108154944,0.01557706357404939,-0.04520402762665313,-0.005497787143782138,-36.74364220988015,-35.34054370067231,14.264834843612977
1700081300,0.9726177489806319,-0.21257338388379204,0.0593937108154944,0.01557706357404939,-0.04520402762665313,-0.005497787143782138,-37.40134463607133,-35.194387605963165,14.440222157263957
1700081300,0.9724957906422018,-0.21257338388379204,0.058052169092762486,0.014966198335851376,-0.04505131131710363,-0.004886921905584123,-37.67904121601871,-35.121309558608594,13.826366559485532
1700081300,0.9724957906422018,-0.21257338388379204,0.058052169092762486,0.014966198335851376,-0.04505131131710363,-0.004886921905584123,-37.109032446653025,-35.28208126278866,13.724057293189126
1700081300,0.973471457349643,-0.21269534222222222,0.058540002446483184,0.01557706357404939,-0.04459316238845512,-0.004428772976935611,-37.313650979245836,-35.20900321543408,13.197895352236188
1700081300,0.973471457349643,-0.21269534222222222,0.058540002446483184,0.01557706357404939,-0.04459316238845512,-0.004428772976935611,-37.05057000876937,-35.45746857643964,14.104063139432915
1700081300,0.9723738323037716,-0.2123294672069317,0.058418044108053006,0.016493361431346415,-0.04459316238845512,-0.004276056667386108,-36.77287342882198,-35.03361590178311,13.680210464776382
1700081300,0.9723738323037716,-0.2123294672069317,0.058418044108053006,0.016493361431346415,-0.04459316238845512,-0.004276056667386108,-36.87518269511838,-35.63285589009062,13.373282665887167
1700081300,0.9726177489806319,-0.21208555053007133,0.05914979413863404,0.016493361431346415,-0.04428772976935611,-0.0035124751196385882,-36.31978953522362,-35.779011984799766,13.314820228003507
1700081300,0.9726177489806319,-0.21208555053007133,0.05914979413863404,0.016493361431346415,-0.04428772976935611,-0.0035124751196385882,-37.138263665594856,-35.47208418591055,13.431745103770828
1700081300,0.9729836239959225,-0.2135490505912334,0.058661960784913356,0.01557706357404939,-0.0439822971502571,-0.002901609881440573,-36.94826074247296,-35.048231511254016,13.870213387898275
1700081300,0.9729836239959225,-0.2135490505912334,0.058661960784913356,0.01557706357404939,-0.0439822971502571,-0.002901609881440573,-36.81672025723473,-35.6182402806197,13.007892429114293
1700081300,0.9721299156269112,-0.21281730056065234,0.0589058774617737,0.01557706357404939,-0.04352414822160859,-0.002596177262341565,-36.39286758257819,-35.749780765857935,12.467114878690442
1700081300,0.9718859989500509,-0.21245142554536187,0.05914979413863404,0.01511891464540088,-0.04352414822160859,-0.0024434609527920616,-36.62671733411283,-35.749780765857935,13.460976322712655
1700081300,0.9718859989500509,-0.21245142554536187,0.05914979413863404,0.01511891464540088,-0.04352414822160859,-0.0024434609527920616,-36.378251973107275,-35.55977784273604,13.329435837474424
1700081300,0.9723738323037716,-0.21293925889908258,0.05914979413863404,0.014813482026301871,-0.04428772976935611,-0.0024434609527920616,-36.2028646594563,-35.79362759427068,13.358667056416252
1700081300,0.9723738323037716,-0.21293925889908258,0.05914979413863404,0.014813482026301871,-0.04428772976935611,-0.0024434609527920616,-36.74364220988015,-35.8082432037416,13.212510961707103
1700081300,0.9716420822731905,-0.21342709225280324,0.0589058774617737,0.014508049407202865,-0.04444044607890562,-0.002748893571891069,-36.729026600409235,-35.501315404852384,12.8178895059924
1700081300,0.9716420822731905,-0.21342709225280324,0.0589058774617737,0.014508049407202865,-0.04444044607890562,-0.002748893571891069,-36.80210464776381,-35.6182402806197,13.066354866997953
1700081300,0.9721299156269112,-0.2135490505912334,0.05914979413863404,0.015424347264499889,-0.04474587869800463,-0.0032070425005395805,-36.62671733411283,-35.55977784273604,13.753288512130958
1700081300,0.9721299156269112,-0.2135490505912334,0.05914979413863404,0.015424347264499889,-0.04474587869800463,-0.0032070425005395805,-37.26980415083309,-35.58900906167787,13.957907044723767
1700081300,0.9723738323037716,-0.21342709225280324,0.058418044108053006,0.015729779883598895,-0.04444044607890562,-0.003817907738737596,-37.35749780765858,-35.296696872259574,13.650979245834552
1700081301,0.9723738323037716,-0.21342709225280324,0.058418044108053006,0.015729779883598895,-0.04413501345980661,-0.004581489286485115,-37.12364805612394,-35.23823443437591,12.803273896521485
1700081301,0.9732275406727828,-0.21293925889908258,0.0593937108154944,0.01511891464540088,-0.04413501345980661,-0.004581489286485115,-36.56825489622918,-36.01286173633441,13.241742180648933
1700081301,0.9732275406727828,-0.21293925889908258,0.0593937108154944,0.015271630954950384,-0.0439822971502571,-0.004886921905584123,-36.758257819351066,-35.954399298450745,13.607132417421807
1700081301,0.9735934156880733,-0.2130612172375127,0.0593937108154944,0.015271630954950384,-0.0439822971502571,-0.004886921905584123,-36.80210464776381,-35.64747149956153,13.782519731072787
1700081301,0.9735934156880733,-0.2130612172375127,0.0593937108154944,0.015729779883598895,-0.04413501345980661,-0.004886921905584123,-37.41596024554224,-35.45746857643964,13.97252265419468
1700081301,0.9721299156269112,-0.21342709225280324,0.05914979413863404,0.015729779883598895,-0.04413501345980661,-0.004886921905584123,-36.8897983045893,-35.64747149956153,13.694826074247295
1700081301,0.9727397073190621,-0.21342709225280324,0.05951566915392456,0.017409659288643436,-0.04474587869800463,-0.005039638215133627,-36.55363928675826,-35.296696872259574,13.241742180648933
1700081301,0.9727397073190621,-0.21342709225280324,0.05951566915392456,0.017409659288643436,-0.04474587869800463,-0.005039638215133627,-36.43671441099094,-35.47208418591055,13.095586085939784
1700081301,0.9729836239959225,-0.21281730056065234,0.058661960784913356,0.017409659288643436,-0.04413501345980661,-0.005039638215133627,-36.04209295527623,-35.223618824905,13.577901198479978
1700081301,0.9729836239959225,-0.21281730056065234,0.058661960784913356,0.017409659288643436,-0.04413501345980661,-0.005039638215133627,-37.00672318035662,-35.63285589009062,14.17714118678749
1700081301,0.9727397073190621,-0.21269534222222222,0.05951566915392456,0.014813482026301871,-0.04474587869800463,-0.005345070834232635,-36.8897983045893,-35.35515931014323,13.70944168371821
1700081301,0.9727397073190621,-0.21269534222222222,0.05951566915392456,0.014813482026301871,-0.04474587869800463,-0.005345070834232635,-37.12364805612394,-35.79362759427068,13.97252265419468
1700081301,0.9726177489806319,-0.2117196755147808,0.058540002446483184,0.01435533309765336,-0.0439822971502571,-0.00519235452468313,-36.7874890382929,-35.64747149956153,14.045600701549255
1700081301,0.9726177489806319,-0.2117196755147808,0.058540002446483184,0.01435533309765336,-0.0439822971502571,-0.00519235452468313,-36.31978953522362,-35.79362759427068,13.840982168956446
1700081301,0.9724957906422018,-0.21330513391437306,0.05829608576962283,0.015271630954950384,-0.04428772976935611,-0.003665191429188092,-36.53902367728734,-35.73516515638702,13.227126571178019
1700081301,0.9724957906422018,-0.21330513391437306,0.05829608576962283,0.015271630954950384,-0.04428772976935611,-0.003665191429188092,-36.29055831628179,-35.603624671148786,12.949429991230636
1700081301,0.9718859989500509,-0.21269534222222222,0.05878391912334352,0.017715091907742442,-0.04428772976935611,-0.003817907738737596,-36.39286758257819,-35.6182402806197,13.417129494299912
1700081301,0.9718859989500509,-0.21269534222222222,0.05878391912334352,0.017715091907742442,-0.04428772976935611,-0.003817907738737596,-36.729026600409235,-35.779011984799766,13.811750950014615
1700081301,0.9721299156269112,-0.2123294672069317,0.058661960784913356,0.016493361431346415,-0.04444044607890562,-0.002748893571891069,-36.62671733411283,-35.58900906167787,12.890967553346973
1700081301,0.9721299156269112,-0.2123294672069317,0.058661960784913356,0.016493361431346415,-0.04444044607890562,-0.002748893571891069,-36.61210172464192,-35.399006138555976,13.56328558900906
1700081301,0.9728616656574923,-0.21391492560652395,0.058661960784913356,0.014660765716752368,-0.04444044607890562,-0.0030543261909900766,-36.56825489622918,-35.66208710903245,13.373282665887167
1700081301,0.9728616656574923,-0.21391492560652395,0.058661960784913356,0.014660765716752368,-0.04444044607890562,-0.0030543261909900766,-36.26132709733996,-35.545162233265124,13.300204618532593
1700081301,0.9724957906422018,-0.21293925889908258,0.05829608576962283,0.014660765716752368,-0.04428772976935611,-0.0032070425005395805,-36.17363344051447,-35.779011984799766,13.70944168371821
1700081301,0.9724957906422018,-0.21293925889908258,0.05829608576962283,0.0158824961931484,-0.04474587869800463,-0.0033597588100890844,-35.88132125109617,-35.82285881321251,13.7971353405437
1700081301,0.9715201239347604,-0.21391492560652395,0.05951566915392456,0.0158824961931484,-0.04474587869800463,-0.0033597588100890844,-36.2028646594563,-35.70593393744519,14.17714118678749
1700081301,0.9715201239347604,-0.21391492560652395,0.05951566915392456,0.016646077740895916,-0.04474587869800463,-0.003817907738737596,-36.100555393159894,-35.83747442268342,13.621748026892721
1700081301,0.9724957906422018,-0.21318317557594293,0.058661960784913356,0.016646077740895916,-0.04474587869800463,-0.003817907738737596,-36.378251973107275,-35.41362174802689,13.154048523823445
1700081301,0.9724957906422018,-0.21257338388379204,0.05829608576962283,0.0158824961931484,-0.04474587869800463,-0.004276056667386108,-36.42209880152002,-35.31131248173049,13.957907044723767
1700081301,0.9724957906422018,-0.21257338388379204,0.05829608576962283,0.0158824961931484,-0.04474587869800463,-0.004276056667386108,-36.29055831628179,-35.72054954691611,13.504823151125404
1700081301,0.9718859989500509,-0.21281730056065234,0.05878391912334352,0.015271630954950384,-0.0439822971502571,-0.004734205596034618,-36.61210172464192,-35.38439052908507,13.548669979538147
1700081301,0.9718859989500509,-0.21281730056065234,0.05878391912334352,0.015271630954950384,-0.0439822971502571,-0.004734205596034618,-36.36363636363637,-36.05670856474715,13.884828997369189
1700081301,0.9715201239347604,-0.2135490505912334,0.059027835800203876,0.01557706357404939,-0.0438295808407076,-0.004581489286485115,-36.84595147617656,-35.89593686056708,14.133294358374746
1700081301,0.9715201239347604,-0.2135490505912334,0.059027835800203876,0.01557706357404939,-0.0438295808407076,-0.004581489286485115,-36.56825489622918,-35.296696872259574,14.586378251973105
1700081301,0.9721299156269112,-0.2135490505912334,0.058418044108053006,0.016951510359994926,-0.0436768645311581,-0.004886921905584123,-36.758257819351066,-35.47208418591055,14.469453376205788
1700081301,0.9721299156269112,-0.2135490505912334,0.058418044108053006,0.016951510359994926,-0.0436768645311581,-0.004886921905584123,-36.933645133002045,-35.852090032154344,13.884828997369189
1700081301,0.9718859989500509,-0.2123294672069317,0.05914979413863404,0.01710422666954443,-0.0436768645311581,-0.004428772976935611,-36.29055831628179,-35.5159310143233,14.484068985676704
1700081301,0.9718859989500509,-0.2123294672069317,0.05914979413863404,0.01710422666954443,-0.0436768645311581,-0.004428772976935611,-36.91902952353113,-35.41362174802689,13.168664133294358
1700081301,0.9728616656574923,-0.21330513391437306,0.05975958583078492,0.0160352125026979,-0.0436768645311581,-0.004581489286485115,-37.03595439929845,-35.79362759427068,13.928675825781935
1700081301,0.9728616656574923,-0.21330513391437306,0.05975958583078492,0.0160352125026979,-0.0436768645311581,-0.004581489286485115,-37.03595439929845,-35.72054954691611,13.680210464776382
1700081301,0.9726177489806319,-0.21318317557594293,0.05927175247706422,0.014966198335851376,-0.0436768645311581,-0.005039638215133627,-36.831335866705636,-35.779011984799766,13.840982168956446
1700081301,0.9726177489806319,-0.21318317557594293,0.05927175247706422,0.014966198335851376,-0.0436768645311581,-0.005039638215133627,-36.61210172464192,-35.70593393744519,14.14790996784566
1700081301,0.9724957906422018,-0.21440275896024466,0.0593937108154944,0.015424347264499889,-0.04337143191205909,-0.005497787143782138,-37.05057000876937,-35.5159310143233,13.285589009061678
1700081301,0.9724957906422018,-0.21440275896024466,0.0593937108154944,0.015424347264499889,-0.04337143191205909,-0.005497787143782138,-37.138263665594856,-36.07132417421807,13.782519731072787
1700081301,0.9722518739653414,-0.2135490505912334,0.05914979413863404,0.01710422666954443,-0.04306599929296008,-0.005803219762881146,-37.24057293189126,-35.66208710903245,13.826366559485532
1700081301,0.9722518739653414,-0.2135490505912334,0.05914979413863404,0.018020524526841452,-0.04245513405476207,-0.006414085001079161,-37.138263665594856,-35.852090032154344,13.490207541654486
1700081301,0.9722518739653414,-0.21281730056065234,0.05829608576962283,0.018020524526841452,-0.04245513405476207,-0.006414085001079161,-36.74364220988015,-35.88132125109617,13.25635779011985
1700081301,0.9722518739653414,-0.21281730056065234,0.05829608576962283,0.016951510359994926,-0.04214970143566306,-0.0070249502392771765,-36.94826074247296,-35.89593686056708,13.446360713241742
1700081301,0.9722518739653414,-0.2135490505912334,0.05793021075433231,0.016951510359994926,-0.04214970143566306,-0.0070249502392771765,-37.211341712949434,-35.749780765857935,13.7971353405437
1700081301,0.9722518739653414,-0.2135490505912334,0.0589058774617737,0.019394971312786988,-0.04199698512611356,-0.008093964406123703,-36.24671148786904,-36.23209587839813,13.534054370067231
1700081301,0.9728616656574923,-0.21391492560652395,0.0589058774617737,0.019394971312786988,-0.04199698512611356,-0.008093964406123703,-36.84595147617656,-35.150540777550425,13.56328558900906
1700081301,0.9721299156269112,-0.20891463373088684,0.06024741918450561,0.02153299964648004,-0.04153883619746504,-0.007788531787024695,-36.94826074247296,-35.88132125109617,13.636363636363635
1700081301,0.9721299156269112,-0.20891463373088684,0.06024741918450561,0.02153299964648004,-0.04153883619746504,-0.007788531787024695,-36.61210172464192,-36.01286173633441,13.490207541654486
1700081301,0.9717640406116207,-0.21037813379204892,0.062320710937818546,0.01756237559819294,-0.0438295808407076,-0.006261368691529657,-36.87518269511838,-36.04209295527623,13.431745103770828
1700081301,0.9717640406116207,-0.21037813379204892,0.062320710937818546,0.01756237559819294,-0.0438295808407076,-0.006261368691529657,-37.16749488453669,-35.42823735749781,13.548669979538147
1700081301,0.970544457227319,-0.21452471729867478,0.06341833598369011,0.01756237559819294,-0.047342055960346185,-0.002596177262341565,-36.80210464776381,-35.88132125109617,13.519438760596318
1700081301,0.970544457227319,-0.21452471729867478,0.06341833598369011,0.01756237559819294,-0.047342055960346185,-0.002596177262341565,-36.56825489622918,-35.58900906167787,14.118678748903829
1700081301,0.969934665535168,-0.2141588422833843,0.06305246096839959,0.02199114857512855,-0.05238169417547982,-0.000916297857297023,-36.714410990938326,-35.6182402806197,13.899444606840106
1700081301,0.969934665535168,-0.2141588422833843,0.06305246096839959,0.02199114857512855,-0.05238169417547982,-0.000916297857297023,-36.84595147617656,-35.36977491961415,14.790996784565916
1700081301,0.9713981655963302,-0.21318317557594293,0.06378421099898063,0.023671027980173093,-0.05803219762881146,-0.0007635815477475192,-36.80210464776381,-35.58900906167787,14.279450453083895
1700081301,0.9713981655963302,-0.21318317557594293,0.06378421099898063,0.023671027980173093,-0.05803219762881146,-0.0007635815477475192,-36.509792458345515,-35.83747442268342,13.73867290266004
1700081301,0.9722518739653414,-0.21318317557594293,0.062076794260958204,0.019242255003237483,-0.062002821677098564,-0.002901609881440573,-37.19672610347852,-35.749780765857935,13.621748026892721
1700081301,0.9722518739653414,-0.21318317557594293,0.062076794260958204,0.014966198335851376,-0.0635299847725936,-0.005803219762881146,-37.02133878982753,-35.66208710903245,13.636363636363635
1700081301,0.9728616656574923,-0.21391492560652395,0.05732041906218144,0.014966198335851376,-0.0635299847725936,-0.005803219762881146,-36.597486115171,-35.8082432037416,13.504823151125404
1700081301,0.9728616656574923,-0.21391492560652395,0.055369085647298664,0.014660765716752368,-0.06230825429619756,-0.008704829644321718,-36.46594562993277,-35.89593686056708,13.344051446945338
1700081301,0.9729836239959225,-0.2150125506523955,0.055369085647298664,0.014660765716752368,-0.06230825429619756,-0.008704829644321718,-36.61210172464192,-36.129786612101725,13.884828997369189
1700081301,0.9738373323649337,-0.21391492560652395,0.052198168848114165,0.017256942979093935,-0.057574048700162944,-0.011453723216212788,-37.22595732242034,-35.852090032154344,13.431745103770828
1700081301,0.9738373323649337,-0.21391492560652395,0.052198168848114165,0.017256942979093935,-0.057574048700162944,-0.011453723216212788,-37.284419760304004,-35.70593393744519,14.425606547793043
1700081301,0.9756667074413864,-0.21110988382262996,0.0515883771559633,0.019700403931885994,-0.05146539631818279,-0.013439035240356337,-37.34288219818767,-35.76439637532885,14.074831920491086
1700081301,0.9756667074413864,-0.21110988382262996,0.0515883771559633,0.019700403931885994,-0.05146539631818279,-0.013439035240356337,-36.64133294358375,-35.36977491961415,14.630225080385854
1700081301,0.9762764991335371,-0.2085487587155963,0.0515883771559633,0.018478673455489966,-0.04444044607890562,-0.012675453692608817,-36.69979538146741,-35.41362174802689,14.937152879275065
1700081301,0.9762764991335371,-0.2085487587155963,0.0515883771559633,0.018478673455489966,-0.04444044607890562,-0.012675453692608817,-37.02133878982753,-35.31131248173049,14.250219234142063
1700081301,0.973959290703364,-0.20891463373088684,0.0529299188786952,0.014660765716752368,-0.037262779530078935,-0.011759155835311794,-35.910552470038,-35.121309558608594,14.250219234142063
1700081301,0.973959290703364,-0.20891463373088684,0.0529299188786952,0.014660765716752368,-0.037262779530078935,-0.011759155835311794,-36.61210172464192,-35.82285881321251,14.03098509207834
1700081301,0.9731055823343526,-0.21050009213047907,0.05585691900101936,0.012217304763960306,-0.03222314131494531,-0.010231992739816757,-36.53902367728734,-35.223618824905,14.14790996784566
1700081301,0.9731055823343526,-0.21050009213047907,0.05585691900101936,0.012217304763960306,-0.03222314131494531,-0.010231992739816757,-36.87518269511838,-35.325928091201405,13.870213387898275
1700081301,0.9715201239347604,-0.21208555053007133,0.06000350250764525,0.01313360262125733,-0.03145955976719779,-0.008246680715673207,-36.933645133002045,-35.48669979538147,14.425606547793043
1700081301,0.9715201239347604,-0.21208555053007133,0.06000350250764525,0.01313360262125733,-0.03145955976719779,-0.008246680715673207,-36.80210464776381,-35.749780765857935,14.542531423560362
1700081301,0.9710322905810397,-0.21257338388379204,0.062320710937818546,0.016646077740895916,-0.03375030441044035,-0.005955936072430649,-36.43671441099094,-35.749780765857935,14.235603624671148
1700081301,0.9710322905810397,-0.21257338388379204,0.062320710937818546,0.016646077740895916,-0.03375030441044035,-0.005955936072430649,-36.39286758257819,-35.93978368897983,14.03098509207834
1700081301,0.9701785822120286,-0.21159771717635062,0.06390616933741079,0.018020524526841452,-0.038484510006474966,-0.004734205596034618,-36.94826074247296,-35.603624671148786,14.469453376205788
1700081301,0.9701785822120286,-0.21159771717635062,0.06390616933741079,0.018020524526841452,-0.038484510006474966,-0.004734205596034618,-36.90441391406022,-35.501315404852384,13.826366559485532
1700081301,0.9709103322426095,-0.2122075088685015,0.06390616933741079,0.014508049407202865,-0.04352414822160859,-0.004428772976935611,-37.03595439929845,-35.64747149956153,14.32329728149664
1700081301,0.9709103322426095,-0.2122075088685015,0.06390616933741079,0.014508049407202865,-0.04352414822160859,-0.004428772976935611,-36.7874890382929,-35.92516807950892,14.352528500438469
1700081301,0.9706664155657491,-0.2136710089296636,0.062320710937818546,0.011453723216212788,-0.049785516913138254,-0.00519235452468313,-36.55363928675826,-35.57439345220696,14.805612394036832
1700081301,0.9706664155657491,-0.2136710089296636,0.062320710937818546,0.01069014166846527,-0.05482515512827187,-0.005803219762881146,-36.758257819351066,-35.35515931014323,14.586378251973105
1700081301,0.970544457227319,-0.2136710089296636,0.06122308589194699,0.01069014166846527,-0.05482515512827187,-0.005803219762881146,-36.31978953522362,-35.749780765857935,14.425606547793043
1700081301,0.970544457227319,-0.2136710089296636,0.06122308589194699,0.015424347264499889,-0.059253928105207486,-0.005650503453331642,-36.860567085647475,-35.47208418591055,14.484068985676704
1700081301,0.9707883739041795,-0.21525646732925585,0.06012546084607543,0.015424347264499889,-0.059253928105207486,-0.005650503453331642,-37.05057000876937,-35.48669979538147,14.03098509207834
1700081301,0.9724957906422018,-0.21184163385321098,0.05756433573904179,0.02199114857512855,-0.062002821677098564,-0.005955936072430649,-36.4951768488746,-35.99824612686349,14.469453376205788
1700081301,0.9724957906422018,-0.21184163385321098,0.05756433573904179,0.02199114857512855,-0.062002821677098564,-0.005955936072430649,-36.64133294358375,-35.70593393744519,14.542531423560362
1700081301,0.9742032073802243,-0.20818288370030577,0.05475929395514781,0.02229658119422756,-0.06154467274845005,-0.005803219762881146,-36.714410990938326,-36.07132417421807,14.20637240572932
1700081301,0.9742032073802243,-0.20818288370030577,0.05475929395514781,0.02229658119422756,-0.06154467274845005,-0.005803219762881146,-37.02133878982753,-35.910552470038,14.571762642502192
1700081301,0.9754227907645259,-0.20769505034658511,0.05390558558613659,0.01634064512179691,-0.058643062867009474,-0.005345070834232635,-36.758257819351066,-35.603624671148786,14.484068985676704
1700081301,0.9754227907645259,-0.20769505034658511,0.05390558558613659,0.01634064512179691,-0.058643062867009474,-0.005345070834232635,-36.407483192049106,-35.58900906167787,14.03098509207834
1700081301,0.974691040733945,-0.20964638376146785,0.053173835555555556,0.010995574287564275,-0.05390885727097486,-0.004276056667386108,-36.99210757088571,-36.11517100263081,14.454837766734874
1700081301,0.974691040733945,-0.20964638376146785,0.053173835555555556,0.010995574287564275,-0.05390885727097486,-0.004276056667386108,-36.31978953522362,-35.57439345220696,14.3817597193803
1700081301,0.9738373323649337,-0.21208555053007133,0.0529299188786952,0.012217304763960306,-0.049938233222687756,-0.0035124751196385882,-36.582870505700086,-35.23823443437591,14.074831920491086
1700081302,0.9738373323649337,-0.21208555053007133,0.0529299188786952,0.012217304763960306,-0.049938233222687756,-0.0035124751196385882,-36.39286758257819,-35.38439052908507,14.03098509207834
1700081302,0.973959290703364,-0.21196359219164115,0.05378362724770642,0.0160352125026979,-0.04612032548395016,-0.0030543261909900766,-36.48056123940368,-35.8082432037416,13.782519731072787
1700081302,0.973959290703364,-0.21196359219164115,0.05378362724770642,0.0160352125026979,-0.04612032548395016,-0.0030543261909900766,-36.53902367728734,-35.676702718503364,14.32329728149664
1700081302,0.9738373323649337,-0.21123184216106014,0.05500321063200815,0.01710422666954443,-0.04199698512611356,-0.003817907738737596,-36.21748026892722,-36.01286173633441,14.557147033031278
1700081302,0.9738373323649337,-0.21123184216106014,0.05500321063200815,0.01710422666954443,-0.04199698512611356,-0.003817907738737596,-36.55363928675826,-36.11517100263081,14.250219234142063
1700081302,0.9727397073190621,-0.21159771717635062,0.057076502385321096,0.014660765716752368,-0.04016438941151951,-0.005650503453331642,-36.4951768488746,-35.954399298450745,14.060216311020168
1700081302,0.9727397073190621,-0.21159771717635062,0.057076502385321096,0.011911872144861299,-0.03940080786377199,-0.007788531787024695,-36.7874890382929,-35.545162233265124,14.20637240572932
1700081302,0.9721299156269112,-0.21330513391437306,0.05695454404689092,0.011911872144861299,-0.03940080786377199,-0.007788531787024695,-36.81672025723473,-35.545162233265124,14.352528500438469
1700081302,0.9721299156269112,-0.21330513391437306,0.05695454404689092,0.010842857978014772,-0.039095375244672985,-0.010537425358915765,-36.860567085647475,-35.69131832797427,14.3817597193803
1700081302,0.9720079572884811,-0.21513450899082567,0.058052169092762486,0.010842857978014772,-0.039095375244672985,-0.010537425358915765,-36.962876351943876,-36.23209587839813,14.235603624671148
1700081302,0.9720079572884811,-0.21513450899082567,0.058052169092762486,0.01313360262125733,-0.04077525464971753,-0.012370021073509811,-36.100555393159894,-35.70593393744519,18.401052323881906
1700081302,0.9720079572884811,-0.21318317557594293,0.06012546084607543,0.01313360262125733,-0.04077525464971753,-0.012370021073509811,-36.26132709733996,-35.749780765857935,14.118678748903829
1700081302,0.9717640406116207,-0.21269534222222222,0.058661960784913356,0.015729779883598895,-0.04214970143566306,-0.013744467859455345,-36.62671733411283,-35.603624671148786,14.045600701549255
1700081302,0.9717640406116207,-0.21269534222222222,0.058661960784913356,0.015729779883598895,-0.04214970143566306,-0.013744467859455345,-36.43671441099094,-35.66208710903245,14.732534346682257
1700081302,0.9726177489806319,-0.21001225877675841,0.0593937108154944,0.017715091907742442,-0.04428772976935611,-0.013744467859455345,-36.597486115171,-35.66208710903245,14.630225080385854
1700081302,0.9726177489806319,-0.21001225877675841,0.0593937108154944,0.017715091907742442,-0.04428772976935611,-0.013744467859455345,-36.46594562993277,-35.73516515638702,14.542531423560362
1700081302,0.9729836239959225,-0.208304842038736,0.05829608576962283,0.01710422666954443,-0.04612032548395016,-0.011911872144861299,-36.45133002046185,-36.36363636363637,13.782519731072787
1700081302,0.9729836239959225,-0.208304842038736,0.05829608576962283,0.01710422666954443,-0.04612032548395016,-0.011911872144861299,-36.80210464776381,-35.82285881321251,13.680210464776382
1700081302,0.9724957906422018,-0.20964638376146785,0.05768629407747196,0.015729779883598895,-0.047036623341247176,-0.009315694882519734,-36.87518269511838,-35.70593393744519,14.337912890967552
1700081302,0.9724957906422018,-0.20964638376146785,0.05768629407747196,0.015729779883598895,-0.047036623341247176,-0.009315694882519734,-36.4951768488746,-36.17363344051447,14.089447529962
1700081302,0.9726177489806319,-0.20928050874617737,0.05646671069317023,0.01679879405044542,-0.047189339650796684,-0.005955936072430649,-37.19672610347852,-35.82285881321251,14.17714118678749
1700081302,0.9726177489806319,-0.20928050874617737,0.05646671069317023,0.01679879405044542,-0.047189339650796684,-0.005955936072430649,-36.53902367728734,-35.69131832797427,13.957907044723767
1700081302,0.9728616656574923,-0.20952442542303773,0.05549104398572884,0.01832595714594046,-0.04673119072214818,-0.002748893571891069,-36.21748026892722,-36.08593978368898,14.060216311020168
1700081302,0.9728616656574923,-0.20952442542303773,0.05549104398572884,0.01832595714594046,-0.04673119072214818,-0.002748893571891069,-36.33440514469453,-36.04209295527623,13.7971353405437
1700081302,0.9737153740265035,-0.20867071705402648,0.05549104398572884,0.019394971312786988,-0.04596760917440065,-0.00015271630954950385,-36.08593978368898,-35.749780765857935,13.154048523823445
1700081302,0.9737153740265035,-0.20867071705402648,0.05549104398572884,0.019394971312786988,-0.04596760917440065,-0.00015271630954950385,-36.55363928675826,-35.69131832797427,13.826366559485532
1700081302,0.9732275406727828,-0.20867071705402648,0.056100835677879705,0.017256942979093935,-0.0436768645311581,0.0013744467859455344,-37.138263665594856,-35.86670564162526,13.227126571178019
1700081302,0.9732275406727828,-0.20867071705402648,0.056100835677879705,0.017256942979093935,-0.0436768645311581,0.0013744467859455344,-36.48056123940368,-36.100555393159894,13.387898275358081
1700081302,0.973349499011213,-0.21001225877675841,0.05683258570846075,0.015424347264499889,-0.04337143191205909,0.0035124751196385882,-36.597486115171,-35.76439637532885,13.25635779011985
1700081302,0.973349499011213,-0.21001225877675841,0.05683258570846075,0.018478673455489966,-0.044898595007554123,0.0039706240482871,-36.67056416252558,-35.63285589009062,13.826366559485532
1700081302,0.9722518739653414,-0.21428080062181448,0.05817412743119265,0.018478673455489966,-0.044898595007554123,0.0039706240482871,-36.26132709733996,-35.98363051739257,14.294066062554808
1700081302,0.9722518739653414,-0.21428080062181448,0.05817412743119265,0.023518311670623588,-0.04657847441259867,0.002901609881440573,-36.597486115171,-35.47208418591055,13.987138263665594
1700081302,0.9717640406116207,-0.21428080062181448,0.058540002446483184,0.023518311670623588,-0.04657847441259867,0.002901609881440573,-36.597486115171,-35.79362759427068,13.811750950014615
1700081302,0.9728616656574923,-0.2123294672069317,0.05780825241590213,0.02229658119422756,-0.047647488579445195,-0.0004581489286485115,-36.48056123940368,-35.89593686056708,14.3817597193803
1700081302,0.9728616656574923,-0.2123294672069317,0.05780825241590213,0.02229658119422756,-0.047647488579445195,-0.0004581489286485115,-36.597486115171,-36.21748026892722,14.03098509207834
1700081302,0.9743251657186545,-0.21037813379204892,0.05451537727828745,0.0160352125026979,-0.04627304179349966,-0.003665191429188092,-36.84595147617656,-35.69131832797427,14.17714118678749
1700081302,0.9743251657186545,-0.21037813379204892,0.05451537727828745,0.0160352125026979,-0.04627304179349966,-0.003665191429188092,-36.24671148786904,-35.79362759427068,13.519438760596318
1700081302,0.9749349574108054,-0.21013421711518857,0.05378362724770642,0.00916297857297023,-0.04276056667386108,-0.006108652381980153,-36.55363928675826,-36.08593978368898,13.94329143525285
1700081302,0.9749349574108054,-0.21013421711518857,0.05378362724770642,0.00916297857297023,-0.04276056667386108,-0.006108652381980153,-36.729026600409235,-36.07132417421807,13.91406021631102
1700081302,0.9751788740876657,-0.2108659671457696,0.0529299188786952,0.008704829644321718,-0.037720928458727446,-0.005650503453331642,-36.84595147617656,-35.98363051739257,13.97252265419468
1700081302,0.9751788740876657,-0.2108659671457696,0.0529299188786952,0.008704829644321718,-0.037720928458727446,-0.005650503453331642,-36.305173925752705,-35.76439637532885,13.636363636363635
1700081302,0.9749349574108054,-0.21050009213047907,0.053539710570846076,0.014508049407202865,-0.03329215548179183,-0.002901609881440573,-36.64133294358375,-35.89593686056708,13.665594855305466
1700081302,0.9749349574108054,-0.21050009213047907,0.053539710570846076,0.014508049407202865,-0.03329215548179183,-0.002901609881440573,-36.94826074247296,-36.24671148786904,12.78865828705057
1700081302,0.9737153740265035,-0.20891463373088684,0.05451537727828745,0.019242255003237483,-0.03023782929080176,-0.0007635815477475192,-36.962876351943876,-35.73516515638702,14.133294358374746
1700081302,0.9737153740265035,-0.20891463373088684,0.05451537727828745,0.019242255003237483,-0.03023782929080176,-0.0007635815477475192,-36.29055831628179,-35.749780765857935,14.118678748903829
1700081302,0.9723738323037716,-0.20976834209989806,0.05780825241590213,0.018020524526841452,-0.02748893571891069,0.0006108652381980154,-36.8897983045893,-35.954399298450745,13.490207541654486
1700081302,0.9723738323037716,-0.20976834209989806,0.05780825241590213,0.018020524526841452,-0.02748893571891069,0.0006108652381980154,-37.02133878982753,-36.02747734580532,13.884828997369189
1700081302,0.9707883739041795,-0.21135380049949026,0.061588960907237505,0.01511891464540088,-0.028099800957108706,0.0016798794050445422,-37.05057000876937,-36.23209587839813,13.7971353405437
1700081302,0.9707883739041795,-0.21135380049949026,0.061588960907237505,0.01511891464540088,-0.028099800957108706,0.0024434609527920616,-37.109032446653025,-35.89593686056708,14.250219234142063
1700081302,0.9709103322426095,-0.21379296726809377,0.06378421099898063,0.013439035240356337,-0.030848694528999777,0.0024434609527920616,-36.61210172464192,-35.44285296696872,13.05173925752704
1700081302,0.9709103322426095,-0.21379296726809377,0.06378421099898063,0.014966198335851376,-0.036499197982331415,0.0022907446432425577,-36.17363344051447,-35.47208418591055,13.110201695410698
1700081302,0.9690809571661569,-0.214646675637105,0.06524771106014271,0.014966198335851376,-0.036499197982331415,0.0022907446432425577,-36.831335866705636,-35.96901490792166,14.14790996784566
1700081302,0.9690809571661569,-0.214646675637105,0.06524771106014271,0.017715091907742442,-0.0438295808407076,0.0015271630954950383,-36.80210464776381,-35.910552470038,13.431745103770828
1700081302,0.970544457227319,-0.21342709225280324,0.06549162773700305,0.017715091907742442,-0.0438295808407076,0.0015271630954950383,-36.597486115171,-35.910552470038,14.440222157263957
1700081302,0.970544457227319,-0.21440275896024466,0.06378421099898063,0.01557706357404939,-0.050549098460885775,-0.0004581489286485115,-36.597486115171,-36.04209295527623,13.70944168371821
1700081302,0.9694468321814476,-0.21440275896024466,0.06378421099898063,0.01557706357404939,-0.050549098460885775,-0.0004581489286485115,-36.56825489622918,-35.73516515638702,13.826366559485532
1700081302,0.9706664155657491,-0.21537842566768603,0.061588960907237505,0.011301006906663283,-0.056505034533316414,-0.004123340357836604,-36.714410990938326,-35.63285589009062,14.264834843612977
1700081302,0.9706664155657491,-0.21537842566768603,0.061588960907237505,0.011301006906663283,-0.056505034533316414,-0.004123340357836604,-36.56825489622918,-35.93978368897983,13.97252265419468
1700081302,0.9721299156269112,-0.21452471729867478,0.06036937752293577,0.009315694882519734,-0.059864793343405505,-0.008552113334772215,-36.524408067816424,-35.98363051739257,14.498684595147617
1700081302,0.9721299156269112,-0.21452471729867478,0.06036937752293577,0.009315694882519734,-0.059864793343405505,-0.008552113334772215,-36.61210172464192,-35.8082432037416,14.717918737211342
1700081302,0.9737153740265035,-0.2136710089296636,0.057076502385321096,0.010995574287564275,-0.060781091200702526,-0.011759155835311794,-36.55363928675826,-35.79362759427068,13.826366559485532
1700081302,0.9737153740265035,-0.2136710089296636,0.057076502385321096,0.010995574287564275,-0.060781091200702526,-0.011759155835311794,-37.079801227711194,-35.86670564162526,14.20637240572932
1700081302,0.973349499011213,-0.21159771717635062,0.05427146060142711,0.014966198335851376,-0.059406644414756994,-0.012370021073509811,-37.109032446653025,-35.83747442268342,13.154048523823445
1700081302,0.973349499011213,-0.21159771717635062,0.05427146060142711,0.014966198335851376,-0.059406644414756994,-0.012370021073509811,-36.860567085647475,-36.24671148786904,14.279450453083895
1700081302,0.9753008324260959,-0.21013421711518857,0.05110054380224261,0.018173240836390957,-0.05543602036646989,-0.012522737383059314,-36.90441391406022,-35.852090032154344,14.440222157263957
1700081302,0.9753008324260959,-0.21013421711518857,0.05110054380224261,0.018173240836390957,-0.05543602036646989,-0.012522737383059314,-36.87518269511838,-36.04209295527623,13.037123648056124
1700081302,0.9765204158103974,-0.2067193836391437,0.05085662712538226,0.018631389765039467,-0.049480084294039245,-0.01069014166846527,-36.77287342882198,-35.63285589009062,14.089447529962
1700081302,0.9765204158103974,-0.2067193836391437,0.05085662712538226,0.018631389765039467,-0.049480084294039245,-0.01069014166846527,-36.7874890382929,-35.69131832797427,14.220988015200234
1700081302,0.9750569157492354,-0.2072072169928644,0.05134446047910295,0.014813482026301871,-0.04245513405476207,-0.0079412480965742,-36.64133294358375,-35.603624671148786,14.17714118678749
1700081302,0.9750569157492354,-0.2072072169928644,0.05134446047910295,0.014813482026301871,-0.03634648167278191,-0.0039706240482871,-36.860567085647475,-35.73516515638702,14.250219234142063
1700081302,0.9753008324260959,-0.20745113366972476,0.05268600220183486,0.0158824961931484,-0.03634648167278191,-0.0039706240482871,-36.84595147617656,-35.73516515638702,13.694826074247295
1700081302,0.9753008324260959,-0.20745113366972476,0.05268600220183486,0.018936822384138473,-0.030848694528999777,0.0015271630954950383,-36.582870505700086,-36.11517100263081,14.32329728149664
1700081302,0.974081249041794,-0.20745113366972476,0.05512516897043832,0.018936822384138473,-0.030848694528999777,0.0015271630954950383,-37.40134463607133,-35.676702718503364,13.94329143525285
1700081302,0.974081249041794,-0.20745113366972476,0.05512516897043832,0.019700403931885994,-0.027641652028460195,0.00717766654882668,-36.53902367728734,-35.79362759427068,14.074831920491086
1700081302,0.9742032073802243,-0.208304842038736,0.05756433573904179,0.019700403931885994,-0.027641652028460195,0.00717766654882668,-36.56825489622918,-35.5159310143233,13.25635779011985
1700081302,0.9720079572884811,-0.2108659671457696,0.058540002446483184,0.016646077740895916,-0.02672535417116317,0.01038470904936626,-37.138263665594856,-35.70593393744519,13.753288512130958
1700081302,0.9720079572884811,-0.2108659671457696,0.058540002446483184,0.016646077740895916,-0.02672535417116317,0.01038470904936626,-37.00672318035662,-35.63285589009062,13.753288512130958
1700081302,0.97115424891947,-0.21525646732925585,0.06085721087665647,0.014966198335851376,-0.027336219409361186,0.010842857978014772,-37.54750073078048,-36.11517100263081,14.133294358374746
1700081302,0.97115424891947,-0.21525646732925585,0.06085721087665647,0.014966198335851376,-0.027336219409361186,0.010842857978014772,-37.25518854136218,-35.83747442268342,14.3817597193803
1700081302,0.9706664155657491,-0.21598821735983686,0.06415008601427115,0.0160352125026979,-0.03023782929080176,0.009468411192069237,-37.29903536977492,-36.159017831043556,14.118678748903829
1700081302,0.9706664155657491,-0.21598821735983686,0.06415008601427115,0.0160352125026979,-0.03023782929080176,0.009468411192069237,-37.32826658871675,-36.17363344051447,14.074831920491086
1700081302,0.9695687905198777,-0.21611017569826707,0.06512575272171253,0.0160352125026979,-0.035430183815484885,0.005955936072430649,-37.06518561824028,-36.36363636363637,13.70944168371821
1700081302,0.9695687905198777,-0.21611017569826707,0.06512575272171253,0.0160352125026979,-0.035430183815484885,0.005955936072430649,-36.87518269511838,-36.04209295527623,13.460976322712655
1700081302,0.9695687905198777,-0.21635409237512743,0.06415008601427115,0.01557706357404939,-0.04169155250701455,0.0013744467859455344,-36.81672025723473,-36.18824904998538,14.191756796258403
1700081302,0.9695687905198777,-0.21635409237512743,0.06415008601427115,0.01557706357404939,-0.04169155250701455,0.0013744467859455344,-37.12364805612394,-35.88132125109617,13.534054370067231
1700081302,0.9698127071967381,-0.21598821735983686,0.06317441930682977,0.013591751549905842,-0.046883907031697675,-0.0035124751196385882,-36.91902952353113,-35.38439052908507,14.00175387313651
1700081302,0.9698127071967381,-0.21598821735983686,0.06317441930682977,0.013591751549905842,-0.046883907031697675,-0.0035124751196385882,-36.87518269511838,-35.70593393744519,14.045600701549255
1700081302,0.9710322905810397,-0.21586625902140671,0.06122308589194699,0.011453723216212788,-0.05146539631818279,-0.00839939702522271,-36.77287342882198,-36.23209587839813,14.060216311020168
1700081302,0.9710322905810397,-0.21586625902140671,0.06122308589194699,0.011453723216212788,-0.05146539631818279,-0.00839939702522271,-36.99210757088571,-35.79362759427068,14.060216311020168
1700081302,0.9713981655963302,-0.21537842566768603,0.05963762749235474,0.011453723216212788,-0.05390885727097486,-0.011606439525762293,-36.81672025723473,-36.05670856474715,14.133294358374746
1700081302,0.9713981655963302,-0.21537842566768603,0.05963762749235474,0.011453723216212788,-0.05390885727097486,-0.011606439525762293,-37.06518561824028,-35.98363051739257,13.70944168371821
1700081302,0.9718859989500509,-0.21452471729867478,0.057442377400611616,0.014202616788103856,-0.05543602036646989,-0.014508049407202865,-36.524408067816424,-36.02747734580532,13.680210464776382
1700081302,0.9718859989500509,-0.21452471729867478,0.057442377400611616,0.014202616788103856,-0.05543602036646989,-0.014508049407202865,-36.69979538146741,-36.24671148786904,14.279450453083895
1700081302,0.9732275406727828,-0.21135380049949026,0.05585691900101936,0.017409659288643436,-0.05451972250917286,-0.015424347264499889,-36.07132417421807,-36.129786612101725,13.94329143525285
1700081302,0.9732275406727828,-0.21135380049949026,0.05585691900101936,0.016187928812247405,-0.05100724738953428,-0.01511891464540088,-36.407483192049106,-36.24671148786904,14.074831920491086
1700081302,0.9749349574108054,-0.20976834209989806,0.05451537727828745,0.016187928812247405,-0.05100724738953428,-0.01511891464540088,-36.67056416252558,-35.64747149956153,14.045600701549255
1700081302,0.9749349574108054,-0.20976834209989806,0.05451537727828745,0.014508049407202865,-0.04810563750809371,-0.013286318930806833,-36.8897983045893,-35.93978368897983,14.220988015200234
1700081302,0.9738373323649337,-0.2114757588379205,0.05475929395514781,0.014508049407202865,-0.04810563750809371,-0.013286318930806833,-36.81672025723473,-36.08593978368898,13.680210464776382
1700081303,0.9738373323649337,-0.21074400880733943,0.055734960662589185,0.016493361431346415,-0.044898595007554123,-0.010231992739816757,-36.729026600409235,-35.99824612686349,14.294066062554808
1700081303,0.9728616656574923,-0.21074400880733943,0.055734960662589185,0.016493361431346415,-0.044898595007554123,-0.010231992739816757,-36.582870505700086,-35.38439052908507,14.557147033031278
1700081303,0.9731055823343526,-0.21037813379204892,0.05756433573904179,0.020463985479633514,-0.04352414822160859,-0.007483099167925688,-40.79216603332359,-35.48669979538147,13.56328558900906
1700081303,0.9731055823343526,-0.21037813379204892,0.05756433573904179,0.020463985479633514,-0.04352414822160859,-0.007483099167925688,-36.84595147617656,-36.26132709733996,13.592516807950892
1700081303,0.9726177489806319,-0.20976834209989806,0.05975958583078492,0.021685715956029545,-0.04337143191205909,-0.0039706240482871,-36.55363928675826,-35.676702718503364,13.124817304881613
1700081303,0.9726177489806319,-0.20976834209989806,0.05975958583078492,0.021685715956029545,-0.04337143191205909,-0.0039706240482871,-36.7874890382929,-35.82285881321251,13.504823151125404
1700081303,0.9717640406116207,-0.20928050874617737,0.06024741918450561,0.01756237559819294,-0.04474587869800463,-0.0007635815477475192,-37.02133878982753,-35.66208710903245,12.598655363928676
1700081303,0.9717640406116207,-0.20928050874617737,0.06024741918450561,0.01756237559819294,-0.04474587869800463,-0.0007635815477475192,-37.386729026600406,-35.852090032154344,13.08097047646887
1700081303,0.9704224988888888,-0.2123294672069317,0.06061329419979613,0.012828170002158322,-0.04657847441259867,0.001069014166846527,-36.524408067816424,-35.57439345220696,13.490207541654486
1700081303,0.9704224988888888,-0.2123294672069317,0.06061329419979613,0.012828170002158322,-0.04657847441259867,0.001069014166846527,-36.7874890382929,-35.603624671148786,13.241742180648933
1700081303,0.97115424891947,-0.21342709225280324,0.06000350250764525,0.013591751549905842,-0.04856378643674222,0.0012217304763960308,-36.64133294358375,-35.64747149956153,13.870213387898275
1700081303,0.97115424891947,-0.21342709225280324,0.06000350250764525,0.013591751549905842,-0.04856378643674222,0.0012217304763960308,-36.7874890382929,-35.93978368897983,13.475591932183573
1700081303,0.9728616656574923,-0.21293925889908258,0.05963762749235474,0.016187928812247405,-0.05085453107998478,0.0006108652381980154,-36.2028646594563,-35.82285881321251,13.56328558900906
1700081303,0.9728616656574923,-0.21293925889908258,0.05963762749235474,0.016187928812247405,-0.05085453107998478,0.0006108652381980154,-36.46594562993277,-36.04209295527623,13.314820228003507
1700081303,0.9726177489806319,-0.21293925889908258,0.05817412743119265,0.016493361431346415,-0.05268712679457882,-0.0007635815477475192,-36.69979538146741,-35.73516515638702,13.753288512130958
1700081303,0.9726177489806319,-0.21293925889908258,0.05817412743119265,0.016493361431346415,-0.05268712679457882,-0.0007635815477475192,-36.4951768488746,-36.05670856474715,14.074831920491086
1700081303,0.9724957906422018,-0.21196359219164115,0.056222794016309884,0.014813482026301871,-0.05131268000863329,-0.002138028333693054,-36.8897983045893,-35.98363051739257,13.855597778427361
1700081303,0.9724957906422018,-0.21196359219164115,0.056222794016309884,0.014813482026301871,-0.05131268000863329,-0.002138028333693054,-36.26132709733996,-36.159017831043556,14.191756796258403
1700081303,0.973959290703364,-0.21098792548419978,0.055734960662589185,0.012828170002158322,-0.04932736798448974,-0.0033597588100890844,-36.84595147617656,-36.34902075416545,14.32329728149664
1700081303,0.973959290703364,-0.21098792548419978,0.055734960662589185,0.012828170002158322,-0.04932736798448974,-0.0033597588100890844,-36.68517977199649,-36.02747734580532,14.03098509207834
1700081303,0.9742032073802243,-0.21269534222222222,0.05439341893985729,0.012217304763960306,-0.04657847441259867,-0.002901609881440573,-36.524408067816424,-35.89593686056708,12.87635194387606
1700081303,0.9742032073802243,-0.21269534222222222,0.05439341893985729,0.01435533309765336,-0.0438295808407076,-0.002596177262341565,-36.56825489622918,-35.779011984799766,12.920198772288805
1700081303,0.9745690823955148,-0.21062205046890925,0.05585691900101936,0.01435533309765336,-0.0438295808407076,-0.002596177262341565,-36.48056123940368,-35.5159310143233,13.212510961707103
1700081303,0.9745690823955148,-0.21062205046890925,0.0552471273088685,0.01557706357404939,-0.040317105721069016,-0.0007635815477475192,-36.42209880152002,-35.70593393744519,13.05173925752704
1700081303,0.9738373323649337,-0.2098903004383282,0.0552471273088685,0.01557706357404939,-0.040317105721069016,-0.0007635815477475192,-36.39286758257819,-35.45746857643964,13.607132417421807
1700081303,0.973471457349643,-0.21184163385321098,0.057198460723751274,0.015729779883598895,-0.038026361077826455,0.0007635815477475192,-36.48056123940368,-35.98363051739257,13.592516807950892
1700081303,0.973471457349643,-0.21184163385321098,0.057198460723751274,0.015729779883598895,-0.038026361077826455,0.0007635815477475192,-36.509792458345515,-35.5159310143233,13.826366559485532
1700081303,0.9731055823343526,-0.21269534222222222,0.0589058774617737,0.0160352125026979,-0.037262779530078935,0.001069014166846527,-37.19672610347852,-35.45746857643964,13.154048523823445
1700081303,0.9731055823343526,-0.21269534222222222,0.0589058774617737,0.0160352125026979,-0.037262779530078935,0.001069014166846527,-36.29055831628179,-35.603624671148786,13.957907044723767
1700081303,0.9717640406116207,-0.2141588422833843,0.061101127553516814,0.01511891464540088,-0.038331793696925465,0.0007635815477475192,-36.29055831628179,-35.69131832797427,14.32329728149664
1700081303,0.9717640406116207,-0.2141588422833843,0.061101127553516814,0.01511891464540088,-0.038331793696925465,0.0007635815477475192,-35.99824612686349,-35.20900321543408,13.987138263665594
1700081303,0.970544457227319,-0.21562234234454636,0.06036937752293577,0.015271630954950384,-0.040317105721069016,-0.0012217304763960308,-36.714410990938326,-35.63285589009062,14.191756796258403
1700081303,0.970544457227319,-0.21562234234454636,0.06036937752293577,0.015271630954950384,-0.040317105721069016,-0.0012217304763960308,-36.8897983045893,-35.954399298450745,13.154048523823445
1700081303,0.9704224988888888,-0.21586625902140671,0.06061329419979613,0.01634064512179691,-0.04276056667386108,-0.003817907738737596,-37.29903536977492,-35.76439637532885,12.861736334405144
1700081303,0.9704224988888888,-0.21586625902140671,0.06061329419979613,0.01634064512179691,-0.04276056667386108,-0.003817907738737596,-36.84595147617656,-35.910552470038,13.534054370067231
1700081303,0.9715201239347604,-0.21513450899082567,0.062320710937818546,0.015424347264499889,-0.045662176555301644,-0.007788531787024695,-36.159017831043556,-35.64747149956153,13.724057293189126
1700081303,0.9715201239347604,-0.21513450899082567,0.062320710937818546,0.015424347264499889,-0.045662176555301644,-0.007788531787024695,-36.4951768488746,-35.88132125109617,14.074831920491086
1700081303,0.9700566238735983,-0.21476863397553514,0.062442669276248725,0.015729779883598895,-0.049632800603588746,-0.00992656012071775,-36.729026600409235,-35.72054954691611,13.05173925752704
1700081303,0.9700566238735983,-0.21476863397553514,0.062442669276248725,0.015729779883598895,-0.049632800603588746,-0.00992656012071775,-36.62671733411283,-35.35515931014323,13.110201695410698
1700081303,0.97115424891947,-0.2136710089296636,0.05988154416921509,0.01756237559819294,-0.05283984310412832,-0.010842857978014772,-37.00672318035662,-35.69131832797427,13.095586085939784
1700081303,0.97115424891947,-0.2136710089296636,0.05988154416921509,0.01756237559819294,-0.05283984310412832,-0.010842857978014772,-36.7874890382929,-35.79362759427068,13.373282665887167
1700081303,0.9723738323037716,-0.2114757588379205,0.05780825241590213,0.018784106074588972,-0.0555887366760194,-0.012217304763960306,-36.655948553054664,-35.47208418591055,13.665594855305466
1700081303,0.9723738323037716,-0.2114757588379205,0.05780825241590213,0.018784106074588972,-0.0555887366760194,-0.012217304763960306,-36.4951768488746,-35.82285881321251,13.431745103770828
1700081303,0.9729836239959225,-0.21098792548419978,0.05585691900101936,0.016646077740895916,-0.0557414529855689,-0.01313360262125733,-36.48056123940368,-35.603624671148786,13.7971353405437
1700081303,0.9729836239959225,-0.21098792548419978,0.05585691900101936,0.016646077740895916,-0.0557414529855689,-0.01313360262125733,-36.407483192049106,-35.86670564162526,14.235603624671148
1700081303,0.9749349574108054,-0.2108659671457696,0.056100835677879705,0.013286318930806833,-0.05436700619962337,-0.012522737383059314,-36.02747734580532,-36.24671148786904,14.17714118678749
1700081303,0.9749349574108054,-0.2108659671457696,0.056100835677879705,0.013286318930806833,-0.05436700619962337,-0.010995574287564275,-36.129786612101725,-36.01286173633441,14.235603624671148
1700081303,0.974081249041794,-0.21098792548419978,0.05768629407747196,0.013439035240356337,-0.05238169417547982,-0.010995574287564275,-36.597486115171,-35.58900906167787,14.045600701549255
1700081303,0.974081249041794,-0.21098792548419978,0.05768629407747196,0.017409659288643436,-0.05207626155638081,-0.009010262263420726,-36.655948553054664,-35.36977491961415,14.074831920491086
1700081303,0.9717640406116207,-0.21342709225280324,0.05646671069317023,0.017409659288643436,-0.05207626155638081,-0.009010262263420726,-36.933645133002045,-35.16515638702134,15.27331189710611
1700081303,0.9717640406116207,-0.21342709225280324,0.05646671069317023,0.023976460599272102,-0.05238169417547982,-0.008552113334772215,-36.80210464776381,-35.35515931014323,14.133294358374746
1700081303,0.9720079572884811,-0.21245142554536187,0.05732041906218144,0.023976460599272102,-0.05238169417547982,-0.008552113334772215,-37.26980415083309,-35.852090032154344,13.548669979538147
1700081303,0.9720079572884811,-0.2114757588379205,0.0565886690316004,0.025350907385217634,-0.052228977865930316,-0.010079276430267254,-36.378251973107275,-35.70593393744519,13.70944168371821
1700081303,0.9722518739653414,-0.2114757588379205,0.0565886690316004,0.025350907385217634,-0.052228977865930316,-0.010079276430267254,-36.378251973107275,-35.47208418591055,13.7971353405437
1700081303,0.973349499011213,-0.208304842038736,0.05500321063200815,0.020311269170084013,-0.05146539631818279,-0.010995574287564275,-37.138263665594856,-35.88132125109617,13.56328558900906
1700081303,0.973349499011213,-0.208304842038736,0.05500321063200815,0.020311269170084013,-0.05146539631818279,-0.010995574287564275,-36.45133002046185,-35.73516515638702,14.308681672025724
1700081303,0.9728616656574923,-0.21013421711518857,0.0565886690316004,0.013286318930806833,-0.05009094953223726,-0.011301006906663283,-36.61210172464192,-35.70593393744519,13.300204618532593
1700081303,0.9728616656574923,-0.21013421711518857,0.0565886690316004,0.013286318930806833,-0.05009094953223726,-0.011301006906663283,-36.831335866705636,-35.96901490792166,13.358667056416252
1700081303,0.9731055823343526,-0.21257338388379204,0.05646671069317023,0.010995574287564275,-0.04902193536539073,-0.01069014166846527,-36.84595147617656,-35.25285004384683,13.826366559485532
1700081303,0.9731055823343526,-0.21257338388379204,0.05646671069317023,0.010995574287564275,-0.04902193536539073,-0.01069014166846527,-36.67056416252558,-35.79362759427068,13.899444606840106
1700081303,0.9735934156880733,-0.2130612172375127,0.056710627370030575,0.01557706357404939,-0.049174651674940235,-0.010537425358915765,-37.09441683718211,-36.02747734580532,14.425606547793043
1700081303,0.9735934156880733,-0.2130612172375127,0.056710627370030575,0.01557706357404939,-0.049174651674940235,-0.010537425358915765,-37.211341712949434,-35.63285589009062,14.133294358374746
1700081303,0.9731055823343526,-0.21074400880733943,0.05683258570846075,0.020158552860534508,-0.048869219055841226,-0.010842857978014772,-36.61210172464192,-35.76439637532885,15.258696287635196
1700081303,0.9731055823343526,-0.21074400880733943,0.05683258570846075,0.020158552860534508,-0.048869219055841226,-0.010842857978014772,-36.29055831628179,-35.13592516807951,14.557147033031278
1700081303,0.9720079572884811,-0.21037813379204892,0.057198460723751274,0.018936822384138473,-0.048411070127192715,-0.01114829059711378,-36.02747734580532,-35.69131832797427,14.513300204618531
1700081303,0.9720079572884811,-0.21037813379204892,0.057198460723751274,0.018936822384138473,-0.048411070127192715,-0.01114829059711378,-36.34902075416545,-35.48669979538147,13.811750950014615
1700081303,0.9728616656574923,-0.20952442542303773,0.05439341893985729,0.01634064512179691,-0.04810563750809371,-0.012064588454410803,-36.597486115171,-35.58900906167787,14.454837766734874
1700081303,0.9728616656574923,-0.20952442542303773,0.05439341893985729,0.01634064512179691,-0.04810563750809371,-0.012064588454410803,-36.758257819351066,-35.8082432037416,13.987138263665594
1700081303,0.974812999072375,-0.2085487587155963,0.05268600220183486,0.012370021073509811,-0.04520402762665313,-0.012217304763960306,-37.40134463607133,-35.79362759427068,14.410990938322128
1700081303,0.974812999072375,-0.2085487587155963,0.05268600220183486,0.012370021073509811,-0.04520402762665313,-0.012217304763960306,-37.09441683718211,-35.86670564162526,13.475591932183573
1700081303,0.9759106241182466,-0.20903659206931702,0.051832293832823645,0.010079276430267254,-0.04123340357836603,-0.012217304763960306,-36.524408067816424,-35.83747442268342,14.337912890967552
1700081303,0.9759106241182466,-0.20903659206931702,0.051832293832823645,0.012828170002158322,-0.037110063220529434,-0.00992656012071775,-36.91902952353113,-35.76439637532885,14.659456299327683
1700081303,0.9753008324260959,-0.20696330031600405,0.05097858546381243,0.012828170002158322,-0.037110063220529434,-0.00992656012071775,-36.4951768488746,-35.779011984799766,14.542531423560362
1700081303,0.9753008324260959,-0.20696330031600405,0.05097858546381243,0.017256942979093935,-0.0319177086958463,-0.00519235452468313,-36.23209587839813,-35.545162233265124,14.294066062554808
1700081303,0.9754227907645259,-0.20598763360856268,0.052564043863404686,0.017256942979093935,-0.0319177086958463,-0.00519235452468313,-36.714410990938326,-35.545162233265124,13.870213387898275
1700081303,0.9754227907645259,-0.20598763360856268,0.052564043863404686,0.02076941809873252,-0.027336219409361186,0.0007635815477475192,-36.97749196141479,-35.36977491961415,14.396375328851214
1700081303,0.9753008324260959,-0.20476805022426095,0.05232012718654434,0.02076941809873252,-0.027336219409361186,0.0007635815477475192,-36.7874890382929,-35.5159310143233,14.14790996784566
1700081303,0.974691040733945,-0.2046460918858308,0.05451537727828745,0.018784106074588972,-0.022449297503777062,0.006261368691529657,-37.09441683718211,-35.83747442268342,14.337912890967552
1700081303,0.974691040733945,-0.2046460918858308,0.05451537727828745,0.018784106074588972,-0.022449297503777062,0.006261368691529657,-36.597486115171,-35.64747149956153,14.849459222449577
1700081303,0.9731055823343526,-0.20745113366972476,0.057198460723751274,0.013286318930806833,-0.019700403931885994,0.01114829059711378,-36.378251973107275,-35.325928091201405,14.279450453083895
1700081303,0.9731055823343526,-0.20745113366972476,0.057198460723751274,0.013286318930806833,-0.019700403931885994,0.01114829059711378,-36.582870505700086,-35.57439345220696,14.191756796258403
1700081303,0.9716420822731905,-0.21184163385321098,0.05963762749235474,0.01038470904936626,-0.018784106074588972,0.01389718416900485,-36.714410990938326,-35.79362759427068,14.32329728149664
1700081303,0.9716420822731905,-0.21184163385321098,0.05963762749235474,0.01038470904936626,-0.018784106074588972,0.01389718416900485,-36.99210757088571,-35.88132125109617,14.264834843612977
1700081303,0.9707883739041795,-0.2136710089296636,0.06305246096839959,0.012675453692608817,-0.02107485071783153,0.014813482026301871,-36.90441391406022,-35.70593393744519,14.440222157263957
1700081303,0.9707883739041795,-0.2136710089296636,0.06305246096839959,0.012675453692608817,-0.02107485071783153,0.014813482026301871,-36.87518269511838,-36.01286173633441,13.987138263665594
1700081303,0.9704224988888888,-0.21403688394495413,0.06439400269113149,0.01634064512179691,-0.02550362369476714,0.013591751549905842,-36.99210757088571,-35.35515931014323,13.870213387898275
1700081303,0.9704224988888888,-0.21403688394495413,0.06439400269113149,0.01634064512179691,-0.02550362369476714,0.013591751549905842,-36.67056416252558,-35.501315404852384,14.074831920491086
1700081303,0.9701785822120286,-0.21330513391437306,0.06488183604485219,0.016493361431346415,-0.03145955976719779,0.01114829059711378,-36.524408067816424,-35.31131248173049,13.97252265419468
1700081303,0.9701785822120286,-0.21330513391437306,0.06488183604485219,0.016493361431346415,-0.03145955976719779,0.01114829059711378,-36.77287342882198,-35.25285004384683,14.527915814089448
1700081303,0.969934665535168,-0.21440275896024466,0.06561358607543323,0.012980886311707827,-0.03787364476827695,0.008246680715673207,-36.53902367728734,-34.81438175971938,14.250219234142063
1700081303,0.969934665535168,-0.21440275896024466,0.06561358607543323,0.012980886311707827,-0.03787364476827695,0.008246680715673207,-37.00672318035662,-35.5159310143233,13.884828997369189
1700081303,0.9693248738430171,-0.21611017569826707,0.06475987770642201,0.010842857978014772,-0.04474587869800463,0.005345070834232635,-37.37211341712949,-35.399006138555976,14.3817597193803
1700081303,0.9693248738430171,-0.21611017569826707,0.06475987770642201,0.010842857978014772,-0.050396382151336266,0.00198531202414355,-37.211341712949434,-35.26746565331774,13.753288512130958
1700081303,0.9703005405504586,-0.21684192572884808,0.06415008601427115,0.010842857978014772,-0.050396382151336266,0.00198531202414355,-36.99210757088571,-35.399006138555976,14.586378251973105
1700081303,0.9703005405504586,-0.21684192572884808,0.06415008601427115,0.014202616788103856,-0.0555887366760194,-0.001832595714594046,-36.831335866705636,-35.45746857643964,14.469453376205788
1700081303,0.9704224988888888,-0.21647605071355755,0.06329637764525993,0.014202616788103856,-0.0555887366760194,-0.001832595714594046,-36.39286758257819,-34.84361297866121,14.250219234142063
1700081303,0.9704224988888888,-0.21647605071355755,0.06085721087665647,0.018631389765039467,-0.059406644414756994,-0.005650503453331642,-37.05057000876937,-35.25285004384683,13.811750950014615
1700081304,0.9716420822731905,-0.2150125506523955,0.06085721087665647,0.018631389765039467,-0.059406644414756994,-0.005650503453331642,-36.7874890382929,-35.23823443437591,14.294066062554808
1700081304,0.9729836239959225,-0.21293925889908258,0.0589058774617737,0.02076941809873252,-0.061697389057999555,-0.008093964406123703,-36.378251973107275,-35.48669979538147,14.32329728149664
1700081304,0.9729836239959225,-0.21293925889908258,0.0589058774617737,0.02076941809873252,-0.061697389057999555,-0.008093964406123703,-36.87518269511838,-35.34054370067231,13.811750950014615
1700081304,0.973471457349643,-0.2130612172375127,0.05732041906218144,0.017715091907742442,-0.060781091200702526,-0.010842857978014772,-37.00672318035662,-35.16515638702134,13.753288512130958
1700081304,0.973471457349643,-0.2130612172375127,0.05732041906218144,0.017715091907742442,-0.060781091200702526,-0.010842857978014772,-37.079801227711194,-35.06284712072493,14.250219234142063
1700081304,0.9744471240570844,-0.2117196755147808,0.055369085647298664,0.014813482026301871,-0.05818491393836096,-0.013286318930806833,-36.91902952353113,-35.28208126278866,13.490207541654486
1700081304,0.9744471240570844,-0.2117196755147808,0.055369085647298664,0.014813482026301871,-0.05818491393836096,-0.013286318930806833,-36.80210464776381,-35.13592516807951,13.70944168371821
1700081304,0.974081249041794,-0.21245142554536187,0.05463733561671763,0.014813482026301871,-0.05451972250917286,-0.014508049407202865,-36.831335866705636,-35.25285004384683,14.703303127740428
1700081304,0.974081249041794,-0.21245142554536187,0.05463733561671763,0.014813482026301871,-0.05451972250917286,-0.014508049407202865,-36.68517977199649,-35.03361590178311,13.928675825781935
1700081304,0.974081249041794,-0.20976834209989806,0.0534177522324159,0.017256942979093935,-0.050243665841786765,-0.014813482026301871,-36.45133002046185,-34.945922244957615,13.73867290266004
1700081304,0.974081249041794,-0.20976834209989806,0.0534177522324159,0.017256942979093935,-0.050243665841786765,-0.014813482026301871,-36.48056123940368,-35.399006138555976,13.475591932183573
1700081304,0.973959290703364,-0.20867071705402648,0.053539710570846076,0.01832595714594046,-0.04657847441259867,-0.01389718416900485,-36.80210464776381,-35.36977491961415,13.504823151125404
1700081304,0.973959290703364,-0.20867071705402648,0.053539710570846076,0.01832595714594046,-0.04657847441259867,-0.01389718416900485,-37.03595439929845,-35.06284712072493,14.162525577316574
1700081304,0.9743251657186545,-0.20867071705402648,0.05427146060142711,0.017256942979093935,-0.04153883619746504,-0.011911872144861299,-37.138263665594856,-35.41362174802689,13.460976322712655
1700081304,0.9743251657186545,-0.20867071705402648,0.05427146060142711,0.017256942979093935,-0.04153883619746504,-0.011911872144861299,-37.02133878982753,-35.296696872259574,13.358667056416252
1700081304,0.974081249041794,-0.2085487587155963,0.05585691900101936,0.016187928812247405,-0.037262779530078935,-0.009621127501618741,-36.99210757088571,-35.73516515638702,13.110201695410698
1700081304,0.974081249041794,-0.2085487587155963,0.05585691900101936,0.016187928812247405,-0.037262779530078935,-0.009621127501618741,-36.53902367728734,-35.603624671148786,13.811750950014615
1700081304,0.9735934156880733,-0.20952442542303773,0.05829608576962283,0.01511891464540088,-0.03466660226773737,-0.006872233929727673,-36.962876351943876,-35.92516807950892,13.475591932183573
1700081304,0.9735934156880733,-0.20952442542303773,0.05829608576962283,0.01511891464540088,-0.03466660226773737,-0.006872233929727673,-36.62671733411283,-35.76439637532885,13.548669979538147
1700081304,0.9731055823343526,-0.20976834209989806,0.05951566915392456,0.015424347264499889,-0.03420845333908886,-0.0039706240482871,-36.7874890382929,-35.28208126278866,13.314820228003507
1700081304,0.9731055823343526,-0.20976834209989806,0.05951566915392456,0.015424347264499889,-0.03420845333908886,-0.0039706240482871,-36.8897983045893,-35.69131832797427,13.519438760596318
1700081304,0.9718859989500509,-0.21135380049949026,0.06073525253822629,0.01634064512179691,-0.035735616434583894,-0.0012217304763960308,-36.933645133002045,-35.72054954691611,13.519438760596318
1700081304,0.9718859989500509,-0.21135380049949026,0.06073525253822629,0.016187928812247405,-0.037262779530078935,0.0013744467859455344,-36.84595147617656,-35.72054954691611,14.14790996784566
1700081304,0.9720079572884811,-0.21050009213047907,0.06097916921508665,0.016187928812247405,-0.037262779530078935,0.0013744467859455344,-37.138263665594856,-35.48669979538147,13.577901198479978
1700081304,0.9720079572884811,-0.21123184216106014,0.06146700256880734,0.013744467859455345,-0.03955352417332149,0.002901609881440573,-37.079801227711194,-35.749780765857935,14.060216311020168
1700081304,0.9716420822731905,-0.21123184216106014,0.06146700256880734,0.013744467859455345,-0.03955352417332149,0.002901609881440573,-37.12364805612394,-35.603624671148786,13.870213387898275
1700081304,0.9717640406116207,-0.21281730056065234,0.06183287758409786,0.012064588454410803,-0.04230241774521256,0.002901609881440573,-37.29903536977492,-35.83747442268342,15.15638702133879
1700081304,0.9717640406116207,-0.21281730056065234,0.06183287758409786,0.012064588454410803,-0.04230241774521256,0.002901609881440573,-36.67056416252558,-35.603624671148786,13.987138263665594
1700081304,0.9709103322426095,-0.2141588422833843,0.061588960907237505,0.012828170002158322,-0.04474587869800463,0.0024434609527920616,-36.43671441099094,-35.82285881321251,13.329435837474424
1700081304,0.9709103322426095,-0.2141588422833843,0.061588960907237505,0.012828170002158322,-0.04474587869800463,0.0024434609527920616,-36.55363928675826,-35.501315404852384,13.183279742765272
1700081304,0.9715201239347604,-0.21452471729867478,0.061101127553516814,0.014966198335851376,-0.047494772269895694,-0.00015271630954950385,-36.582870505700086,-35.6182402806197,13.212510961707103
1700081304,0.9715201239347604,-0.21452471729867478,0.061101127553516814,0.014966198335851376,-0.047494772269895694,-0.00015271630954950385,-36.74364220988015,-36.08593978368898,12.67173341128325
1700081304,0.9716420822731905,-0.2135490505912334,0.06012546084607543,0.0160352125026979,-0.049174651674940235,-0.002748893571891069,-36.87518269511838,-36.04209295527623,13.592516807950892
1700081304,0.9716420822731905,-0.2135490505912334,0.06012546084607543,0.0160352125026979,-0.049174651674940235,-0.002748893571891069,-36.758257819351066,-35.83747442268342,13.724057293189126
1700081304,0.9720079572884811,-0.21391492560652395,0.05914979413863404,0.01511891464540088,-0.050396382151336266,-0.00519235452468313,-36.45133002046185,-35.66208710903245,13.548669979538147
1700081304,0.9720079572884811,-0.21391492560652395,0.05914979413863404,0.01511891464540088,-0.050396382151336266,-0.00519235452468313,-36.48056123940368,-35.64747149956153,14.250219234142063
1700081304,0.9727397073190621,-0.21342709225280324,0.05878391912334352,0.014508049407202865,-0.05115996369908379,-0.0079412480965742,-36.4951768488746,-35.34054370067231,13.592516807950892
1700081304,0.9727397073190621,-0.21342709225280324,0.05878391912334352,0.014508049407202865,-0.05115996369908379,-0.0079412480965742,-36.129786612101725,-35.99824612686349,13.7971353405437
1700081304,0.9723738323037716,-0.21293925889908258,0.05793021075433231,0.016493361431346415,-0.05131268000863329,-0.00992656012071775,-36.4951768488746,-35.57439345220696,13.665594855305466
1700081304,0.9723738323037716,-0.21293925889908258,0.05793021075433231,0.016493361431346415,-0.05131268000863329,-0.00992656012071775,-36.87518269511838,-35.09207833966676,13.02250803858521
1700081304,0.9728616656574923,-0.21135380049949026,0.057442377400611616,0.018173240836390957,-0.05115996369908379,-0.01114829059711378,-36.90441391406022,-35.09207833966676,13.519438760596318
1700081304,0.9728616656574923,-0.21135380049949026,0.057442377400611616,0.018173240836390957,-0.05115996369908379,-0.01114829059711378,-37.19672610347852,-35.48669979538147,13.490207541654486
1700081304,0.9737153740265035,-0.21110988382262996,0.057198460723751274,0.018631389765039467,-0.05070181477043527,-0.011453723216212788,-37.284419760304004,-35.26746565331774,13.753288512130958
1700081304,0.9737153740265035,-0.21110988382262996,0.057198460723751274,0.018631389765039467,-0.05070181477043527,-0.011453723216212788,-37.15287927506577,-35.325928091201405,14.089447529962
1700081304,0.9738373323649337,-0.20928050874617737,0.05683258570846075,0.01710422666954443,-0.049174651674940235,-0.010995574287564275,-37.138263665594856,-35.852090032154344,13.753288512130958
1700081304,0.9738373323649337,-0.20928050874617737,0.05683258570846075,0.01710422666954443,-0.049174651674940235,-0.010995574287564275,-37.06518561824028,-35.36977491961415,13.650979245834552
1700081304,0.9737153740265035,-0.21062205046890925,0.056710627370030575,0.01435533309765336,-0.047494772269895694,-0.00992656012071775,-37.06518561824028,-35.55977784273604,13.7971353405437
1700081304,0.9737153740265035,-0.21062205046890925,0.056710627370030575,0.01435533309765336,-0.047494772269895694,-0.00992656012071775,-37.15287927506577,-35.86670564162526,13.621748026892721
1700081304,0.9729836239959225,-0.21110988382262996,0.057076502385321096,0.015424347264499889,-0.04627304179349966,-0.008857545953871221,-36.860567085647475,-35.41362174802689,13.753288512130958
1700081304,0.9729836239959225,-0.21110988382262996,0.057076502385321096,0.01710422666954443,-0.04550946024575214,-0.007483099167925688,-36.99210757088571,-35.25285004384683,13.460976322712655
1700081304,0.9722518739653414,-0.2098903004383282,0.058540002446483184,0.01710422666954443,-0.04550946024575214,-0.007483099167925688,-37.26980415083309,-35.603624671148786,13.7971353405437
1700081304,0.9722518739653414,-0.2098903004383282,0.058540002446483184,0.016493361431346415,-0.04581489286485115,-0.006414085001079161,-36.67056416252558,-35.42823735749781,13.76790412160187
1700081304,0.973349499011213,-0.21037813379204892,0.05780825241590213,0.016493361431346415,-0.04581489286485115,-0.006414085001079161,-37.06518561824028,-35.603624671148786,13.037123648056124
1700081304,0.9728616656574923,-0.20940246708460755,0.058052169092762486,0.014202616788103856,-0.045356743936202634,-0.005345070834232635,-37.19672610347852,-35.73516515638702,14.367144109909383
1700081304,0.9728616656574923,-0.20940246708460755,0.058052169092762486,0.014202616788103856,-0.045356743936202634,-0.005345070834232635,-37.138263665594856,-35.79362759427068,14.235603624671148
1700081304,0.9732275406727828,-0.21013421711518857,0.057076502385321096,0.012217304763960306,-0.044898595007554123,-0.004734205596034618,-36.68517977199649,-35.89593686056708,13.431745103770828
1700081304,0.9732275406727828,-0.21013421711518857,0.057076502385321096,0.012217304763960306,-0.044898595007554123,-0.004734205596034618,-36.77287342882198,-36.23209587839813,12.84712072493423
1700081304,0.9732275406727828,-0.2117196755147808,0.05756433573904179,0.012675453692608817,-0.04413501345980661,-0.003817907738737596,-36.714410990938326,-35.73516515638702,13.592516807950892
1700081304,0.9732275406727828,-0.2117196755147808,0.05756433573904179,0.012675453692608817,-0.04413501345980661,-0.003817907738737596,-37.02133878982753,-35.34054370067231,13.899444606840106
1700081304,0.9735934156880733,-0.21074400880733943,0.056710627370030575,0.014660765716752368,-0.04306599929296008,-0.003665191429188092,-37.26980415083309,-35.69131832797427,13.987138263665594
1700081304,0.9735934156880733,-0.21074400880733943,0.056710627370030575,0.014660765716752368,-0.04306599929296008,-0.003665191429188092,-36.87518269511838,-35.89593686056708,13.56328558900906
1700081304,0.9724957906422018,-0.21050009213047907,0.056344752354740055,0.016493361431346415,-0.04276056667386108,-0.0030543261909900766,-37.05057000876937,-35.910552470038,14.396375328851214
1700081304,0.9724957906422018,-0.21050009213047907,0.056344752354740055,0.016493361431346415,-0.04276056667386108,-0.0030543261909900766,-36.68517977199649,-35.954399298450745,14.14790996784566
1700081304,0.9729836239959225,-0.2108659671457696,0.058052169092762486,0.016646077740895916,-0.04138611988791554,-0.002596177262341565,-37.24057293189126,-35.79362759427068,12.84712072493423
1700081304,0.9729836239959225,-0.2108659671457696,0.058052169092762486,0.016646077740895916,-0.04138611988791554,-0.002596177262341565,-37.211341712949434,-36.05670856474715,13.534054370067231
1700081304,0.9722518739653414,-0.2108659671457696,0.05768629407747196,0.016493361431346415,-0.04138611988791554,-0.00198531202414355,-37.313650979245836,-36.01286173633441,13.241742180648933
1700081304,0.9722518739653414,-0.2108659671457696,0.05768629407747196,0.016493361431346415,-0.04138611988791554,-0.00198531202414355,-36.45133002046185,-35.42823735749781,13.70944168371821
1700081304,0.9731055823343526,-0.21074400880733943,0.05963762749235474,0.015729779883598895,-0.04184426881656405,-0.0015271630954950383,-37.079801227711194,-35.545162233265124,13.577901198479978
1700081304,0.9731055823343526,-0.21074400880733943,0.05963762749235474,0.01511891464540088,-0.04214970143566306,-0.001069014166846527,-36.758257819351066,-35.6182402806197,13.73867290266004
1700081304,0.9722518739653414,-0.21245142554536187,0.05878391912334352,0.01511891464540088,-0.04214970143566306,-0.001069014166846527,-36.67056416252558,-35.86670564162526,13.724057293189126
1700081304,0.9722518739653414,-0.21245142554536187,0.05878391912334352,0.016951510359994926,-0.0439822971502571,-0.000916297857297023,-36.99210757088571,-35.501315404852384,13.373282665887167
1700081304,0.9715201239347604,-0.21269534222222222,0.05975958583078492,0.016951510359994926,-0.0439822971502571,-0.000916297857297023,-36.714410990938326,-35.749780765857935,13.534054370067231
1700081304,0.9715201239347604,-0.21269534222222222,0.05963762749235474,0.017715091907742442,-0.04596760917440065,-0.0013744467859455344,-37.06518561824028,-35.42823735749781,14.454837766734874
1700081304,0.9713981655963302,-0.21257338388379204,0.05963762749235474,0.017715091907742442,-0.04596760917440065,-0.0013744467859455344,-36.91902952353113,-35.69131832797427,13.7971353405437
1700081304,0.9709103322426095,-0.2122075088685015,0.06000350250764525,0.017867808217291947,-0.047189339650796684,-0.0024434609527920616,-36.34902075416545,-35.70593393744519,13.285589009061678
1700081304,0.9709103322426095,-0.2122075088685015,0.06000350250764525,0.017867808217291947,-0.047189339650796684,-0.0024434609527920616,-36.43671441099094,-35.749780765857935,14.118678748903829
1700081304,0.9720079572884811,-0.21257338388379204,0.05914979413863404,0.01679879405044542,-0.049174651674940235,-0.003665191429188092,-36.53902367728734,-35.89593686056708,12.87635194387606
1700081304,0.9720079572884811,-0.21257338388379204,0.05914979413863404,0.01679879405044542,-0.049174651674940235,-0.003665191429188092,-36.655948553054664,-35.99824612686349,12.510961707103185
1700081304,0.9727397073190621,-0.21123184216106014,0.06000350250764525,0.0158824961931484,-0.05100724738953428,-0.004428772976935611,-37.09441683718211,-35.779011984799766,12.730195849166911
1700081304,0.9727397073190621,-0.21123184216106014,0.06000350250764525,0.0158824961931484,-0.05100724738953428,-0.004428772976935611,-36.91902952353113,-35.66208710903245,13.066354866997953
1700081304,0.9718859989500509,-0.21208555053007133,0.058418044108053006,0.0158824961931484,-0.052228977865930316,-0.004734205596034618,-36.81672025723473,-35.35515931014323,13.270973399590764
1700081304,0.9718859989500509,-0.21208555053007133,0.058418044108053006,0.0158824961931484,-0.052228977865930316,-0.004734205596034618,-36.77287342882198,-35.48669979538147,14.14790996784566
1700081304,0.9732275406727828,-0.21245142554536187,0.056344752354740055,0.016187928812247405,-0.05268712679457882,-0.005803219762881146,-36.7874890382929,-35.55977784273604,13.76790412160187
1700081304,0.9732275406727828,-0.21245142554536187,0.056344752354740055,0.016187928812247405,-0.05268712679457882,-0.005803219762881146,-36.90441391406022,-35.96901490792166,13.91406021631102
1700081304,0.9735934156880733,-0.21123184216106014,0.055734960662589185,0.01634064512179691,-0.0516181126277323,-0.006719517620178169,-36.81672025723473,-36.17363344051447,14.279450453083895
1700081304,0.9735934156880733,-0.21123184216106014,0.055734960662589185,0.01634064512179691,-0.0516181126277323,-0.006719517620178169,-37.40134463607133,-35.64747149956153,13.08097047646887
1700081304,0.9732275406727828,-0.21098792548419978,0.056100835677879705,0.014508049407202865,-0.049480084294039245,-0.0070249502392771765,-36.69979538146741,-36.26132709733996,13.884828997369189
1700081304,0.9732275406727828,-0.21098792548419978,0.056100835677879705,0.014508049407202865,-0.049480084294039245,-0.0070249502392771765,-36.36363636363637,-35.57439345220696,12.978661210172465
1700081304,0.9738373323649337,-0.21110988382262996,0.05561300232415902,0.015424347264499889,-0.047647488579445195,-0.006719517620178169,-36.46594562993277,-35.13592516807951,13.168664133294358
1700081304,0.9738373323649337,-0.21110988382262996,0.05561300232415902,0.015424347264499889,-0.047647488579445195,-0.006719517620178169,-36.87518269511838,-35.194387605963165,13.402513884828998
1700081304,0.9728616656574923,-0.21098792548419978,0.05597887733944954,0.01832595714594046,-0.046883907031697675,-0.006261368691529657,-36.84595147617656,-35.66208710903245,13.724057293189126
1700081304,0.9728616656574923,-0.21098792548419978,0.05597887733944954,0.019547687622336492,-0.04550946024575214,-0.005497787143782138,-36.758257819351066,-35.42823735749781,14.162525577316574
1700081304,0.974081249041794,-0.20903659206931702,0.055734960662589185,0.019547687622336492,-0.04550946024575214,-0.005497787143782138,-36.69979538146741,-35.70593393744519,13.76790412160187
1700081304,0.974081249041794,-0.20903659206931702,0.055734960662589185,0.016646077740895916,-0.04444044607890562,-0.004886921905584123,-36.84595147617656,-35.45746857643964,14.191756796258403
1700081304,0.9737153740265035,-0.20903659206931702,0.056710627370030575,0.016646077740895916,-0.04444044607890562,-0.004886921905584123,-37.05057000876937,-35.99824612686349,13.037123648056124
1700081304,0.9737153740265035,-0.20903659206931702,0.056710627370030575,0.013286318930806833,-0.04230241774521256,-0.003665191429188092,-36.61210172464192,-35.501315404852384,14.074831920491086
1700081304,0.9735934156880733,-0.21123184216106014,0.057198460723751274,0.013286318930806833,-0.04230241774521256,-0.003665191429188092,-36.43671441099094,-35.545162233265124,13.373282665887167
1700081304,0.973349499011213,-0.21098792548419978,0.05695454404689092,0.014202616788103856,-0.04123340357836603,-0.003817907738737596,-37.00672318035662,-36.23209587839813,14.133294358374746
1700081305,0.973349499011213,-0.21098792548419978,0.05695454404689092,0.014202616788103856,-0.04123340357836603,-0.003817907738737596,-36.74364220988015,-35.86670564162526,12.949429991230636
1700081305,0.9731055823343526,-0.21110988382262996,0.057442377400611616,0.014049900478554353,-0.040011673101970006,-0.003665191429188092,-36.933645133002045,-35.38439052908507,14.162525577316574
1700081305,0.9731055823343526,-0.21110988382262996,0.057442377400611616,0.014049900478554353,-0.040011673101970006,-0.003665191429188092,-37.211341712949434,-35.530546623794216,14.104063139432915
1700081305,0.9731055823343526,-0.21208555053007133,0.05683258570846075,0.014049900478554353,-0.0398589567924205,-0.004123340357836604,-36.67056416252558,-35.34054370067231,14.32329728149664
1700081305,0.9731055823343526,-0.21208555053007133,0.05683258570846075,0.014049900478554353,-0.0398589567924205,-0.004123340357836604,-36.94826074247296,-35.35515931014323,14.03098509207834
1700081305,0.9727397073190621,-0.2122075088685015,0.05768629407747196,0.01435533309765336,-0.038942658935123484,-0.004734205596034618,-36.655948553054664,-35.179771996492256,13.621748026892721
1700081305,0.9727397073190621,-0.2122075088685015,0.05768629407747196,0.01435533309765336,-0.038942658935123484,-0.004734205596034618,-36.61210172464192,-35.64747149956153,13.05173925752704
1700081305,0.9716420822731905,-0.2122075088685015,0.06085721087665647,0.015271630954950384,-0.03940080786377199,-0.005039638215133627,-36.67056416252558,-35.38439052908507,13.534054370067231
1700081305,0.9716420822731905,-0.2122075088685015,0.06085721087665647,0.015271630954950384,-0.03940080786377199,-0.005039638215133627,-37.00672318035662,-35.530546623794216,13.475591932183573
1700081305,0.9718859989500509,-0.2123294672069317,0.06036937752293577,0.0158824961931484,-0.04138611988791554,-0.005497787143782138,-37.284419760304004,-35.83747442268342,13.665594855305466
1700081305,0.9718859989500509,-0.2123294672069317,0.06036937752293577,0.0158824961931484,-0.04138611988791554,-0.005497787143782138,-36.77287342882198,-35.99824612686349,13.417129494299912
1700081305,0.9720079572884811,-0.21062205046890925,0.06000350250764525,0.0158824961931484,-0.04321871560250958,-0.005955936072430649,-36.714410990938326,-35.58900906167787,13.504823151125404
1700081305,0.9720079572884811,-0.21062205046890925,0.06000350250764525,0.0158824961931484,-0.04321871560250958,-0.005955936072430649,-36.46594562993277,-35.82285881321251,13.460976322712655
1700081305,0.9722518739653414,-0.2098903004383282,0.058418044108053006,0.014508049407202865,-0.045356743936202634,-0.005803219762881146,-36.378251973107275,-35.55977784273604,13.329435837474424
1700081305,0.9722518739653414,-0.2098903004383282,0.058418044108053006,0.014508049407202865,-0.045356743936202634,-0.005803219762881146,-37.02133878982753,-35.88132125109617,13.519438760596318
1700081305,0.9732275406727828,-0.21037813379204892,0.05829608576962283,0.013439035240356337,-0.04550946024575214,-0.004581489286485115,-37.15287927506577,-35.57439345220696,13.285589009061678
1700081305,0.9732275406727828,-0.21037813379204892,0.05829608576962283,0.013439035240356337,-0.04550946024575214,-0.004581489286485115,-37.22595732242034,-35.63285589009062,13.97252265419468
1700081305,0.9732275406727828,-0.21135380049949026,0.05756433573904179,0.014966198335851376,-0.04550946024575214,-0.003817907738737596,-36.56825489622918,-35.26746565331774,13.7971353405437
1700081305,0.9732275406727828,-0.21135380049949026,0.05756433573904179,0.014966198335851376,-0.04550946024575214,-0.003817907738737596,-37.22595732242034,-35.83747442268342,14.045600701549255
1700081305,0.9724957906422018,-0.21050009213047907,0.057076502385321096,0.017867808217291947,-0.045662176555301644,-0.0030543261909900766,-36.860567085647475,-35.41362174802689,13.76790412160187
1700081305,0.9724957906422018,-0.21062205046890925,0.056100835677879705,0.019089538693687978,-0.04520402762665313,-0.002596177262341565,-37.12364805612394,-35.92516807950892,12.978661210172465
1700081305,0.9732275406727828,-0.21062205046890925,0.056100835677879705,0.019089538693687978,-0.04520402762665313,-0.002596177262341565,-37.532885121309555,-35.83747442268342,12.8178895059924
1700081305,0.973349499011213,-0.21013421711518857,0.057198460723751274,0.01756237559819294,-0.0436768645311581,-0.001832595714594046,-36.860567085647475,-35.88132125109617,13.840982168956446
1700081305,0.973349499011213,-0.21013421711518857,0.057198460723751274,0.01756237559819294,-0.0436768645311581,-0.001832595714594046,-36.94826074247296,-36.04209295527623,14.220988015200234
1700081305,0.973349499011213,-0.21001225877675841,0.05780825241590213,0.014813482026301871,-0.04214970143566306,-0.0013744467859455344,-36.69979538146741,-35.72054954691611,13.417129494299912
1700081305,0.973349499011213,-0.21001225877675841,0.05780825241590213,0.014813482026301871,-0.04214970143566306,-0.0013744467859455344,-36.08593978368898,-35.92516807950892,12.934814381759718
1700081305,0.9728616656574923,-0.21098792548419978,0.057198460723751274,0.013591751549905842,-0.04092797095926703,-0.0004581489286485115,-36.64133294358375,-35.73516515638702,13.680210464776382
1700081305,0.9728616656574923,-0.21098792548419978,0.057198460723751274,0.013591751549905842,-0.04092797095926703,-0.0004581489286485115,-36.7874890382929,-35.69131832797427,13.387898275358081
1700081305,0.9728616656574923,-0.21074400880733943,0.05756433573904179,0.014813482026301871,-0.040622538340168025,0.0003054326190990077,-36.91902952353113,-35.63285589009062,13.56328558900906
1700081305,0.9728616656574923,-0.21074400880733943,0.05756433573904179,0.014813482026301871,-0.040622538340168025,0.0003054326190990077,-36.831335866705636,-35.5159310143233,13.285589009061678
1700081305,0.9724957906422018,-0.21110988382262996,0.057076502385321096,0.01557706357404939,-0.04016438941151951,0.0016798794050445422,-37.12364805612394,-35.296696872259574,13.270973399590764
1700081305,0.9724957906422018,-0.21110988382262996,0.057076502385321096,0.01557706357404939,-0.04016438941151951,0.0016798794050445422,-36.933645133002045,-35.66208710903245,13.680210464776382
1700081305,0.9720079572884811,-0.21257338388379204,0.058540002446483184,0.01557706357404939,-0.04016438941151951,0.001832595714594046,-36.758257819351066,-35.83747442268342,13.680210464776382
1700081305,0.9720079572884811,-0.21257338388379204,0.058540002446483184,0.01557706357404939,-0.04016438941151951,0.001832595714594046,-36.68517977199649,-35.530546623794216,13.636363636363635
