timestamp,acc-x,acc-y,acc-z,gyr-x,gyr-y,gyr-z,mag-x,mag-y,mag-z
1700081824,0.9931067498369011,-0.058052169092762486,-0.0023172084301732927,0.01634064512179691,-0.04291328298341058,-0.000916297857297023,-30.532008184741304,-41.24524992692195,24.583455130078924
1700081824,0.9931067498369011,-0.058052169092762486,-0.0023172084301732927,0.01634064512179691,-0.04291328298341058,-0.000916297857297023,-30.926629640456007,-40.806781642794505,25.182695118386437
1700081824,0.9921310831294597,-0.056710627370030575,-0.0012195833843017328,0.020463985479633514,-0.04413501345980661,-0.000916297857297023,-30.91201403098509,-40.353697749196144,24.904998538439052
1700081824,0.9921310831294597,-0.056710627370030575,-0.0012195833843017328,0.020463985479633514,-0.04413501345980661,-0.000916297857297023,-30.502776965799473,-40.93832212803274,24.554223911137093
1700081824,0.9922530414678898,-0.057198460723751274,-0.0018293750764525995,0.018478673455489966,-0.04627304179349966,-0.0012217304763960308,-30.882782812043263,-40.68985676702718,25.548085355159312
1700081824,0.9922530414678898,-0.057198460723751274,-0.0018293750764525995,0.018478673455489966,-0.04627304179349966,-0.002748893571891069,-31.102016954106986,-40.76293481438176,25.270388775211927
1700081824,0.9922530414678898,-0.058052169092762486,-0.001707416738022426,0.014966198335851376,-0.047036623341247176,-0.002748893571891069,-30.99970768781058,-40.4121601870798,24.788073662671735
1700081824,0.9922530414678898,-0.058052169092762486,-0.001707416738022426,0.014508049407202865,-0.04871650274629172,-0.004581489286485115,-31.43817597193803,-40.982168956445484,25.16807950891552
1700081824,0.9920091247910295,-0.05963762749235474,-0.003780708491335372,0.014508049407202865,-0.04871650274629172,-0.004581489286485115,-31.715872551885415,-41.14294066062555,25.065770242619116
1700081824,0.99237499980632,-0.0593937108154944,-0.0039026668297655453,0.01679879405044542,-0.048411070127192715,-0.006719517620178169,-31.26278865828705,-40.660625548085356,25.504238526746565
1700081824,0.99237499980632,-0.0593937108154944,-0.0039026668297655453,0.01679879405044542,-0.048411070127192715,-0.006719517620178169,-31.42356036246711,-40.879859690149075,24.919614147909968
1700081824,0.9927408748216106,-0.058661960784913356,-0.0024391667686034656,0.017867808217291947,-0.04810563750809371,-0.009468411192069237,-31.540485238234435,-40.64600993861444,25.986553639286758
1700081824,0.9927408748216106,-0.058661960784913356,-0.0024391667686034656,0.017867808217291947,-0.04810563750809371,-0.009468411192069237,-31.77433498976907,-40.95293773750365,25.387313650979248
1700081824,0.9920091247910295,-0.058661960784913356,-0.003536791814475025,0.018784106074588972,-0.047494772269895694,-0.011911872144861299,-31.569716457176266,-40.76293481438176,25.43116047939199
1700081824,0.9920091247910295,-0.058661960784913356,-0.003536791814475025,0.018784106074588972,-0.047494772269895694,-0.011911872144861299,-30.91201403098509,-41.0990938322128,25.109617071031863
1700081824,0.9924969581447503,-0.05646671069317023,-0.0031709167991845052,0.02153299964648004,-0.047952921198544204,-0.013744467859455345,-30.736626717334115,-40.96755334697457,24.802689272142647
1700081824,0.9924969581447503,-0.05646671069317023,-0.0031709167991845052,0.02153299964648004,-0.047952921198544204,-0.013744467859455345,-30.85355159310143,-40.93832212803274,24.3642209880152
1700081824,0.9932287081753313,-0.05414950226299693,-0.004634416860346585,0.020616701789183015,-0.047952921198544204,-0.014202616788103856,-31.37971353405437,-40.73370359543993,24.612686349020755
1700081824,0.9932287081753313,-0.05414950226299693,-0.004634416860346585,0.020616701789183015,-0.047952921198544204,-0.014202616788103856,-31.306635486699797,-40.9967845659164,23.998830751242327
1700081824,0.9934726248521917,-0.05512516897043832,-0.004756375198776758,0.01710422666954443,-0.04612032548395016,-0.014966198335851376,-30.926629640456007,-40.879859690149075,23.881905875475006
1700081824,0.9934726248521917,-0.05512516897043832,-0.004756375198776758,0.01710422666954443,-0.04612032548395016,-0.014966198335851376,-31.496638409821692,-41.30371236480561,23.662671733411283
1700081824,0.9926189164831803,-0.05463733561671763,-0.004146583506625891,0.014813482026301871,-0.0436768645311581,-0.01389718416900485,-31.584332066647182,-40.68985676702718,23.911137094416837
1700081824,0.9926189164831803,-0.05463733561671763,-0.004146583506625891,0.014813482026301871,-0.0436768645311581,-0.01389718416900485,-31.584332066647182,-40.93832212803274,24.6565331774335
1700081824,0.9927408748216106,-0.055734960662589185,-0.002927000122324159,0.014508049407202865,-0.04337143191205909,-0.011759155835311794,-31.46740719087986,-41.34755919321836,24.729611224788073
1700081824,0.9927408748216106,-0.055734960662589185,-0.002927000122324159,0.018478673455489966,-0.0438295808407076,-0.008704829644321718,-31.189710610932476,-40.982168956445484,24.70038000584624
1700081824,0.9920091247910295,-0.05561300232415902,-0.0032928751376146786,0.018478673455489966,-0.0438295808407076,-0.008704829644321718,-30.941245249926926,-40.48523823443438,24.174218064893303
1700081824,0.9926189164831803,-0.053539710570846076,-0.002927000122324159,0.02199114857512855,-0.045356743936202634,-0.005955936072430649,-31.452791581408945,-41.06986261327098,24.890382928968137
1700081824,0.9926189164831803,-0.053539710570846076,-0.002927000122324159,0.02199114857512855,-0.045356743936202634,-0.005955936072430649,-31.16047939199065,-41.11370944168372,24.115755627009648
1700081824,0.9927408748216106,-0.05488125229357798,-0.0019513334148827726,0.0198531202414355,-0.045662176555301644,-0.004734205596034618,-31.73048816135633,-40.52908506284712,25.12423268050278
1700081824,0.9927408748216106,-0.05488125229357798,-0.0019513334148827726,0.0198531202414355,-0.045662176555301644,-0.004734205596034618,-30.736626717334115,-40.96755334697457,25.02192341420637
1700081824,0.99237499980632,-0.05463733561671763,-0.0023172084301732927,0.0158824961931484,-0.04581489286485115,-0.003665191429188092,-31.16047939199065,-41.47909967845659,25.43116047939199
1700081824,0.99237499980632,-0.05463733561671763,-0.0023172084301732927,0.0158824961931484,-0.04581489286485115,-0.003665191429188092,-31.028938906752412,-40.806781642794505,24.788073662671735
1700081824,0.9926189164831803,-0.05561300232415902,-0.0030489584607543323,0.014049900478554353,-0.046883907031697675,-0.001832595714594046,-30.970476468868753,-40.280619701841566,25.109617071031863
1700081824,0.9926189164831803,-0.05561300232415902,-0.0030489584607543323,0.014049900478554353,-0.046883907031697675,-0.001832595714594046,-31.482022800350773,-40.96755334697457,24.59807073954984
1700081824,0.9921310831294597,-0.05683258570846075,-0.003780708491335372,0.0160352125026979,-0.047952921198544204,0.0003054326190990077,-31.496638409821692,-40.71908798596902,24.919614147909968
1700081824,0.9921310831294597,-0.05683258570846075,-0.003780708491335372,0.0160352125026979,-0.047952921198544204,0.0003054326190990077,-31.452791581408945,-40.982168956445484,25.065770242619116
1700081824,0.9928628331600408,-0.056344752354740055,-0.003780708491335372,0.019242255003237483,-0.0478002048889947,0.0006108652381980154,-31.1166325635779,-40.82139725226542,24.992692195264542
1700081824,0.9928628331600408,-0.056344752354740055,-0.003780708491335372,0.019242255003237483,-0.0478002048889947,0.0007635815477475192,-31.569716457176266,-40.49985384390529,25.25577316574101
1700081824,0.9932287081753313,-0.0552471273088685,-0.0039026668297655453,0.019394971312786988,-0.047342055960346185,0.0007635815477475192,-31.46740719087986,-40.4121601870798,25.109617071031863
1700081824,0.9932287081753313,-0.0552471273088685,-0.0039026668297655453,0.016951510359994926,-0.04596760917440065,0.0,-31.043554516223328,-40.95293773750365,24.992692195264542
1700081824,0.9932287081753313,-0.056710627370030575,-0.005244208552497451,0.016951510359994926,-0.04596760917440065,0.0,-31.218941829874307,-41.084478222741886,25.299619994153755
1700081824,0.993716541529052,-0.05732041906218144,-0.003780708491335372,0.015424347264499889,-0.0436768645311581,-0.0013744467859455344,-31.62817889505992,-41.06986261327098,25.43116047939199
1700081824,0.993716541529052,-0.05732041906218144,-0.003780708491335372,0.015424347264499889,-0.0436768645311581,-0.0013744467859455344,-31.84741303712365,-40.68985676702718,24.992692195264542
1700081824,0.9932287081753313,-0.05756433573904179,-0.0045124585219164124,0.01435533309765336,-0.04199698512611356,-0.0015271630954950383,-30.91201403098509,-40.92370651856182,24.70038000584624
1700081824,0.9932287081753313,-0.05756433573904179,-0.0045124585219164124,0.01435533309765336,-0.04199698512611356,-0.0015271630954950383,-30.736626717334115,-41.230634317451035,24.48114586378252
1700081824,0.9928628331600408,-0.057076502385321096,-0.004390500183486238,0.015424347264499889,-0.04046982203061852,-0.00198531202414355,-31.233557439345223,-41.34755919321836,24.174218064893303
1700081824,0.9920091247910295,-0.05780825241590213,-0.0030489584607543323,0.01634064512179691,-0.04016438941151951,-0.0039706240482871,-30.561239403683132,-41.0990938322128,24.802689272142647
1700081824,0.9920091247910295,-0.05780825241590213,-0.0030489584607543323,0.01634064512179691,-0.04016438941151951,-0.0039706240482871,-31.028938906752412,-41.27448114586378,24.451914644840688
1700081824,0.9926189164831803,-0.0552471273088685,-0.0045124585219164124,0.016646077740895916,-0.04046982203061852,-0.004886921905584123,-30.838935983630517,-41.37679041216018,24.115755627009648
1700081824,0.9913993330988786,-0.05732041906218144,-0.0015854583995922526,0.015424347264499889,-0.04123340357836603,-0.005650503453331642,-31.0143232972815,-41.216018707980126,24.890382928968137
1700081824,0.9913993330988786,-0.05732041906218144,-0.0015854583995922526,0.015424347264499889,-0.04123340357836603,-0.005650503453331642,-31.17509500146156,-40.9967845659164,24.53960830166618
1700081824,0.9921310831294597,-0.05817412743119265,-0.0015854583995922526,0.014813482026301871,-0.04245513405476207,-0.006872233929727673,-31.277404267757962,-41.3914060216311,25.065770242619116
1700081824,0.9921310831294597,-0.05817412743119265,-0.0015854583995922526,0.01557706357404939,-0.044898595007554123,-0.007788531787024695,-31.598947676118094,-41.06986261327098,24.27652733118971
1700081824,0.9916432497757389,-0.058052169092762486,-0.001707416738022426,0.01557706357404939,-0.044898595007554123,-0.007788531787024695,-31.145863782519733,-41.33294358374744,25.12423268050278
1700081824,0.9916432497757389,-0.058052169092762486,-0.001707416738022426,0.0160352125026979,-0.04657847441259867,-0.008857545953871221,-31.306635486699797,-41.435252850043845,23.896521484945925
1700081824,0.9917652081141691,-0.05914979413863404,-0.00024391667686034658,0.0160352125026979,-0.04657847441259867,-0.008857545953871221,-31.657410114001756,-41.33294358374744,24.524992692195262
1700081824,0.9916432497757389,-0.058540002446483184,-0.001707416738022426,0.018936822384138473,-0.048869219055841226,-0.01069014166846527,-31.32125109617071,-41.12832505115463,25.095001461560944
1700081824,0.9916432497757389,-0.058540002446483184,-0.001707416738022426,0.018936822384138473,-0.048869219055841226,-0.01069014166846527,-31.598947676118094,-41.05524700380006,25.211926337328265
1700081824,0.9921310831294597,-0.056222794016309884,-0.0020732917533129456,0.020311269170084013,-0.05100724738953428,-0.011759155835311794,-30.780473545746855,-40.95293773750365,25.32885121309559
1700081824,0.9921310831294597,-0.056222794016309884,-0.0020732917533129456,0.020311269170084013,-0.05100724738953428,-0.011759155835311794,-31.32125109617071,-40.85062847120725,24.802689272142647
1700081824,0.9918871664525993,-0.05597887733944954,-0.003658750152905199,0.017256942979093935,-0.0517708289372818,-0.013286318930806833,-31.46740719087986,-41.17217187956738,24.349605378544283
1700081824,0.9918871664525993,-0.05597887733944954,-0.003658750152905199,0.017256942979093935,-0.0517708289372818,-0.013286318930806833,-31.028938906752412,-41.11370944168372,25.182695118386437
1700081824,0.9926189164831803,-0.055734960662589185,-0.002561125107033639,0.015424347264499889,-0.05207626155638081,-0.014508049407202865,-31.657410114001756,-41.24524992692195,24.583455130078924
1700081824,0.9926189164831803,-0.055734960662589185,-0.002561125107033639,0.015424347264499889,-0.05207626155638081,-0.014508049407202865,-31.306635486699797,-41.02601578485823,24.68576439637533
1700081824,0.9921310831294597,-0.05512516897043832,-0.0032928751376146786,0.016187928812247405,-0.05238169417547982,-0.013591751549905842,-31.365097924583456,-40.9967845659164,24.24729611224788
1700081824,0.9921310831294597,-0.05512516897043832,-0.0032928751376146786,0.016187928812247405,-0.05283984310412832,-0.012064588454410803,-31.072785735165155,-41.47909967845659,24.612686349020755
1700081824,0.99237499980632,-0.055734960662589185,-0.0045124585219164124,0.019394971312786988,-0.05283984310412832,-0.012064588454410803,-31.306635486699797,-40.82139725226542,24.013446360713242
1700081824,0.99237499980632,-0.055734960662589185,-0.0045124585219164124,0.022907446432425576,-0.05146539631818279,-0.01038470904936626,-31.277404267757962,-40.89447529961999,24.3642209880152
1700081824,0.9942043748827727,-0.053173835555555556,-0.006463791936799185,0.022907446432425576,-0.05146539631818279,-0.01038470904936626,-31.189710610932476,-41.14294066062555,23.867290266004094
1700081824,0.9940824165443425,-0.05097858546381243,-0.0063418335983690104,0.020922134408282025,-0.048869219055841226,-0.0079412480965742,-31.52586962876352,-40.96755334697457,24.14498684595148
1700081824,0.9940824165443425,-0.05097858546381243,-0.0063418335983690104,0.020922134408282025,-0.048869219055841226,-0.0079412480965742,-31.189710610932476,-40.71908798596902,24.232680502776965
1700081825,0.9938384998674822,-0.051832293832823645,-0.005610083567787971,0.01389718416900485,-0.04627304179349966,-0.004734205596034618,-31.42356036246711,-40.7044723764981,24.70038000584624
1700081825,0.9938384998674822,-0.051832293832823645,-0.005610083567787971,0.01389718416900485,-0.04627304179349966,-0.004734205596034618,-31.42356036246711,-40.44139140602163,24.70038000584624
1700081825,0.9922530414678898,-0.05439341893985729,-0.004878333537206931,0.011911872144861299,-0.04413501345980661,-0.0012217304763960308,-31.598947676118094,-40.67524115755627,23.95498392282958
1700081825,0.9922530414678898,-0.05439341893985729,-0.004878333537206931,0.011911872144861299,-0.04413501345980661,-0.0012217304763960308,-31.715872551885415,-41.084478222741886,24.218064893306053
1700081825,0.9924969581447503,-0.057442377400611616,-0.0039026668297655453,0.016646077740895916,-0.04459316238845512,0.001069014166846527,-31.78895059923999,-40.44139140602163,24.27652733118971
1700081825,0.9924969581447503,-0.057442377400611616,-0.0039026668297655453,0.016646077740895916,-0.04459316238845512,0.001069014166846527,-31.145863782519733,-40.95293773750365,23.998830751242327
1700081825,0.99237499980632,-0.05549104398572884,-0.0031709167991845052,0.02199114857512855,-0.04459316238845512,0.001832595714594046,-31.145863782519733,-41.05524700380006,23.691902952353114
1700081825,0.99237499980632,-0.05549104398572884,-0.0031709167991845052,0.02199114857512855,-0.04459316238845512,0.001832595714594046,-31.482022800350773,-41.05524700380006,24.3642209880152
1700081825,0.9929847914984707,-0.05439341893985729,-0.0045124585219164124,0.019547687622336492,-0.04459316238845512,0.0006108652381980154,-31.365097924583456,-40.426775796550714,23.998830751242327
1700081825,0.9929847914984707,-0.05439341893985729,-0.0045124585219164124,0.019547687622336492,-0.04459316238845512,0.0006108652381980154,-31.16047939199065,-41.25986553639287,24.115755627009648
1700081825,0.9928628331600408,-0.0565886690316004,-0.003780708491335372,0.012828170002158322,-0.04413501345980661,-0.0016798794050445422,-31.32125109617071,-40.79216603332359,24.466530254311607
1700081825,0.9928628331600408,-0.0565886690316004,-0.003780708491335372,0.012828170002158322,-0.04413501345980661,-0.0016798794050445422,-31.248173048816135,-41.05524700380006,24.261911721718796
1700081825,0.9929847914984707,-0.0589058774617737,-0.0045124585219164124,0.01114829059711378,-0.04413501345980661,-0.0039706240482871,-31.37971353405437,-40.85062847120725,24.53960830166618
1700081825,0.9929847914984707,-0.0589058774617737,-0.0045124585219164124,0.01114829059711378,-0.04413501345980661,-0.005955936072430649,-31.072785735165155,-40.777550423852674,24.641917567962583
1700081825,0.9927408748216106,-0.058540002446483184,-0.003780708491335372,0.014813482026301871,-0.04413501345980661,-0.005955936072430649,-31.1166325635779,-40.44139140602163,24.291142940660627
1700081825,0.9927408748216106,-0.058540002446483184,-0.003780708491335372,0.018631389765039467,-0.04413501345980661,-0.0070249502392771765,-31.584332066647182,-41.65448699210757,23.867290266004094
1700081825,0.9921310831294597,-0.056710627370030575,-0.003536791814475025,0.018631389765039467,-0.04413501345980661,-0.0070249502392771765,-31.17509500146156,-41.011400175387315,24.495761473253435
1700081825,0.9924969581447503,-0.05512516897043832,-0.002561125107033639,0.019700403931885994,-0.045356743936202634,-0.008093964406123703,-31.028938906752412,-40.95293773750365,25.109617071031863
1700081825,0.9924969581447503,-0.05512516897043832,-0.002561125107033639,0.019700403931885994,-0.045356743936202634,-0.008093964406123703,-31.277404267757962,-40.89447529961999,24.641917567962583
1700081825,0.99237499980632,-0.05475929395514781,-0.0031709167991845052,0.01756237559819294,-0.04612032548395016,-0.0079412480965742,-31.511254019292608,-41.24524992692195,24.9488453668518
1700081825,0.99237499980632,-0.05475929395514781,-0.0031709167991845052,0.01756237559819294,-0.04612032548395016,-0.0079412480965742,-31.42356036246711,-41.55217772581117,24.70038000584624
1700081825,0.9926189164831803,-0.05463733561671763,-0.0032928751376146786,0.01634064512179691,-0.04657847441259867,-0.006872233929727673,-30.8243203741596,-41.33294358374744,24.10114001753873
1700081825,0.9926189164831803,-0.05463733561671763,-0.0032928751376146786,0.01634064512179691,-0.04657847441259867,-0.006872233929727673,-31.072785735165155,-41.44986845951476,24.188833674364222
1700081825,0.9916432497757389,-0.056710627370030575,-0.003536791814475025,0.0160352125026979,-0.047036623341247176,-0.006414085001079161,-30.298158433206662,-41.05524700380006,24.15960245542239
1700081825,0.9916432497757389,-0.056710627370030575,-0.003536791814475025,0.0160352125026979,-0.047036623341247176,-0.006414085001079161,-31.511254019292608,-41.20140309850921,24.13037123648056
1700081825,0.9929847914984707,-0.055369085647298664,-0.004146583506625891,0.018173240836390957,-0.047952921198544204,-0.005039638215133627,-30.897398421514175,-41.17217187956738,24.68576439637533
1700081825,0.9929847914984707,-0.055369085647298664,-0.004146583506625891,0.018173240836390957,-0.047952921198544204,-0.005039638215133627,-31.306635486699797,-41.06986261327098,24.437299035369776
1700081825,0.9926189164831803,-0.05390558558613659,-0.004634416860346585,0.020005836550985003,-0.048411070127192715,-0.004428772976935611,-31.16047939199065,-40.85062847120725,24.30575855013154
1700081825,0.9926189164831803,-0.05390558558613659,-0.004634416860346585,0.020005836550985003,-0.048411070127192715,-0.004428772976935611,-31.028938906752412,-40.58754750073078,24.15960245542239
1700081825,0.9935945831906218,-0.05414950226299693,-0.004634416860346585,0.020005836550985003,-0.047952921198544204,-0.002901609881440573,-30.99970768781058,-40.68985676702718,23.9695995323005
1700081825,0.9935945831906218,-0.05414950226299693,-0.004634416860346585,0.019394971312786988,-0.047189339650796684,-0.0013744467859455344,-31.189710610932476,-40.660625548085356,24.0719087985969
1700081825,0.9929847914984707,-0.053539710570846076,-0.004146583506625891,0.019394971312786988,-0.047189339650796684,-0.0013744467859455344,-31.4089447529962,-41.0990938322128,24.51037708272435
1700081825,0.9929847914984707,-0.053539710570846076,-0.004146583506625891,0.017715091907742442,-0.04673119072214818,-0.0003054326190990077,-30.897398421514175,-41.02601578485823,24.51037708272435
1700081825,0.9924969581447503,-0.055734960662589185,-0.004756375198776758,0.017715091907742442,-0.04673119072214818,-0.0003054326190990077,-31.145863782519733,-41.05524700380006,24.013446360713242
1700081825,0.9927408748216106,-0.055734960662589185,-0.004390500183486238,0.017867808217291947,-0.04657847441259867,0.0,-31.365097924583456,-40.631394329143525,24.68576439637533
1700081825,0.9927408748216106,-0.055734960662589185,-0.004390500183486238,0.017867808217291947,-0.04657847441259867,0.0,-30.678164279450453,-40.58754750073078,24.495761473253435
1700081825,0.9927408748216106,-0.05597887733944954,-0.005732041906218145,0.01756237559819294,-0.04550946024575214,0.00015271630954950385,-31.598947676118094,-40.67524115755627,25.197310727857353
1700081825,0.9927408748216106,-0.05597887733944954,-0.005732041906218145,0.01756237559819294,-0.04550946024575214,0.00015271630954950385,-31.16047939199065,-40.806781642794505,25.22654194679918
1700081825,0.9931067498369011,-0.056344752354740055,-0.005000291875637105,0.016187928812247405,-0.04474587869800463,-0.0007635815477475192,-31.496638409821692,-40.777550423852674,24.218064893306053
1700081825,0.9931067498369011,-0.056344752354740055,-0.005000291875637105,0.016187928812247405,-0.04474587869800463,-0.0007635815477475192,-31.233557439345223,-40.68985676702718,23.750365390236773
1700081825,0.9934726248521917,-0.056344752354740055,-0.004634416860346585,0.016187928812247405,-0.0438295808407076,-0.001832595714594046,-31.394329143525283,-40.558316281788954,24.612686349020755
1700081825,0.9934726248521917,-0.056344752354740055,-0.004634416860346585,0.016187928812247405,-0.0438295808407076,-0.001832595714594046,-31.42356036246711,-40.58754750073078,24.74422683425899
1700081825,0.9928628331600408,-0.057198460723751274,-0.005122250214067278,0.015729779883598895,-0.04291328298341058,-0.0022907446432425577,-31.657410114001756,-40.86524408067817,25.285004384682843
1700081825,0.9928628331600408,-0.057198460723751274,-0.005122250214067278,0.015729779883598895,-0.04291328298341058,-0.0022907446432425577,-31.818181818181817,-40.58754750073078,23.998830751242327
1700081825,0.9926189164831803,-0.057442377400611616,-0.004024625168195718,0.0158824961931484,-0.04260785036431157,-0.004428772976935611,-30.970476468868753,-40.86524408067817,24.232680502776965
1700081825,0.9926189164831803,-0.057442377400611616,-0.004024625168195718,0.0158824961931484,-0.04260785036431157,-0.004428772976935611,-30.91201403098509,-41.04063139432914,23.998830751242327
1700081825,0.9920091247910295,-0.0565886690316004,-0.003780708491335372,0.016951510359994926,-0.04276056667386108,-0.006414085001079161,-31.1166325635779,-41.157556270096464,24.203449283835134
1700081825,0.9920091247910295,-0.0565886690316004,-0.003780708491335372,0.016951510359994926,-0.04276056667386108,-0.006414085001079161,-31.29201987722888,-41.17217187956738,23.32651271558024
1700081825,0.9921310831294597,-0.056710627370030575,-0.003658750152905199,0.016493361431346415,-0.04291328298341058,-0.007483099167925688,-31.306635486699797,-40.95293773750365,23.998830751242327
1700081825,0.9921310831294597,-0.056710627370030575,-0.003658750152905199,0.016493361431346415,-0.04291328298341058,-0.009010262263420726,-30.722011107863196,-41.05524700380006,24.261911721718796
1700081825,0.9918871664525993,-0.05646671069317023,-0.003658750152905199,0.01679879405044542,-0.0438295808407076,-0.009010262263420726,-31.204326220403388,-40.79216603332359,24.524992692195262
1700081825,0.9918871664525993,-0.05646671069317023,-0.003658750152905199,0.015424347264499889,-0.04413501345980661,-0.009010262263420726,-30.897398421514175,-40.64600993861444,24.451914644840688
1700081825,0.9920091247910295,-0.055369085647298664,-0.002561125107033639,0.015424347264499889,-0.04413501345980661,-0.009010262263420726,-30.941245249926926,-41.2890967553347,23.80882782812043
1700081825,0.99237499980632,-0.057076502385321096,-0.0012195833843017328,0.015271630954950384,-0.04612032548395016,-0.008857545953871221,-31.452791581408945,-40.67524115755627,23.297281496638412
1700081825,0.99237499980632,-0.057076502385321096,-0.0012195833843017328,0.015271630954950384,-0.04612032548395016,-0.008857545953871221,-30.91201403098509,-40.89447529961999,23.662671733411283
1700081825,0.9920091247910295,-0.05597887733944954,-0.002927000122324159,0.018478673455489966,-0.04856378643674222,-0.008093964406123703,-31.145863782519733,-40.879859690149075,23.516515638702135
1700081825,0.9920091247910295,-0.05597887733944954,-0.002927000122324159,0.018478673455489966,-0.04856378643674222,-0.008093964406123703,-31.131248173048814,-40.82139725226542,24.627301958491667
1700081825,0.9921310831294597,-0.05500321063200815,-0.004878333537206931,0.0198531202414355,-0.05009094953223726,-0.0079412480965742,-30.91201403098509,-41.230634317451035,25.051154633148204
1700081825,0.9921310831294597,-0.05500321063200815,-0.004878333537206931,0.0198531202414355,-0.05009094953223726,-0.0079412480965742,-31.16047939199065,-40.879859690149075,24.56883952060801
1700081825,0.9927408748216106,-0.053295793893985734,-0.005122250214067278,0.017867808217291947,-0.049938233222687756,-0.007330382858376184,-31.131248173048814,-40.93832212803274,24.15960245542239
1700081825,0.9927408748216106,-0.053295793893985734,-0.005122250214067278,0.017867808217291947,-0.049938233222687756,-0.007330382858376184,-31.248173048816135,-41.04063139432914,24.51037708272435
1700081825,0.9933506665137612,-0.05378362724770642,-0.0039026668297655453,0.014660765716752368,-0.049938233222687756,-0.00717766654882668,-31.072785735165155,-40.806781642794505,23.838059047062263
1700081825,0.9933506665137612,-0.05378362724770642,-0.0039026668297655453,0.014660765716752368,-0.049938233222687756,-0.00717766654882668,-31.77433498976907,-40.806781642794505,23.9695995323005
1700081825,0.9922530414678898,-0.056344752354740055,-0.004146583506625891,0.013744467859455345,-0.049632800603588746,-0.005497787143782138,-30.99970768781058,-41.11370944168372,24.77345805320082
1700081825,0.9922530414678898,-0.056344752354740055,-0.004146583506625891,0.013744467859455345,-0.04902193536539073,-0.004886921905584123,-30.64893306050862,-40.93832212803274,24.51037708272435
1700081825,0.9933506665137612,-0.0565886690316004,-0.005732041906218145,0.01756237559819294,-0.04902193536539073,-0.004886921905584123,-30.590470622624967,-40.67524115755627,25.080385852090032
1700081825,0.9933506665137612,-0.0565886690316004,-0.005732041906218145,0.02107485071783153,-0.047647488579445195,-0.005650503453331642,-31.05817012569424,-40.22215726395791,23.925752703887753
1700081825,0.9934726248521917,-0.05414950226299693,-0.007195541967380223,0.02107485071783153,-0.047647488579445195,-0.005650503453331642,-31.64279450453084,-40.54370067231803,24.9488453668518
1700081825,0.9929847914984707,-0.052807960540265035,-0.0062198752599388375,0.018631389765039467,-0.045356743936202634,-0.005803219762881146,-31.16047939199065,-40.558316281788954,24.51037708272435
1700081825,0.9929847914984707,-0.052807960540265035,-0.0062198752599388375,0.018631389765039467,-0.045356743936202634,-0.005803219762881146,-31.306635486699797,-40.602163110201694,23.3849751534639
1700081825,0.9938384998674822,-0.05414950226299693,-0.005000291875637105,0.014813482026301871,-0.0436768645311581,-0.004428772976935611,-31.189710610932476,-41.157556270096464,24.451914644840688
1700081825,0.9938384998674822,-0.05414950226299693,-0.005000291875637105,0.014813482026301871,-0.0436768645311581,-0.004428772976935611,-31.394329143525283,-41.02601578485823,23.867290266004094
1700081825,0.9922530414678898,-0.056344752354740055,-0.004756375198776758,0.015271630954950384,-0.04230241774521256,-0.0033597588100890844,-31.496638409821692,-41.05524700380006,23.838059047062263
1700081825,0.9922530414678898,-0.056344752354740055,-0.004756375198776758,0.015271630954950384,-0.04230241774521256,-0.0033597588100890844,-31.686641332943584,-41.20140309850921,25.02192341420637
1700081825,0.99237499980632,-0.055734960662589185,-0.004146583506625891,0.019089538693687978,-0.04214970143566306,-0.001832595714594046,-31.832797427652732,-41.27448114586378,24.408067816427945
1700081825,0.99237499980632,-0.055734960662589185,-0.004146583506625891,0.019089538693687978,-0.04214970143566306,-0.001832595714594046,-30.91201403098509,-41.011400175387315,24.13037123648056
1700081825,0.9926189164831803,-0.05439341893985729,-0.004146583506625891,0.02076941809873252,-0.04321871560250958,-0.001069014166846527,-31.350482315112536,-41.20140309850921,23.881905875475006
1700081825,0.9926189164831803,-0.05439341893985729,-0.004146583506625891,0.02076941809873252,-0.04321871560250958,-0.001069014166846527,-31.028938906752412,-41.25986553639287,24.13037123648056
1700081825,0.9921310831294597,-0.05561300232415902,-0.0026830834454638123,0.017867808217291947,-0.04428772976935611,-0.0012217304763960308,-31.452791581408945,-41.42063724057293,23.925752703887753
1700081825,0.9921310831294597,-0.05561300232415902,-0.0026830834454638123,0.017867808217291947,-0.04428772976935611,-0.0012217304763960308,-31.233557439345223,-41.230634317451035,24.30575855013154
1700081825,0.9922530414678898,-0.056222794016309884,-0.003780708491335372,0.0160352125026979,-0.044898595007554123,-0.0015271630954950383,-30.91201403098509,-41.0990938322128,23.253434668225665
1700081825,0.9922530414678898,-0.056222794016309884,-0.003780708491335372,0.0160352125026979,-0.044898595007554123,-0.0015271630954950383,-31.043554516223328,-40.86524408067817,23.61882490499854
1700081825,0.9926189164831803,-0.05695454404689092,-0.004146583506625891,0.01557706357404939,-0.045662176555301644,-0.0024434609527920616,-31.17509500146156,-40.79216603332359,23.633440514469452
1700081825,0.9926189164831803,-0.05695454404689092,-0.004146583506625891,0.01557706357404939,-0.045662176555301644,-0.0024434609527920616,-31.555100847705347,-40.660625548085356,23.896521484945925
1700081825,0.9920091247910295,-0.05768629407747196,-0.003780708491335372,0.01634064512179691,-0.04657847441259867,-0.004428772976935611,-31.598947676118094,-40.777550423852674,24.378836597486114
1700081825,0.9920091247910295,-0.05768629407747196,-0.003780708491335372,0.017409659288643436,-0.047494772269895694,-0.006261368691529657,-31.145863782519733,-40.879859690149075,24.028061970184154
1700081825,0.9915212914373088,-0.057076502385321096,-0.004390500183486238,0.017409659288643436,-0.047494772269895694,-0.006261368691529657,-31.248173048816135,-40.79216603332359,23.867290266004094
1700081825,0.99237499980632,-0.05695454404689092,-0.004634416860346585,0.017256942979093935,-0.047647488579445195,-0.007483099167925688,-31.52586962876352,-40.68985676702718,24.218064893306053
1700081825,0.99237499980632,-0.05695454404689092,-0.004634416860346585,0.017256942979093935,-0.047647488579445195,-0.007483099167925688,-30.80970476468869,-40.909090909090914,24.6565331774335
1700081825,0.9926189164831803,-0.0565886690316004,-0.005122250214067278,0.017256942979093935,-0.04810563750809371,-0.009315694882519734,-31.482022800350773,-40.777550423852674,23.911137094416837
1700081825,0.9926189164831803,-0.0565886690316004,-0.005122250214067278,0.017256942979093935,-0.04810563750809371,-0.009315694882519734,-31.365097924583456,-40.67524115755627,24.554223911137093
1700081825,0.9933506665137612,-0.056344752354740055,-0.005000291875637105,0.016646077740895916,-0.047342055960346185,-0.01038470904936626,-31.26278865828705,-40.95293773750365,24.802689272142647
1700081825,0.9933506665137612,-0.056344752354740055,-0.005000291875637105,0.016646077740895916,-0.047342055960346185,-0.01038470904936626,-30.780473545746855,-41.216018707980126,23.838059047062263
1700081825,0.9924969581447503,-0.055369085647298664,-0.004634416860346585,0.016187928812247405,-0.047036623341247176,-0.011453723216212788,-30.955860859397838,-40.777550423852674,23.98421514177141
1700081825,0.9924969581447503,-0.055369085647298664,-0.004634416860346585,0.016187928812247405,-0.047036623341247176,-0.011453723216212788,-30.955860859397838,-40.85062847120725,24.788073662671735
1700081825,0.9917652081141691,-0.05512516897043832,-0.0062198752599388375,0.016493361431346415,-0.04642575810304917,-0.01114829059711378,-31.64279450453084,-41.31832797427653,24.729611224788073
1700081826,0.9917652081141691,-0.05512516897043832,-0.0062198752599388375,0.016493361431346415,-0.04642575810304917,-0.01114829059711378,-31.218941829874307,-40.71908798596902,24.291142940660627
1700081826,0.9932287081753313,-0.05414950226299693,-0.005610083567787971,0.017867808217291947,-0.04627304179349966,-0.010231992739816757,-31.189710610932476,-40.806781642794505,24.203449283835134
1700081826,0.9932287081753313,-0.05414950226299693,-0.005610083567787971,0.017867808217291947,-0.04627304179349966,-0.010231992739816757,-31.145863782519733,-40.57293189125987,24.3642209880152
1700081826,0.9929847914984707,-0.05378362724770642,-0.004878333537206931,0.018478673455489966,-0.04520402762665313,-0.009468411192069237,-31.087401344636074,-40.982168956445484,24.188833674364222
1700081826,0.9929847914984707,-0.05378362724770642,-0.004878333537206931,0.018478673455489966,-0.04474587869800463,-0.007330382858376184,-30.70739549839228,-40.806781642794505,25.32885121309559
1700081826,0.9926189164831803,-0.05268600220183486,-0.005244208552497451,0.017867808217291947,-0.04474587869800463,-0.007330382858376184,-30.722011107863196,-41.25986553639287,23.896521484945925
1700081826,0.9926189164831803,-0.05268600220183486,-0.005244208552497451,0.017256942979093935,-0.0439822971502571,-0.0039706240482871,-30.955860859397838,-40.806781642794505,24.437299035369776
1700081826,0.99237499980632,-0.05414950226299693,-0.004878333537206931,0.017256942979093935,-0.0439822971502571,-0.0039706240482871,-30.838935983630517,-40.82139725226542,24.349605378544283
1700081826,0.99237499980632,-0.05414950226299693,-0.004878333537206931,0.017867808217291947,-0.0438295808407076,-0.001069014166846527,-31.37971353405437,-40.74831920491084,24.627301958491667
1700081826,0.9929847914984707,-0.053173835555555556,-0.004390500183486238,0.017867808217291947,-0.0438295808407076,-0.001069014166846527,-31.350482315112536,-41.084478222741886,23.80882782812043
1700081826,0.9929847914984707,-0.05402754392456677,-0.004146583506625891,0.01679879405044542,-0.04352414822160859,0.0007635815477475192,-30.970476468868753,-41.3914060216311,23.80882782812043
1700081826,0.9929847914984707,-0.05402754392456677,-0.004146583506625891,0.01679879405044542,-0.04352414822160859,0.0007635815477475192,-30.941245249926926,-41.37679041216018,24.56883952060801
1700081826,0.9926189164831803,-0.05439341893985729,-0.0045124585219164124,0.01557706357404939,-0.04321871560250958,0.0022907446432425577,-31.087401344636074,-41.639871382636656,24.349605378544283
1700081826,0.9926189164831803,-0.05439341893985729,-0.0045124585219164124,0.01557706357404939,-0.04321871560250958,0.0022907446432425577,-31.26278865828705,-41.20140309850921,24.77345805320082
1700081826,0.9926189164831803,-0.055369085647298664,-0.004390500183486238,0.01435533309765336,-0.0438295808407076,0.0022907446432425577,-31.598947676118094,-41.25986553639287,24.51037708272435
1700081826,0.9926189164831803,-0.055369085647298664,-0.004390500183486238,0.01435533309765336,-0.0438295808407076,0.0022907446432425577,-30.926629640456007,-40.76293481438176,24.6565331774335
1700081826,0.9917652081141691,-0.057076502385321096,-0.005122250214067278,0.015271630954950384,-0.04337143191205909,0.002138028333693054,-30.985092078339665,-40.86524408067817,24.729611224788073
1700081826,0.9917652081141691,-0.057076502385321096,-0.005122250214067278,0.015271630954950384,-0.04337143191205909,0.002138028333693054,-31.028938906752412,-40.982168956445484,24.86115171002631
1700081826,0.9922530414678898,-0.05683258570846075,-0.004756375198776758,0.01679879405044542,-0.04321871560250958,0.0003054326190990077,-30.970476468868753,-40.93832212803274,24.524992692195262
1700081826,0.9922530414678898,-0.05683258570846075,-0.004756375198776758,0.01679879405044542,-0.04321871560250958,0.0003054326190990077,-31.277404267757962,-41.084478222741886,24.612686349020755
1700081826,0.9929847914984707,-0.057198460723751274,-0.004390500183486238,0.017409659288643436,-0.04291328298341058,-0.0013744467859455344,-30.985092078339665,-41.0990938322128,24.378836597486114
1700081826,0.9929847914984707,-0.057198460723751274,-0.004390500183486238,0.017409659288643436,-0.04291328298341058,-0.0013744467859455344,-31.102016954106986,-41.04063139432914,24.261911721718796
1700081826,0.9918871664525993,-0.057198460723751274,-0.005000291875637105,0.017409659288643436,-0.04306599929296008,-0.0033597588100890844,-30.941245249926926,-41.12832505115463,24.203449283835134
1700081826,0.9931067498369011,-0.055734960662589185,-0.0039026668297655453,0.0158824961931484,-0.04291328298341058,-0.004276056667386108,-31.42356036246711,-41.05524700380006,24.68576439637533
1700081826,0.9931067498369011,-0.055734960662589185,-0.0039026668297655453,0.0158824961931484,-0.04291328298341058,-0.004276056667386108,-31.145863782519733,-41.30371236480561,24.349605378544283
1700081826,0.9926189164831803,-0.055734960662589185,-0.003780708491335372,0.015271630954950384,-0.04276056667386108,-0.00519235452468313,-31.102016954106986,-41.18678748903829,24.042677579655074
1700081826,0.9926189164831803,-0.055734960662589185,-0.003780708491335372,0.015271630954950384,-0.04276056667386108,-0.00519235452468313,-30.882782812043263,-40.879859690149075,24.39345220695703
1700081826,0.9924969581447503,-0.05597887733944954,-0.004268541845056065,0.01557706357404939,-0.04291328298341058,-0.005650503453331642,-31.555100847705347,-40.909090909090914,24.451914644840688
1700081826,0.9924969581447503,-0.05597887733944954,-0.004268541845056065,0.01557706357404939,-0.04291328298341058,-0.005650503453331642,-31.43817597193803,-40.9967845659164,24.291142940660627
1700081826,0.9927408748216106,-0.0565886690316004,-0.0039026668297655453,0.016951510359994926,-0.0436768645311581,-0.00519235452468313,-31.277404267757962,-41.084478222741886,24.39345220695703
1700081826,0.9927408748216106,-0.0565886690316004,-0.0039026668297655453,0.016951510359994926,-0.044898595007554123,-0.005650503453331642,-31.394329143525283,-40.52908506284712,23.911137094416837
1700081826,0.9926189164831803,-0.056344752354740055,-0.0030489584607543323,0.018020524526841452,-0.044898595007554123,-0.005650503453331642,-31.17509500146156,-41.011400175387315,23.648056123940368
1700081826,0.9926189164831803,-0.056344752354740055,-0.0030489584607543323,0.017409659288643436,-0.04505131131710363,-0.006261368691529657,-31.043554516223328,-40.73370359543993,23.253434668225665
1700081826,0.9921310831294597,-0.05500321063200815,-0.005122250214067278,0.017409659288643436,-0.04505131131710363,-0.006261368691529657,-31.4089447529962,-40.909090909090914,23.58959368605671
1700081826,0.9921310831294597,-0.05500321063200815,-0.004146583506625891,0.015424347264499889,-0.04505131131710363,-0.006566801310628665,-31.028938906752412,-41.230634317451035,23.633440514469452
1700081826,0.9931067498369011,-0.05585691900101936,-0.004146583506625891,0.015424347264499889,-0.04505131131710363,-0.006566801310628665,-31.204326220403388,-41.12832505115463,24.30575855013154
1700081826,0.9922530414678898,-0.05451537727828745,-0.003780708491335372,0.014813482026301871,-0.04581489286485115,-0.006872233929727673,-31.233557439345223,-41.20140309850921,24.0719087985969
1700081826,0.9922530414678898,-0.05451537727828745,-0.003780708491335372,0.014813482026301871,-0.04581489286485115,-0.006872233929727673,-30.85355159310143,-40.86524408067817,24.56883952060801
1700081826,0.9926189164831803,-0.05463733561671763,-0.004146583506625891,0.014813482026301871,-0.04627304179349966,-0.005039638215133627,-31.072785735165155,-40.95293773750365,24.524992692195262
1700081826,0.9926189164831803,-0.05463733561671763,-0.004146583506625891,0.014813482026301871,-0.04627304179349966,-0.005039638215133627,-31.482022800350773,-40.879859690149075,24.291142940660627
1700081826,0.9932287081753313,-0.05561300232415902,-0.0053661668909276245,0.016187928812247405,-0.04596760917440065,-0.004276056667386108,-30.736626717334115,-40.93832212803274,24.14498684595148
1700081826,0.9932287081753313,-0.05561300232415902,-0.0053661668909276245,0.016187928812247405,-0.04596760917440065,-0.004276056667386108,-31.145863782519733,-40.39754457760888,24.437299035369776
1700081826,0.9945702498980631,-0.053539710570846076,-0.007317500305810398,0.017409659288643436,-0.04505131131710363,-0.005345070834232635,-31.072785735165155,-40.61677871967261,25.241157556270092
1700081826,0.9945702498980631,-0.053539710570846076,-0.007317500305810398,0.017409659288643436,-0.04505131131710363,-0.005345070834232635,-31.043554516223328,-40.96755334697457,24.554223911137093
1700081826,0.9938384998674822,-0.053539710570846076,-0.0063418335983690104,0.013591751549905842,-0.04306599929296008,-0.005345070834232635,-31.511254019292608,-40.95293773750365,24.612686349020755
1700081826,0.9938384998674822,-0.053539710570846076,-0.0063418335983690104,0.013591751549905842,-0.04306599929296008,-0.005345070834232635,-31.17509500146156,-40.86524408067817,25.065770242619116
1700081826,0.9929847914984707,-0.05500321063200815,-0.0045124585219164124,0.010995574287564275,-0.04016438941151951,-0.004734205596034618,-31.43817597193803,-40.879859690149075,24.86115171002631
1700081826,0.9929847914984707,-0.05500321063200815,-0.0045124585219164124,0.010995574287564275,-0.04016438941151951,-0.004734205596034618,-31.64279450453084,-40.631394329143525,25.197310727857353
1700081826,0.9922530414678898,-0.05597887733944954,-0.0039026668297655453,0.014966198335851376,-0.039095375244672985,-0.0032070425005395805,-31.672025723472668,-40.879859690149075,24.218064893306053
1700081826,0.9922530414678898,-0.05597887733944954,-0.0039026668297655453,0.014966198335851376,-0.039095375244672985,-0.0032070425005395805,-31.1166325635779,-40.92370651856182,24.30575855013154
1700081826,0.9926189164831803,-0.05475929395514781,-0.0032928751376146786,0.020005836550985003,-0.040011673101970006,-0.0015271630954950383,-31.496638409821692,-40.95293773750365,23.560362467114878
1700081826,0.9926189164831803,-0.05475929395514781,-0.0032928751376146786,0.020005836550985003,-0.040011673101970006,-0.0015271630954950383,-30.985092078339665,-40.67524115755627,23.9695995323005
1700081826,0.9926189164831803,-0.05378362724770642,-0.002561125107033639,0.019700403931885994,-0.04046982203061852,-0.0004581489286485115,-31.37971353405437,-41.04063139432914,24.495761473253435
1700081826,0.9926189164831803,-0.05378362724770642,-0.002561125107033639,0.019700403931885994,-0.04046982203061852,-0.0004581489286485115,-31.61356328558901,-40.68985676702718,24.583455130078924
1700081826,0.9921310831294597,-0.055369085647298664,-0.0032928751376146786,0.01435533309765336,-0.04230241774521256,0.0,-31.555100847705347,-40.777550423852674,24.378836597486114
1700081826,0.9921310831294597,-0.055369085647298664,-0.0032928751376146786,0.011453723216212788,-0.04276056667386108,-0.0004581489286485115,-31.204326220403388,-41.40602163110202,24.9488453668518
1700081826,0.9917652081141691,-0.05732041906218144,-0.0026830834454638123,0.011453723216212788,-0.04276056667386108,-0.0004581489286485115,-30.970476468868753,-40.95293773750365,25.211926337328265
1700081826,0.9918871664525993,-0.05817412743119265,-0.003658750152905199,0.012980886311707827,-0.044898595007554123,-0.0003054326190990077,-31.1166325635779,-40.89447529961999,24.86115171002631
1700081826,0.9918871664525993,-0.05817412743119265,-0.003658750152905199,0.012980886311707827,-0.044898595007554123,-0.0003054326190990077,-31.087401344636074,-40.879859690149075,24.758842443729904
1700081826,0.9922530414678898,-0.058418044108053006,-0.002927000122324159,0.01679879405044542,-0.04673119072214818,-0.0015271630954950383,-31.73048816135633,-40.39754457760888,24.890382928968137
1700081826,0.9922530414678898,-0.058418044108053006,-0.002927000122324159,0.01679879405044542,-0.04673119072214818,-0.0015271630954950383,-31.803566208710905,-40.96755334697457,24.817304881613563
1700081826,0.9931067498369011,-0.05732041906218144,-0.0032928751376146786,0.018631389765039467,-0.047494772269895694,-0.0035124751196385882,-31.482022800350773,-40.61677871967261,24.74422683425899
1700081826,0.9931067498369011,-0.05732041906218144,-0.0032928751376146786,0.018631389765039467,-0.047494772269895694,-0.0035124751196385882,-31.26278865828705,-40.85062847120725,24.53960830166618
1700081826,0.9929847914984707,-0.056100835677879705,-0.003658750152905199,0.017867808217291947,-0.04810563750809371,-0.005955936072430649,-31.233557439345223,-40.806781642794505,24.890382928968137
1700081826,0.9929847914984707,-0.056100835677879705,-0.003658750152905199,0.017867808217291947,-0.04810563750809371,-0.005955936072430649,-31.37971353405437,-40.95293773750365,25.109617071031863
1700081826,0.9938384998674822,-0.05561300232415902,-0.005122250214067278,0.016493361431346415,-0.047952921198544204,-0.007330382858376184,-31.043554516223328,-40.631394329143525,25.02192341420637
1700081826,0.9938384998674822,-0.05561300232415902,-0.005122250214067278,0.016493361431346415,-0.047952921198544204,-0.007330382858376184,-30.985092078339665,-41.230634317451035,24.174218064893303
1700081826,0.9934726248521917,-0.05597887733944954,-0.005122250214067278,0.016646077740895916,-0.04673119072214818,-0.008704829644321718,-32.0958783981292,-40.86524408067817,23.545746857643966
1700081826,0.9934726248521917,-0.05597887733944954,-0.005122250214067278,0.016646077740895916,-0.04673119072214818,-0.008704829644321718,-31.277404267757962,-41.18678748903829,23.9695995323005
1700081826,0.9935945831906218,-0.055369085647298664,-0.005975958583078491,0.017256942979093935,-0.044898595007554123,-0.008704829644321718,-31.672025723472668,-41.084478222741886,23.838059047062263
1700081826,0.9935945831906218,-0.055369085647298664,-0.005975958583078491,0.017256942979093935,-0.044898595007554123,-0.008704829644321718,-31.745103770827242,-40.76293481438176,24.904998538439052
1700081826,0.9931067498369011,-0.05512516897043832,-0.005854000244648318,0.018173240836390957,-0.04352414822160859,-0.008552113334772215,-31.335866705641624,-41.27448114586378,24.188833674364222
1700081826,0.9931067498369011,-0.05512516897043832,-0.005854000244648318,0.018936822384138473,-0.04169155250701455,-0.005955936072430649,-31.306635486699797,-40.68985676702718,24.378836597486114
1700081826,0.9932287081753313,-0.05475929395514781,-0.005000291875637105,0.018936822384138473,-0.04169155250701455,-0.005955936072430649,-31.511254019292608,-40.879859690149075,24.188833674364222
1700081826,0.9932287081753313,-0.05475929395514781,-0.005000291875637105,0.019089538693687978,-0.04138611988791554,-0.003665191429188092,-31.569716457176266,-41.31832797427653,24.24729611224788
1700081826,0.99237499980632,-0.05390558558613659,-0.004024625168195718,0.019089538693687978,-0.04138611988791554,-0.003665191429188092,-31.715872551885415,-41.05524700380006,25.25577316574101
1700081826,0.9934726248521917,-0.05427146060142711,-0.003414833476044852,0.019242255003237483,-0.04138611988791554,-0.002138028333693054,-31.17509500146156,-40.74831920491084,23.852674656533175
1700081826,0.9934726248521917,-0.05427146060142711,-0.003414833476044852,0.019242255003237483,-0.04138611988791554,-0.002138028333693054,-31.145863782519733,-40.92370651856182,24.013446360713242
1700081826,0.9924969581447503,-0.05414950226299693,-0.002927000122324159,0.016493361431346415,-0.04153883619746504,-0.0004581489286485115,-31.16047939199065,-41.24524992692195,24.408067816427945
1700081826,0.9924969581447503,-0.05414950226299693,-0.002927000122324159,0.016493361431346415,-0.04153883619746504,-0.0004581489286485115,-31.218941829874307,-41.02601578485823,24.27652733118971
1700081826,0.9928628331600408,-0.05512516897043832,-0.0028050417838939856,0.014049900478554353,-0.04245513405476207,0.0003054326190990077,-31.16047939199065,-40.909090909090914,24.86115171002631
1700081826,0.9928628331600408,-0.05512516897043832,-0.0028050417838939856,0.014049900478554353,-0.04245513405476207,0.0003054326190990077,-31.42356036246711,-40.777550423852674,23.911137094416837
1700081826,0.9920091247910295,-0.05756433573904179,-0.003536791814475025,0.012828170002158322,-0.04321871560250958,0.0003054326190990077,-31.715872551885415,-41.02601578485823,25.03653902367729
1700081826,0.9920091247910295,-0.05756433573904179,-0.003536791814475025,0.012828170002158322,-0.04321871560250958,0.0003054326190990077,-31.248173048816135,-41.084478222741886,23.750365390236773
1700081826,0.9915212914373088,-0.05793021075433231,-0.0031709167991845052,0.01511891464540088,-0.04413501345980661,0.0,-31.102016954106986,-40.93832212803274,24.495761473253435
1700081826,0.9915212914373088,-0.05793021075433231,-0.0031709167991845052,0.01511891464540088,-0.04413501345980661,0.0,-31.350482315112536,-41.216018707980126,24.74422683425899
1700081826,0.9920091247910295,-0.0565886690316004,-0.0023172084301732927,0.016187928812247405,-0.04505131131710363,-0.000916297857297023,-31.46740719087986,-41.33294358374744,24.788073662671735
1700081826,0.9920091247910295,-0.0565886690316004,-0.0023172084301732927,0.016187928812247405,-0.04505131131710363,-0.000916297857297023,-31.072785735165155,-40.9967845659164,24.802689272142647
1700081826,0.9924969581447503,-0.05732041906218144,-0.0028050417838939856,0.0158824961931484,-0.045662176555301644,-0.002138028333693054,-31.365097924583456,-41.44986845951476,25.43116047939199
1700081826,0.9924969581447503,-0.05732041906218144,-0.0028050417838939856,0.0158824961931484,-0.045662176555301644,-0.002138028333693054,-31.204326220403388,-41.17217187956738,25.22654194679918
1700081826,0.9928628331600408,-0.05683258570846075,-0.0032928751376146786,0.015424347264499889,-0.047036623341247176,-0.003817907738737596,-31.335866705641624,-41.216018707980126,25.270388775211927
1700081826,0.9928628331600408,-0.05683258570846075,-0.0032928751376146786,0.014660765716752368,-0.047342055960346185,-0.005039638215133627,-31.306635486699797,-40.879859690149075,24.846536100555394
1700081826,0.9921310831294597,-0.058052169092762486,-0.0039026668297655453,0.014660765716752368,-0.047342055960346185,-0.005039638215133627,-31.365097924583456,-40.86524408067817,24.919614147909968
1700081826,0.9921310831294597,-0.058052169092762486,-0.0039026668297655453,0.014966198335851376,-0.047189339650796684,-0.00717766654882668,-30.970476468868753,-41.18678748903829,25.59193218357205
1700081826,0.9924969581447503,-0.05817412743119265,-0.003536791814475025,0.014966198335851376,-0.047189339650796684,-0.00717766654882668,-31.26278865828705,-41.14294066062555,24.77345805320082
1700081826,0.9918871664525993,-0.057442377400611616,-0.003780708491335372,0.016187928812247405,-0.0478002048889947,-0.009010262263420726,-31.598947676118094,-41.06986261327098,24.30575855013154
1700081826,0.9918871664525993,-0.057442377400611616,-0.003780708491335372,0.016187928812247405,-0.0478002048889947,-0.009010262263420726,-31.145863782519733,-41.18678748903829,24.627301958491667
1700081827,0.9934726248521917,-0.05683258570846075,-0.003536791814475025,0.018478673455489966,-0.047647488579445195,-0.010995574287564275,-31.672025723472668,-41.157556270096464,24.59807073954984
1700081827,0.9934726248521917,-0.05683258570846075,-0.003536791814475025,0.018478673455489966,-0.047647488579445195,-0.010995574287564275,-31.4089447529962,-40.92370651856182,23.98421514177141
1700081827,0.9928628331600408,-0.05488125229357798,-0.004268541845056065,0.019700403931885994,-0.0478002048889947,-0.011911872144861299,-31.335866705641624,-41.37679041216018,23.648056123940368
1700081827,0.9928628331600408,-0.05488125229357798,-0.004268541845056065,0.019700403931885994,-0.0478002048889947,-0.011911872144861299,-31.05817012569424,-41.02601578485823,24.451914644840688
1700081827,0.9932287081753313,-0.05414950226299693,-0.005122250214067278,0.018631389765039467,-0.047036623341247176,-0.011606439525762293,-31.42356036246711,-41.157556270096464,24.53960830166618
1700081827,0.9932287081753313,-0.05414950226299693,-0.005122250214067278,0.018631389765039467,-0.047036623341247176,-0.011606439525762293,-32.11049400760012,-40.85062847120725,24.87576731949722
1700081827,0.9928628331600408,-0.0552471273088685,-0.004268541845056065,0.017256942979093935,-0.046883907031697675,-0.010537425358915765,-31.52586962876352,-41.02601578485823,24.3642209880152
1700081827,0.9928628331600408,-0.0552471273088685,-0.004268541845056065,0.017256942979093935,-0.046883907031697675,-0.010537425358915765,-31.540485238234435,-41.47909967845659,24.0719087985969
1700081827,0.9929847914984707,-0.05451537727828745,-0.005000291875637105,0.019242255003237483,-0.04657847441259867,-0.008246680715673207,-30.722011107863196,-40.79216603332359,24.320374159602455
1700081827,0.9929847914984707,-0.05451537727828745,-0.005000291875637105,0.019242255003237483,-0.04657847441259867,-0.008246680715673207,-30.955860859397838,-41.12832505115463,25.416544869921076
1700081827,0.9932287081753313,-0.052807960540265035,-0.005000291875637105,0.020922134408282025,-0.04673119072214818,-0.005497787143782138,-31.32125109617071,-41.24524992692195,24.992692195264542
1700081827,0.9932287081753313,-0.052807960540265035,-0.005000291875637105,0.020922134408282025,-0.04673119072214818,-0.005497787143782138,-30.970476468868753,-41.50833089739842,24.641917567962583
1700081827,0.9933506665137612,-0.052564043863404686,-0.0053661668909276245,0.019242255003237483,-0.04550946024575214,-0.0024434609527920616,-30.575855013154047,-41.50833089739842,24.27652733118971
1700081827,0.9933506665137612,-0.052564043863404686,-0.0053661668909276245,0.019242255003237483,-0.04550946024575214,-0.0024434609527920616,-31.482022800350773,-41.49371528792751,24.437299035369776
1700081827,0.9931067498369011,-0.052564043863404686,-0.005122250214067278,0.016493361431346415,-0.0439822971502571,0.001069014166846527,-31.540485238234435,-41.55217772581117,24.13037123648056
1700081827,0.9931067498369011,-0.052564043863404686,-0.005122250214067278,0.016493361431346415,-0.0439822971502571,0.001069014166846527,-31.277404267757962,-38.10289389067524,24.320374159602455
1700081827,0.9933506665137612,-0.05427146060142711,-0.005122250214067278,0.013744467859455345,-0.04230241774521256,0.004276056667386108,-31.29201987722888,-41.3914060216311,24.378836597486114
1700081827,0.9933506665137612,-0.05427146060142711,-0.005122250214067278,0.013744467859455345,-0.04230241774521256,0.004276056667386108,-30.86816720257235,-41.65448699210757,24.96346097632271
1700081827,0.9932287081753313,-0.057076502385321096,-0.006463791936799185,0.014049900478554353,-0.04123340357836603,0.005039638215133627,-31.42356036246711,-41.34755919321836,25.153463899444606
1700081827,0.9932287081753313,-0.057076502385321096,-0.006463791936799185,0.015729779883598895,-0.03940080786377199,0.004428772976935611,-31.394329143525283,-41.50833089739842,25.007307804735458
1700081827,0.9929847914984707,-0.05683258570846075,-0.005122250214067278,0.015729779883598895,-0.03940080786377199,0.004428772976935611,-31.935106693949137,-41.69833382052032,24.203449283835134
1700081827,0.9929847914984707,-0.05683258570846075,-0.005122250214067278,0.014202616788103856,-0.038026361077826455,0.002901609881440573,-31.672025723472668,-41.0990938322128,24.495761473253435
1700081827,0.9920091247910295,-0.056710627370030575,-0.003658750152905199,0.014202616788103856,-0.038026361077826455,0.002901609881440573,-31.803566208710905,-41.50833089739842,24.831920491084478
1700081827,0.99237499980632,-0.05951566915392456,-0.001707416738022426,0.012522737383059314,-0.03787364476827695,0.0012217304763960308,-31.78895059923999,-41.464484068985676,24.831920491084478
1700081827,0.99237499980632,-0.05951566915392456,-0.001707416738022426,0.012522737383059314,-0.03787364476827695,0.0012217304763960308,-31.29201987722888,-40.67524115755627,25.59193218357205
1700081827,0.9912773747604484,-0.05963762749235474,-0.0020732917533129456,0.015424347264499889,-0.03955352417332149,-0.0007635815477475192,-31.803566208710905,-40.95293773750365,24.758842443729904
1700081827,0.9912773747604484,-0.05963762749235474,-0.0020732917533129456,0.015424347264499889,-0.03955352417332149,-0.0007635815477475192,-31.482022800350773,-41.50833089739842,24.74422683425899
1700081827,0.9911554164220183,-0.05878391912334352,-0.0018293750764525995,0.018173240836390957,-0.04169155250701455,-0.003665191429188092,-31.29201987722888,-41.02601578485823,24.758842443729904
1700081827,0.9911554164220183,-0.05878391912334352,-0.0018293750764525995,0.018173240836390957,-0.04169155250701455,-0.003665191429188092,-31.949722303420053,-40.602163110201694,24.978076585793627
1700081827,0.9909114997451579,-0.059027835800203876,-0.000853708369011213,0.01756237559819294,-0.04520402762665313,-0.006566801310628665,-31.759719380298158,-41.50833089739842,25.051154633148204
1700081827,0.9909114997451579,-0.059027835800203876,-0.000853708369011213,0.01756237559819294,-0.04520402762665313,-0.006566801310628665,-31.73048816135633,-41.084478222741886,25.095001461560944
1700081827,0.9918871664525993,-0.05951566915392456,-0.0014635000611620795,0.01634064512179691,-0.04856378643674222,-0.009773843811168246,-31.64279450453084,-37.51826951183864,25.02192341420637
1700081827,0.9918871664525993,-0.05951566915392456,-0.0014635000611620795,0.01634064512179691,-0.04856378643674222,-0.009773843811168246,-31.496638409821692,-40.777550423852674,25.197310727857353
1700081827,0.9916432497757389,-0.05768629407747196,-0.0026830834454638123,0.017409659288643436,-0.05070181477043527,-0.012675453692608817,-31.32125109617071,-41.30371236480561,24.758842443729904
1700081827,0.9916432497757389,-0.05768629407747196,-0.0026830834454638123,0.017409659288643436,-0.05070181477043527,-0.012675453692608817,-31.584332066647182,-41.18678748903829,25.007307804735458
1700081827,0.9928628331600408,-0.05597887733944954,-0.002927000122324159,0.018784106074588972,-0.052228977865930316,-0.014508049407202865,-31.394329143525283,-41.37679041216018,24.68576439637533
1700081827,0.9928628331600408,-0.05597887733944954,-0.002927000122324159,0.018784106074588972,-0.052228977865930316,-0.014508049407202865,-31.701256942414496,-41.11370944168372,24.96346097632271
1700081827,0.9935945831906218,-0.05463733561671763,-0.004268541845056065,0.018936822384138473,-0.05238169417547982,-0.014508049407202865,-31.482022800350773,-41.04063139432914,24.086524408067817
1700081827,0.9935945831906218,-0.05463733561671763,-0.004268541845056065,0.018173240836390957,-0.05238169417547982,-0.012217304763960306,-31.37971353405437,-40.71908798596902,24.627301958491667
1700081827,0.9931067498369011,-0.052807960540265035,-0.005000291875637105,0.018173240836390957,-0.05238169417547982,-0.012217304763960306,-31.26278865828705,-41.17217187956738,24.59807073954984
1700081827,0.9931067498369011,-0.052807960540265035,-0.005000291875637105,0.016646077740895916,-0.05085453107998478,-0.009621127501618741,-31.511254019292608,-40.74831920491084,24.437299035369776
1700081827,0.9927408748216106,-0.053173835555555556,-0.0063418335983690104,0.016646077740895916,-0.05085453107998478,-0.009621127501618741,-31.189710610932476,-40.68985676702718,25.153463899444606
1700081827,0.9927408748216106,-0.053173835555555556,-0.006097916921508665,0.017715091907742442,-0.04856378643674222,-0.006414085001079161,-31.935106693949137,-40.85062847120725,24.56883952060801
1700081827,0.9940824165443425,-0.053173835555555556,-0.006097916921508665,0.017715091907742442,-0.04856378643674222,-0.006414085001079161,-31.77433498976907,-41.30371236480561,25.16807950891552
1700081827,0.9940824165443425,-0.052807960540265035,-0.006829666952089704,0.018478673455489966,-0.04642575810304917,-0.0030543261909900766,-31.277404267757962,-41.24524992692195,25.299619994153755
1700081827,0.9940824165443425,-0.052807960540265035,-0.006829666952089704,0.018478673455489966,-0.04642575810304917,-0.0030543261909900766,-31.189710610932476,-41.62525577316574,24.627301958491667
1700081827,0.9939604582059122,-0.0534177522324159,-0.005732041906218145,0.016493361431346415,-0.0438295808407076,-0.0007635815477475192,-31.028938906752412,-41.55217772581117,24.934229757380884
1700081827,0.9939604582059122,-0.0534177522324159,-0.005732041906218145,0.016493361431346415,-0.0438295808407076,-0.0007635815477475192,-31.37971353405437,-41.566793335282085,24.831920491084478
1700081827,0.9931067498369011,-0.05451537727828745,-0.005610083567787971,0.01511891464540088,-0.04123340357836603,0.0007635815477475192,-31.862028646594563,-41.157556270096464,25.080385852090032
1700081827,0.9931067498369011,-0.05451537727828745,-0.005610083567787971,0.01511891464540088,-0.04123340357836603,0.0007635815477475192,-31.29201987722888,-41.27448114586378,24.729611224788073
1700081827,0.9926189164831803,-0.05549104398572884,-0.004390500183486238,0.01435533309765336,-0.04016438941151951,0.0013744467859455344,-31.32125109617071,-41.42063724057293,24.349605378544283
1700081827,0.9926189164831803,-0.05549104398572884,-0.004390500183486238,0.01435533309765336,-0.04016438941151951,0.0013744467859455344,-31.189710610932476,-41.50833089739842,25.401929260450164
1700081827,0.9921310831294597,-0.05732041906218144,-0.0032928751376146786,0.015271630954950384,-0.039706240482871,0.002138028333693054,-31.072785735165155,-41.30371236480561,24.788073662671735
1700081827,0.9921310831294597,-0.05732041906218144,-0.0032928751376146786,0.015271630954950384,-0.039706240482871,0.002138028333693054,-31.540485238234435,-41.04063139432914,24.451914644840688
1700081827,0.99237499980632,-0.05793021075433231,-0.0023172084301732927,0.01679879405044542,-0.040317105721069016,0.0012217304763960308,-32.03741596024554,-41.14294066062555,23.823443437591347
1700081827,0.99237499980632,-0.05793021075433231,-0.0023172084301732927,0.01679879405044542,-0.040317105721069016,0.0012217304763960308,-31.028938906752412,-41.230634317451035,24.641917567962583
1700081827,0.9922530414678898,-0.05732041906218144,-0.0023172084301732927,0.01832595714594046,-0.04169155250701455,-0.0004581489286485115,-30.926629640456007,-41.14294066062555,24.10114001753873
1700081827,0.9922530414678898,-0.05732041906218144,-0.0023172084301732927,0.01832595714594046,-0.04260785036431157,-0.0022907446432425577,-31.73048816135633,-40.73370359543993,23.823443437591347
1700081827,0.9918871664525993,-0.057198460723751274,-0.002195250091743119,0.01634064512179691,-0.04260785036431157,-0.0022907446432425577,-31.29201987722888,-40.89447529961999,24.890382928968137
1700081827,0.9918871664525993,-0.057198460723751274,-0.002195250091743119,0.01389718416900485,-0.04428772976935611,-0.004581489286485115,-31.745103770827242,-41.25986553639287,24.349605378544283
1700081827,0.99237499980632,-0.05780825241590213,-0.0031709167991845052,0.01389718416900485,-0.04428772976935611,-0.004581489286485115,-31.511254019292608,-41.435252850043845,24.831920491084478
1700081827,0.99237499980632,-0.05780825241590213,-0.0031709167991845052,0.014049900478554353,-0.045662176555301644,-0.006261368691529657,-31.64279450453084,-41.06986261327098,24.904998538439052
1700081827,0.9916432497757389,-0.058540002446483184,-0.0019513334148827726,0.014049900478554353,-0.045662176555301644,-0.006261368691529657,-31.043554516223328,-41.44986845951476,23.925752703887753
1700081827,0.9911554164220183,-0.05914979413863404,-0.0032928751376146786,0.016646077740895916,-0.047036623341247176,-0.007635815477475192,-31.394329143525283,-41.37679041216018,23.896521484945925
1700081827,0.9911554164220183,-0.05914979413863404,-0.0032928751376146786,0.016646077740895916,-0.047036623341247176,-0.007635815477475192,-31.4089447529962,-41.18678748903829,23.911137094416837
1700081827,0.9921310831294597,-0.05695454404689092,-0.0031709167991845052,0.0198531202414355,-0.048411070127192715,-0.008552113334772215,-31.37971353405437,-41.37679041216018,24.524992692195262
1700081827,0.9921310831294597,-0.05695454404689092,-0.0031709167991845052,0.0198531202414355,-0.048411070127192715,-0.008552113334772215,-30.882782812043263,-41.362174802689275,24.013446360713242
1700081827,0.9929847914984707,-0.055369085647298664,-0.0032928751376146786,0.020158552860534508,-0.048869219055841226,-0.00916297857297023,-31.204326220403388,-41.49371528792751,24.013446360713242
1700081827,0.9929847914984707,-0.055369085647298664,-0.0032928751376146786,0.020158552860534508,-0.048869219055841226,-0.00916297857297023,-31.072785735165155,-41.30371236480561,24.51037708272435
1700081827,0.9931067498369011,-0.055369085647298664,-0.004390500183486238,0.016951510359994926,-0.049174651674940235,-0.00992656012071775,-31.42356036246711,-41.30371236480561,24.48114586378252
1700081827,0.9931067498369011,-0.055369085647298664,-0.004390500183486238,0.016951510359994926,-0.049174651674940235,-0.00992656012071775,-31.16047939199065,-41.230634317451035,23.896521484945925
1700081827,0.9924969581447503,-0.05585691900101936,-0.004878333537206931,0.014966198335851376,-0.049174651674940235,-0.00992656012071775,-31.496638409821692,-41.11370944168372,24.788073662671735
1700081827,0.9924969581447503,-0.05585691900101936,-0.004878333537206931,0.014966198335851376,-0.049174651674940235,-0.00992656012071775,-31.832797427652732,-41.27448114586378,23.721134171294946
1700081827,0.9933506665137612,-0.05585691900101936,-0.005732041906218145,0.0158824961931484,-0.04902193536539073,-0.009010262263420726,-31.511254019292608,-41.40602163110202,23.80882782812043
1700081827,0.9933506665137612,-0.05585691900101936,-0.005732041906218145,0.0158824961931484,-0.04902193536539073,-0.009010262263420726,-31.61356328558901,-40.71908798596902,25.241157556270092
1700081827,0.9928628331600408,-0.05488125229357798,-0.005000291875637105,0.017715091907742442,-0.0478002048889947,-0.007330382858376184,-31.394329143525283,-40.95293773750365,24.188833674364222
1700081827,0.9928628331600408,-0.05488125229357798,-0.005000291875637105,0.017715091907742442,-0.0478002048889947,-0.007330382858376184,-31.64279450453084,-40.982168956445484,24.408067816427945
1700081827,0.993716541529052,-0.05402754392456677,-0.004634416860346585,0.017256942979093935,-0.04657847441259867,-0.005650503453331642,-31.935106693949137,-41.06986261327098,24.846536100555394
1700081827,0.993716541529052,-0.05402754392456677,-0.004634416860346585,0.017256942979093935,-0.04657847441259867,-0.005650503453331642,-31.365097924583456,-40.9967845659164,25.16807950891552
1700081827,0.9928628331600408,-0.05439341893985729,-0.005975958583078491,0.01679879405044542,-0.04596760917440065,-0.004276056667386108,-31.204326220403388,-41.12832505115463,25.13884828997369
1700081827,0.9928628331600408,-0.05439341893985729,-0.005975958583078491,0.01679879405044542,-0.04596760917440065,-0.004276056667386108,-31.189710610932476,-41.17217187956738,24.934229757380884
1700081827,0.9932287081753313,-0.05414950226299693,-0.0063418335983690104,0.016493361431346415,-0.04413501345980661,-0.0032070425005395805,-31.52586962876352,-41.157556270096464,24.451914644840688
1700081827,0.9932287081753313,-0.05414950226299693,-0.0063418335983690104,0.016493361431346415,-0.04337143191205909,-0.002596177262341565,-30.926629640456007,-40.67524115755627,24.96346097632271
1700081827,0.9935945831906218,-0.05500321063200815,-0.006463791936799185,0.01557706357404939,-0.04337143191205909,-0.002596177262341565,-31.701256942414496,-41.05524700380006,24.68576439637533
1700081827,0.9935945831906218,-0.05500321063200815,-0.006463791936799185,0.014966198335851376,-0.04169155250701455,-0.0016798794050445422,-31.657410114001756,-40.67524115755627,24.56883952060801
1700081827,0.9939604582059122,-0.05597887733944954,-0.004634416860346585,0.014966198335851376,-0.04169155250701455,-0.0016798794050445422,-31.87664425606548,-41.0990938322128,24.349605378544283
1700081827,0.9928628331600408,-0.05585691900101936,-0.002561125107033639,0.015271630954950384,-0.04046982203061852,-0.000916297857297023,-31.686641332943584,-44.57760888629056,24.408067816427945
1700081827,0.9928628331600408,-0.05585691900101936,-0.002561125107033639,0.015271630954950384,-0.04046982203061852,-0.000916297857297023,-31.569716457176266,-41.24524992692195,23.7795966091786
1700081827,0.9920091247910295,-0.057076502385321096,-0.0030489584607543323,0.01679879405044542,-0.04138611988791554,-0.0003054326190990077,-31.657410114001756,-40.96755334697457,24.028061970184154
1700081827,0.9920091247910295,-0.057076502385321096,-0.0030489584607543323,0.01679879405044542,-0.04138611988791554,-0.0003054326190990077,-31.131248173048814,-41.362174802689275,24.51037708272435
1700081827,0.9922530414678898,-0.0565886690316004,-0.005122250214067278,0.018784106074588972,-0.04214970143566306,-0.0012217304763960308,-31.29201987722888,-41.53756211634025,24.291142940660627
1700081827,0.9922530414678898,-0.0565886690316004,-0.005122250214067278,0.018784106074588972,-0.04214970143566306,-0.0012217304763960308,-31.204326220403388,-40.89447529961999,24.56883952060801
1700081827,0.9922530414678898,-0.05512516897043832,-0.004268541845056065,0.01634064512179691,-0.04153883619746504,-0.0022907446432425577,-31.803566208710905,-40.9967845659164,24.115755627009648
1700081827,0.9922530414678898,-0.05512516897043832,-0.004268541845056065,0.01634064512179691,-0.04153883619746504,-0.0022907446432425577,-31.452791581408945,-41.011400175387315,24.24729611224788
1700081827,0.99237499980632,-0.05683258570846075,-0.002561125107033639,0.012217304763960306,-0.04123340357836603,-0.0032070425005395805,-31.935106693949137,-40.95293773750365,24.96346097632271
1700081827,0.99237499980632,-0.05683258570846075,-0.002561125107033639,0.012217304763960306,-0.04123340357836603,-0.0032070425005395805,-31.964337912890965,-41.40602163110202,24.48114586378252
1700081827,0.9920091247910295,-0.0589058774617737,-0.002195250091743119,0.012828170002158322,-0.04169155250701455,-0.0030543261909900766,-31.072785735165155,-41.47909967845659,25.13884828997369
1700081828,0.9920091247910295,-0.0589058774617737,-0.002195250091743119,0.012828170002158322,-0.04169155250701455,-0.0030543261909900766,-31.43817597193803,-41.3914060216311,25.767319497223035
1700081828,0.9915212914373088,-0.05780825241590213,-0.0026830834454638123,0.018020524526841452,-0.04444044607890562,-0.003817907738737596,-31.46740719087986,-40.909090909090914,25.738088278281207
1700081828,0.9915212914373088,-0.05780825241590213,-0.0026830834454638123,0.018020524526841452,-0.04444044607890562,-0.003817907738737596,-31.102016954106986,-40.95293773750365,25.02192341420637
1700081828,0.9928628331600408,-0.056344752354740055,-0.0020732917533129456,0.02153299964648004,-0.04657847441259867,-0.004276056667386108,-31.657410114001756,-41.18678748903829,25.182695118386437
1700081828,0.9928628331600408,-0.056344752354740055,-0.0020732917533129456,0.02153299964648004,-0.04657847441259867,-0.005345070834232635,-32.13972522654195,-41.362174802689275,24.30575855013154
1700081828,0.9924969581447503,-0.05561300232415902,-0.0032928751376146786,0.018631389765039467,-0.047494772269895694,-0.005345070834232635,-31.46740719087986,-41.50833089739842,24.59807073954984
1700081828,0.9924969581447503,-0.05561300232415902,-0.0032928751376146786,0.014660765716752368,-0.048258353817643214,-0.006719517620178169,-31.584332066647182,-37.43057585501315,24.39345220695703
1700081828,0.9927408748216106,-0.05646671069317023,-0.004390500183486238,0.014660765716752368,-0.048258353817643214,-0.006719517620178169,-31.189710610932476,-41.04063139432914,24.261911721718796
1700081828,0.9927408748216106,-0.05646671069317023,-0.004390500183486238,0.01435533309765336,-0.047647488579445195,-0.006872233929727673,-31.43817597193803,-40.982168956445484,25.065770242619116
1700081828,0.9927408748216106,-0.05646671069317023,-0.004756375198776758,0.01435533309765336,-0.047647488579445195,-0.006872233929727673,-31.61356328558901,-41.04063139432914,24.831920491084478
1700081828,0.9929847914984707,-0.05585691900101936,-0.0054881252293577975,0.017256942979093935,-0.047342055960346185,-0.0070249502392771765,-31.701256942414496,-41.02601578485823,24.408067816427945
1700081828,0.9929847914984707,-0.05585691900101936,-0.0054881252293577975,0.017256942979093935,-0.047342055960346185,-0.0070249502392771765,-31.43817597193803,-41.362174802689275,23.633440514469452
1700081828,0.9931067498369011,-0.055734960662589185,-0.005000291875637105,0.019089538693687978,-0.046883907031697675,-0.006566801310628665,-31.043554516223328,-44.6214557147033,24.612686349020755
1700081828,0.9931067498369011,-0.055734960662589185,-0.005000291875637105,0.019089538693687978,-0.046883907031697675,-0.006566801310628665,-31.496638409821692,-41.18678748903829,24.13037123648056
1700081828,0.9924969581447503,-0.05512516897043832,-0.0045124585219164124,0.018631389765039467,-0.045662176555301644,-0.005345070834232635,-31.4089447529962,-41.34755919321836,24.56883952060801
1700081828,0.9924969581447503,-0.05512516897043832,-0.0045124585219164124,0.018631389765039467,-0.045662176555301644,-0.005345070834232635,-31.17509500146156,-41.216018707980126,23.648056123940368
1700081828,0.9922530414678898,-0.05427146060142711,-0.0039026668297655453,0.01710422666954443,-0.04505131131710363,-0.004581489286485115,-31.350482315112536,-41.435252850043845,24.218064893306053
1700081828,0.9922530414678898,-0.05427146060142711,-0.0039026668297655453,0.01710422666954443,-0.04505131131710363,-0.004581489286485115,-31.4089447529962,-41.37679041216018,24.320374159602455
1700081828,0.9934726248521917,-0.056100835677879705,-0.005000291875637105,0.01679879405044542,-0.04474587869800463,-0.0033597588100890844,-31.511254019292608,-41.0990938322128,23.911137094416837
1700081828,0.9934726248521917,-0.056100835677879705,-0.005000291875637105,0.01679879405044542,-0.04474587869800463,-0.0033597588100890844,-31.29201987722888,-41.435252850043845,23.750365390236773
1700081828,0.9921310831294597,-0.05597887733944954,-0.005122250214067278,0.016951510359994926,-0.04413501345980661,-0.0024434609527920616,-31.496638409821692,-41.157556270096464,23.721134171294946
1700081828,0.9921310831294597,-0.05597887733944954,-0.005122250214067278,0.016951510359994926,-0.04413501345980661,-0.0024434609527920616,-31.350482315112536,-41.11370944168372,24.188833674364222
1700081828,0.9929847914984707,-0.056344752354740055,-0.004146583506625891,0.01634064512179691,-0.0436768645311581,-0.002901609881440573,-31.745103770827242,-41.65448699210757,24.042677579655074
1700081828,0.9929847914984707,-0.056344752354740055,-0.004146583506625891,0.01634064512179691,-0.0436768645311581,-0.002901609881440573,-31.42356036246711,-41.53756211634025,24.466530254311607
1700081828,0.9932287081753313,-0.05683258570846075,-0.004268541845056065,0.015424347264499889,-0.04321871560250958,-0.0032070425005395805,-31.496638409821692,-41.3914060216311,24.13037123648056
1700081828,0.9932287081753313,-0.05683258570846075,-0.004268541845056065,0.01634064512179691,-0.04306599929296008,-0.0032070425005395805,-31.964337912890965,-41.6837182110494,24.174218064893303
1700081828,0.9924969581447503,-0.05646671069317023,-0.0045124585219164124,0.01634064512179691,-0.04306599929296008,-0.0032070425005395805,-31.482022800350773,-41.82987430575855,23.80882782812043
1700081828,0.9924969581447503,-0.05646671069317023,-0.0045124585219164124,0.016951510359994926,-0.04352414822160859,-0.002901609881440573,-31.584332066647182,-41.27448114586378,23.662671733411283
1700081828,0.9929847914984707,-0.05561300232415902,-0.0023172084301732927,0.016951510359994926,-0.04352414822160859,-0.002901609881440573,-31.46740719087986,-41.30371236480561,24.218064893306053
1700081828,0.9929847914984707,-0.05732041906218144,-0.002927000122324159,0.017256942979093935,-0.04444044607890562,-0.0035124751196385882,-31.4089447529962,-41.47909967845659,24.15960245542239
1700081828,0.9915212914373088,-0.05732041906218144,-0.002927000122324159,0.017256942979093935,-0.04444044607890562,-0.0035124751196385882,-31.62817889505992,-41.2890967553347,25.182695118386437
1700081828,0.9920091247910295,-0.05768629407747196,-0.003658750152905199,0.01634064512179691,-0.04520402762665313,-0.004581489286485115,-31.511254019292608,-41.11370944168372,24.68576439637533
1700081828,0.9920091247910295,-0.05768629407747196,-0.003658750152905199,0.01634064512179691,-0.04520402762665313,-0.004581489286485115,-31.46740719087986,-41.230634317451035,25.095001461560944
1700081828,0.9920091247910295,-0.05768629407747196,-0.003414833476044852,0.01511891464540088,-0.04657847441259867,-0.005803219762881146,-31.189710610932476,-41.230634317451035,24.042677579655074
1700081828,0.9920091247910295,-0.05768629407747196,-0.003414833476044852,0.01511891464540088,-0.04657847441259867,-0.005803219762881146,-31.511254019292608,-40.86524408067817,25.03653902367729
1700081828,0.9921310831294597,-0.058052169092762486,-0.0031709167991845052,0.015424347264499889,-0.047342055960346185,-0.007330382858376184,-31.569716457176266,-41.2890967553347,25.13884828997369
1700081828,0.9921310831294597,-0.058052169092762486,-0.0031709167991845052,0.015424347264499889,-0.047342055960346185,-0.007330382858376184,-31.26278865828705,-37.54750073078048,23.881905875475006
1700081828,0.9926189164831803,-0.05683258570846075,-0.003536791814475025,0.017867808217291947,-0.047952921198544204,-0.008246680715673207,-31.84741303712365,-40.82139725226542,24.758842443729904
1700081828,0.9926189164831803,-0.05683258570846075,-0.003536791814475025,0.017867808217291947,-0.047952921198544204,-0.008246680715673207,-31.394329143525283,-40.806781642794505,24.59807073954984
1700081828,0.99237499980632,-0.05561300232415902,-0.004268541845056065,0.019089538693687978,-0.04856378643674222,-0.008857545953871221,-31.584332066647182,-41.04063139432914,24.188833674364222
1700081828,0.99237499980632,-0.05561300232415902,-0.004268541845056065,0.019089538693687978,-0.04856378643674222,-0.008857545953871221,-31.745103770827242,-40.836012861736336,24.495761473253435
1700081828,0.9928628331600408,-0.05500321063200815,-0.004268541845056065,0.018478673455489966,-0.04810563750809371,-0.009010262263420726,-31.52586962876352,-41.55217772581117,24.758842443729904
1700081828,0.9928628331600408,-0.05500321063200815,-0.004268541845056065,0.018478673455489966,-0.04810563750809371,-0.009010262263420726,-31.555100847705347,-40.836012861736336,24.51037708272435
1700081828,0.9922530414678898,-0.055369085647298664,-0.004756375198776758,0.017867808217291947,-0.047952921198544204,-0.008093964406123703,-31.701256942414496,-40.909090909090914,23.9695995323005
1700081828,0.9922530414678898,-0.055369085647298664,-0.004756375198776758,0.017867808217291947,-0.047952921198544204,-0.008093964406123703,-31.394329143525283,-40.93832212803274,24.086524408067817
1700081828,0.9931067498369011,-0.05488125229357798,-0.0039026668297655453,0.017409659288643436,-0.04657847441259867,-0.006414085001079161,-31.832797427652732,-41.52294650686933,24.0719087985969
1700081828,0.9931067498369011,-0.05488125229357798,-0.0039026668297655453,0.017409659288643436,-0.04657847441259867,-0.006414085001079161,-31.145863782519733,-41.47909967845659,24.188833674364222
1700081828,0.9929847914984707,-0.0552471273088685,-0.004390500183486238,0.018478673455489966,-0.04596760917440065,-0.005803219762881146,-31.37971353405437,-41.20140309850921,24.3642209880152
1700081828,0.9929847914984707,-0.0552471273088685,-0.004390500183486238,0.018478673455489966,-0.04596760917440065,-0.005803219762881146,-31.52586962876352,-41.40602163110202,24.495761473253435
1700081828,0.9931067498369011,-0.05439341893985729,-0.004756375198776758,0.019547687622336492,-0.04612032548395016,-0.004886921905584123,-31.97895352236188,-41.11370944168372,24.51037708272435
1700081828,0.9931067498369011,-0.05439341893985729,-0.004756375198776758,0.019547687622336492,-0.04612032548395016,-0.004886921905584123,-31.29201987722888,-41.17217187956738,24.33498976907337
1700081828,0.9933506665137612,-0.05427146060142711,-0.004634416860346585,0.017256942979093935,-0.04505131131710363,-0.0032070425005395805,-31.29201987722888,-41.30371236480561,24.349605378544283
1700081828,0.9933506665137612,-0.05427146060142711,-0.004634416860346585,0.014660765716752368,-0.04413501345980661,-0.001832595714594046,-31.62817889505992,-41.11370944168372,24.495761473253435
1700081828,0.9927408748216106,-0.05488125229357798,-0.003780708491335372,0.014660765716752368,-0.04413501345980661,-0.001832595714594046,-31.555100847705347,-40.85062847120725,24.934229757380884
1700081828,0.9927408748216106,-0.05488125229357798,-0.003780708491335372,0.013591751549905842,-0.0439822971502571,-0.0013744467859455344,-31.61356328558901,-40.836012861736336,25.270388775211927
1700081828,0.99237499980632,-0.056710627370030575,-0.004268541845056065,0.013591751549905842,-0.0439822971502571,-0.0013744467859455344,-30.955860859397838,-41.04063139432914,24.3642209880152
1700081828,0.9926189164831803,-0.05780825241590213,-0.003414833476044852,0.014966198335851376,-0.04337143191205909,-0.0015271630954950383,-31.05817012569424,-40.7044723764981,25.57731657410114
1700081828,0.9926189164831803,-0.05780825241590213,-0.003414833476044852,0.014966198335851376,-0.04337143191205909,-0.0015271630954950383,-31.131248173048814,-40.33908213972522,25.285004384682843
1700081828,0.9918871664525993,-0.056222794016309884,-0.004146583506625891,0.018173240836390957,-0.0439822971502571,-0.002596177262341565,-31.818181818181817,-40.92370651856182,24.086524408067817
1700081828,0.9918871664525993,-0.056222794016309884,-0.004146583506625891,0.018173240836390957,-0.0439822971502571,-0.002596177262341565,-31.78895059923999,-41.157556270096464,25.13884828997369
1700081828,0.9921310831294597,-0.056344752354740055,-0.003658750152905199,0.016493361431346415,-0.04474587869800463,-0.003817907738737596,-31.29201987722888,-41.084478222741886,25.211926337328265
1700081828,0.9921310831294597,-0.056344752354740055,-0.003658750152905199,0.016493361431346415,-0.04474587869800463,-0.003817907738737596,-31.482022800350773,-41.084478222741886,24.641917567962583
1700081828,0.9924969581447503,-0.05695454404689092,-0.003658750152905199,0.014813482026301871,-0.04505131131710363,-0.005497787143782138,-31.803566208710905,-41.18678748903829,25.241157556270092
1700081828,0.9924969581447503,-0.05695454404689092,-0.003658750152905199,0.014813482026301871,-0.04505131131710363,-0.005497787143782138,-31.949722303420053,-41.02601578485823,24.70038000584624
1700081828,0.9926189164831803,-0.057076502385321096,-0.0031709167991845052,0.014966198335851376,-0.045356743936202634,-0.00717766654882668,-31.832797427652732,-41.435252850043845,25.43116047939199
1700081828,0.9926189164831803,-0.057076502385321096,-0.0031709167991845052,0.014966198335851376,-0.045356743936202634,-0.00717766654882668,-31.16047939199065,-41.44986845951476,24.919614147909968
1700081828,0.99237499980632,-0.0565886690316004,-0.004268541845056065,0.01634064512179691,-0.04581489286485115,-0.008093964406123703,-31.584332066647182,-37.54750073078048,25.02192341420637
1700081828,0.99237499980632,-0.0565886690316004,-0.004268541845056065,0.01634064512179691,-0.04581489286485115,-0.008093964406123703,-31.306635486699797,-40.49985384390529,25.153463899444606
1700081828,0.9933506665137612,-0.055734960662589185,-0.003536791814475025,0.016951510359994926,-0.04612032548395016,-0.008704829644321718,-30.91201403098509,-40.64600993861444,24.978076585793627
1700081828,0.9933506665137612,-0.055734960662589185,-0.003536791814475025,0.016951510359994926,-0.04612032548395016,-0.008704829644321718,-31.204326220403388,-40.806781642794505,25.080385852090032
1700081828,0.9931067498369011,-0.05512516897043832,-0.003658750152905199,0.01756237559819294,-0.045662176555301644,-0.007788531787024695,-30.897398421514175,-41.27448114586378,24.758842443729904
1700081828,0.9931067498369011,-0.05512516897043832,-0.003658750152905199,0.017867808217291947,-0.04612032548395016,-0.006108652381980153,-31.73048816135633,-41.0990938322128,25.080385852090032
1700081828,0.9921310831294597,-0.05451537727828745,-0.003414833476044852,0.017867808217291947,-0.04612032548395016,-0.006108652381980153,-31.584332066647182,-40.92370651856182,24.451914644840688
1700081828,0.9921310831294597,-0.05451537727828745,-0.003414833476044852,0.017715091907742442,-0.04642575810304917,-0.005497787143782138,-31.540485238234435,-40.982168956445484,24.24729611224788
1700081828,0.9929847914984707,-0.055734960662589185,-0.0053661668909276245,0.017715091907742442,-0.04642575810304917,-0.005497787143782138,-31.189710610932476,-41.216018707980126,24.086524408067817
1700081828,0.9929847914984707,-0.055734960662589185,-0.0062198752599388375,0.017409659288643436,-0.045356743936202634,-0.005345070834232635,-31.233557439345223,-40.95293773750365,25.095001461560944
1700081828,0.9931067498369011,-0.05378362724770642,-0.0062198752599388375,0.017409659288643436,-0.045356743936202634,-0.005345070834232635,-30.99970768781058,-40.96755334697457,24.758842443729904
1700081828,0.9935945831906218,-0.05414950226299693,-0.004146583506625891,0.01389718416900485,-0.04413501345980661,-0.004734205596034618,-31.335866705641624,-41.59602455422391,24.714995615317157
1700081828,0.9935945831906218,-0.05414950226299693,-0.004146583506625891,0.01389718416900485,-0.04413501345980661,-0.004734205596034618,-31.511254019292608,-41.02601578485823,24.30575855013154
1700081828,0.9927408748216106,-0.055369085647298664,-0.0045124585219164124,0.013286318930806833,-0.04306599929296008,-0.002596177262341565,-31.9935691318328,-41.04063139432914,25.03653902367729
1700081828,0.9927408748216106,-0.055369085647298664,-0.0045124585219164124,0.013286318930806833,-0.04306599929296008,-0.002596177262341565,-31.672025723472668,-41.157556270096464,24.641917567962583
1700081828,0.9921310831294597,-0.0565886690316004,-0.004268541845056065,0.016951510359994926,-0.04321871560250958,-0.0007635815477475192,-31.759719380298158,-41.30371236480561,25.32885121309559
1700081828,0.9921310831294597,-0.0565886690316004,-0.004268541845056065,0.016951510359994926,-0.04321871560250958,-0.0007635815477475192,-31.818181818181817,-40.9967845659164,25.796550716164862
1700081828,0.9928628331600408,-0.05597887733944954,-0.004146583506625891,0.020158552860534508,-0.04337143191205909,0.0004581489286485115,-31.87664425606548,-40.879859690149075,24.86115171002631
1700081828,0.9928628331600408,-0.05597887733944954,-0.004146583506625891,0.020158552860534508,-0.04337143191205909,0.0004581489286485115,-31.920491084478225,-40.79216603332359,25.153463899444606
1700081828,0.9929847914984707,-0.05488125229357798,-0.0039026668297655453,0.018173240836390957,-0.0436768645311581,-0.0003054326190990077,-31.803566208710905,-40.79216603332359,24.48114586378252
1700081828,0.9929847914984707,-0.05488125229357798,-0.0039026668297655453,0.018173240836390957,-0.0436768645311581,-0.0003054326190990077,-31.482022800350773,-41.27448114586378,24.74422683425899
1700081828,0.9929847914984707,-0.05732041906218144,-0.004146583506625891,0.013591751549905842,-0.04337143191205909,-0.001069014166846527,-31.715872551885415,-41.157556270096464,24.846536100555394
1700081828,0.9929847914984707,-0.05732041906218144,-0.004146583506625891,0.013591751549905842,-0.04337143191205909,-0.001069014166846527,-31.37971353405437,-41.42063724057293,25.007307804735458
1700081828,0.9928628331600408,-0.058661960784913356,-0.004756375198776758,0.012370021073509811,-0.04321871560250958,-0.002596177262341565,-31.949722303420053,-41.0990938322128,23.3849751534639
1700081828,0.9928628331600408,-0.058661960784913356,-0.004756375198776758,0.012370021073509811,-0.04321871560250958,-0.002596177262341565,-31.4089447529962,-40.879859690149075,25.007307804735458
1700081828,0.9927408748216106,-0.05780825241590213,-0.004634416860346585,0.01557706357404939,-0.04306599929296008,-0.004276056667386108,-31.394329143525283,-41.05524700380006,24.627301958491667
1700081828,0.9927408748216106,-0.05780825241590213,-0.004634416860346585,0.019089538693687978,-0.04413501345980661,-0.00519235452468313,-31.4089447529962,-41.435252850043845,25.16807950891552
1700081828,0.99237499980632,-0.05732041906218144,-0.003780708491335372,0.019089538693687978,-0.04413501345980661,-0.00519235452468313,-31.248173048816135,-41.230634317451035,24.671148786904414
1700081828,0.99237499980632,-0.05732041906218144,-0.003780708491335372,0.018631389765039467,-0.04337143191205909,-0.006566801310628665,-31.920491084478225,-40.909090909090914,24.627301958491667
1700081828,0.99237499980632,-0.056100835677879705,-0.0031709167991845052,0.018631389765039467,-0.04337143191205909,-0.006566801310628665,-31.657410114001756,-41.0990938322128,25.197310727857353
1700081828,0.99237499980632,-0.05597887733944954,-0.003536791814475025,0.016646077740895916,-0.04413501345980661,-0.0079412480965742,-31.9935691318328,-41.18678748903829,25.37269804150833
1700081829,0.9926189164831803,-0.05597887733944954,-0.003536791814475025,0.016646077740895916,-0.04413501345980661,-0.0079412480965742,-32.12510961707103,-40.95293773750365,24.758842443729904
1700081829,0.9921310831294597,-0.05597887733944954,-0.003658750152905199,0.014660765716752368,-0.04413501345980661,-0.008093964406123703,-31.4089447529962,-41.02601578485823,24.74422683425899
1700081829,0.9921310831294597,-0.05597887733944954,-0.003658750152905199,0.014660765716752368,-0.04413501345980661,-0.008093964406123703,-32.31511254019293,-40.777550423852674,24.466530254311607
1700081829,0.9912773747604484,-0.05756433573904179,-0.004268541845056065,0.016187928812247405,-0.04505131131710363,-0.0079412480965742,-31.598947676118094,-41.216018707980126,24.934229757380884
1700081829,0.9912773747604484,-0.05756433573904179,-0.004268541845056065,0.016187928812247405,-0.04505131131710363,-0.0079412480965742,-31.905875475007306,-41.20140309850921,25.13884828997369
1700081829,0.9931067498369011,-0.0552471273088685,-0.003414833476044852,0.018936822384138473,-0.045662176555301644,-0.007330382858376184,-31.715872551885415,-41.14294066062555,24.086524408067817
1700081829,0.9931067498369011,-0.0552471273088685,-0.003414833476044852,0.018936822384138473,-0.045662176555301644,-0.007330382858376184,-31.131248173048814,-41.27448114586378,24.30575855013154
1700081829,0.9922530414678898,-0.05427146060142711,-0.004268541845056065,0.019089538693687978,-0.04612032548395016,-0.006414085001079161,-31.102016954106986,-41.11370944168372,24.437299035369776
1700081829,0.9922530414678898,-0.05427146060142711,-0.004268541845056065,0.019089538693687978,-0.04612032548395016,-0.006414085001079161,-30.678164279450453,-41.75679625840398,25.13884828997369
1700081829,0.9929847914984707,-0.05500321063200815,-0.0039026668297655453,0.017409659288643436,-0.04642575810304917,-0.00519235452468313,-31.1166325635779,-41.30371236480561,24.232680502776965
1700081829,0.9929847914984707,-0.05500321063200815,-0.0039026668297655453,0.017409659288643436,-0.04642575810304917,-0.00519235452468313,-31.131248173048814,-40.79216603332359,24.042677579655074
1700081829,0.99237499980632,-0.05451537727828745,-0.004268541845056065,0.016493361431346415,-0.04673119072214818,-0.004428772976935611,-31.73048816135633,-41.05524700380006,24.378836597486114
1700081829,0.99237499980632,-0.05451537727828745,-0.004268541845056065,0.016493361431346415,-0.04673119072214818,-0.004428772976935611,-32.0958783981292,-41.084478222741886,24.846536100555394
1700081829,0.9924969581447503,-0.05585691900101936,-0.003780708491335372,0.015424347264499889,-0.04596760917440065,-0.0030543261909900766,-31.62817889505992,-41.20140309850921,24.729611224788073
1700081829,0.9924969581447503,-0.05585691900101936,-0.003780708491335372,0.015424347264499889,-0.04596760917440065,-0.0030543261909900766,-31.32125109617071,-41.25986553639287,24.0719087985969
1700081829,0.9929847914984707,-0.0552471273088685,-0.003658750152905199,0.01710422666954443,-0.04581489286485115,-0.0024434609527920616,-31.43817597193803,-40.7044723764981,24.641917567962583
1700081829,0.9929847914984707,-0.0552471273088685,-0.003658750152905199,0.01710422666954443,-0.04581489286485115,-0.0024434609527920616,-31.61356328558901,-41.362174802689275,24.68576439637533
1700081829,0.9932287081753313,-0.05561300232415902,-0.004390500183486238,0.01756237559819294,-0.04550946024575214,-0.00198531202414355,-31.935106693949137,-41.12832505115463,24.115755627009648
1700081829,0.9932287081753313,-0.05561300232415902,-0.004390500183486238,0.01756237559819294,-0.04550946024575214,-0.00198531202414355,-31.803566208710905,-41.157556270096464,24.378836597486114
1700081829,0.9922530414678898,-0.05597887733944954,-0.005122250214067278,0.01756237559819294,-0.04550946024575214,-0.002138028333693054,-31.920491084478225,-41.02601578485823,24.671148786904414
1700081829,0.9922530414678898,-0.05597887733944954,-0.005122250214067278,0.01634064512179691,-0.044898595007554123,-0.002901609881440573,-31.189710610932476,-41.14294066062555,24.77345805320082
1700081829,0.9938384998674822,-0.056344752354740055,-0.005244208552497451,0.01634064512179691,-0.044898595007554123,-0.002901609881440573,-31.277404267757962,-40.96755334697457,24.495761473253435
1700081829,0.9931067498369011,-0.057198460723751274,-0.004390500183486238,0.016187928812247405,-0.0439822971502571,-0.004428772976935611,-31.365097924583456,-41.084478222741886,24.788073662671735
1700081829,0.9931067498369011,-0.057198460723751274,-0.004390500183486238,0.016187928812247405,-0.0439822971502571,-0.004428772976935611,-31.16047939199065,-41.31832797427653,24.817304881613563
1700081829,0.9918871664525993,-0.05793021075433231,-0.003536791814475025,0.0158824961931484,-0.04337143191205909,-0.005345070834232635,-31.482022800350773,-41.06986261327098,24.408067816427945
1700081829,0.9918871664525993,-0.05793021075433231,-0.003536791814475025,0.0158824961931484,-0.04337143191205909,-0.005345070834232635,-31.131248173048814,-40.982168956445484,24.218064893306053
1700081829,0.9921310831294597,-0.05780825241590213,-0.003780708491335372,0.01832595714594046,-0.0439822971502571,-0.0070249502392771765,-31.598947676118094,-40.909090909090914,24.39345220695703
1700081829,0.9921310831294597,-0.05780825241590213,-0.003780708491335372,0.01832595714594046,-0.0439822971502571,-0.0070249502392771765,-31.52586962876352,-40.879859690149075,24.68576439637533
1700081829,0.9929847914984707,-0.055734960662589185,-0.0032928751376146786,0.020005836550985003,-0.04413501345980661,-0.008093964406123703,-31.686641332943584,-40.836012861736336,24.96346097632271
1700081829,0.9929847914984707,-0.055734960662589185,-0.0032928751376146786,0.020005836550985003,-0.04413501345980661,-0.008093964406123703,-30.882782812043263,-40.57293189125987,23.852674656533175
1700081829,0.9924969581447503,-0.05500321063200815,-0.0028050417838939856,0.017715091907742442,-0.04459316238845512,-0.00839939702522271,-31.73048816135633,-41.11370944168372,24.904998538439052
1700081829,0.9924969581447503,-0.05500321063200815,-0.0028050417838939856,0.017715091907742442,-0.04459316238845512,-0.00839939702522271,-31.584332066647182,-40.92370651856182,24.42268342589886
1700081829,0.9929847914984707,-0.05475929395514781,-0.001707416738022426,0.014202616788103856,-0.04505131131710363,-0.008093964406123703,-31.43817597193803,-41.230634317451035,24.30575855013154
1700081829,0.9929847914984707,-0.05475929395514781,-0.001707416738022426,0.014202616788103856,-0.04505131131710363,-0.008093964406123703,-31.233557439345223,-41.02601578485823,25.095001461560944
1700081829,0.9921310831294597,-0.05732041906218144,-0.002927000122324159,0.013286318930806833,-0.04657847441259867,-0.007483099167925688,-32.03741596024554,-40.89447529961999,24.87576731949722
1700081829,0.9921310831294597,-0.05732041906218144,-0.002927000122324159,0.013286318930806833,-0.04657847441259867,-0.007483099167925688,-31.759719380298158,-41.0990938322128,24.232680502776965
1700081829,0.9918871664525993,-0.05756433573904179,-0.003658750152905199,0.01710422666954443,-0.048258353817643214,-0.007330382858376184,-31.64279450453084,-41.06986261327098,24.466530254311607
1700081829,0.9918871664525993,-0.05756433573904179,-0.003658750152905199,0.01710422666954443,-0.048258353817643214,-0.007330382858376184,-31.26278865828705,-41.084478222741886,25.241157556270092
1700081829,0.9934726248521917,-0.05500321063200815,-0.003780708491335372,0.020616701789183015,-0.049938233222687756,-0.007788531787024695,-31.32125109617071,-40.879859690149075,24.320374159602455
1700081829,0.9934726248521917,-0.05500321063200815,-0.003780708491335372,0.020616701789183015,-0.049938233222687756,-0.007788531787024695,-30.970476468868753,-41.157556270096464,24.70038000584624
1700081829,0.993716541529052,-0.05427146060142711,-0.004878333537206931,0.018784106074588972,-0.049480084294039245,-0.007788531787024695,-31.248173048816135,-40.9967845659164,25.401929260450164
1700081829,0.993716541529052,-0.05427146060142711,-0.004878333537206931,0.015729779883598895,-0.047952921198544204,-0.007788531787024695,-31.584332066647182,-40.879859690149075,24.9488453668518
1700081829,0.9931067498369011,-0.05390558558613659,-0.0053661668909276245,0.015729779883598895,-0.047952921198544204,-0.007788531787024695,-31.350482315112536,-40.9967845659164,25.211926337328265
1700081829,0.9931067498369011,-0.05390558558613659,-0.0053661668909276245,0.014202616788103856,-0.04596760917440065,-0.007330382858376184,-30.99970768781058,-41.31832797427653,24.890382928968137
1700081829,0.9940824165443425,-0.05390558558613659,-0.005854000244648318,0.014202616788103856,-0.04596760917440065,-0.007330382858376184,-31.37971353405437,-41.216018707980126,24.802689272142647
1700081829,0.9928628331600408,-0.0552471273088685,-0.0063418335983690104,0.015271630954950384,-0.04459316238845512,-0.005955936072430649,-31.52586962876352,-40.909090909090914,24.992692195264542
1700081829,0.9928628331600408,-0.0552471273088685,-0.0063418335983690104,0.015271630954950384,-0.04459316238845512,-0.005955936072430649,-31.803566208710905,-41.50833089739842,24.817304881613563
1700081829,0.9924969581447503,-0.0552471273088685,-0.005854000244648318,0.018173240836390957,-0.04337143191205909,-0.004123340357836604,-31.62817889505992,-41.37679041216018,24.934229757380884
1700081829,0.9924969581447503,-0.0552471273088685,-0.005854000244648318,0.018173240836390957,-0.04337143191205909,-0.004123340357836604,-31.1166325635779,-40.82139725226542,24.831920491084478
1700081829,0.9935945831906218,-0.05500321063200815,-0.004878333537206931,0.020616701789183015,-0.04321871560250958,-0.0035124751196385882,-31.072785735165155,-41.02601578485823,24.992692195264542
1700081829,0.9935945831906218,-0.05500321063200815,-0.004878333537206931,0.020616701789183015,-0.04321871560250958,-0.0035124751196385882,-31.84741303712365,-40.89447529961999,25.095001461560944
1700081829,0.9932287081753313,-0.05451537727828745,-0.004024625168195718,0.019700403931885994,-0.04214970143566306,-0.0024434609527920616,-31.540485238234435,-40.86524408067817,24.39345220695703
1700081829,0.9932287081753313,-0.05451537727828745,-0.004024625168195718,0.019700403931885994,-0.04214970143566306,-0.0024434609527920616,-31.4089447529962,-40.96755334697457,24.24729611224788
1700081829,0.9932287081753313,-0.05475929395514781,-0.004268541845056065,0.01679879405044542,-0.04245513405476207,-0.001832595714594046,-30.86816720257235,-40.95293773750365,24.788073662671735
1700081829,0.9932287081753313,-0.05475929395514781,-0.004268541845056065,0.01679879405044542,-0.04245513405476207,-0.001832595714594046,-31.32125109617071,-41.11370944168372,24.919614147909968
1700081829,0.9924969581447503,-0.056100835677879705,-0.0030489584607543323,0.013591751549905842,-0.04214970143566306,-0.0016798794050445422,-31.46740719087986,-40.7044723764981,25.13884828997369
1700081829,0.9924969581447503,-0.056100835677879705,-0.0030489584607543323,0.013591751549905842,-0.04214970143566306,-0.0016798794050445422,-31.1166325635779,-40.86524408067817,25.197310727857353
1700081829,0.9922530414678898,-0.05756433573904179,-0.0023172084301732927,0.014660765716752368,-0.04306599929296008,-0.0016798794050445422,-31.452791581408945,-40.86524408067817,24.51037708272435
1700081829,0.9922530414678898,-0.05756433573904179,-0.0023172084301732927,0.014660765716752368,-0.04306599929296008,-0.0016798794050445422,-31.62817889505992,-40.96755334697457,25.065770242619116
1700081829,0.9921310831294597,-0.05646671069317023,-0.0026830834454638123,0.018784106074588972,-0.04428772976935611,-0.0022907446432425577,-31.17509500146156,-41.37679041216018,24.831920491084478
1700081829,0.9921310831294597,-0.05646671069317023,-0.0026830834454638123,0.018784106074588972,-0.04428772976935611,-0.002901609881440573,-31.218941829874307,-41.04063139432914,24.612686349020755
1700081829,0.9922530414678898,-0.055734960662589185,-0.0031709167991845052,0.0198531202414355,-0.045356743936202634,-0.002901609881440573,-30.86816720257235,-41.011400175387315,25.080385852090032
1700081829,0.9922530414678898,-0.055734960662589185,-0.0031709167991845052,0.018020524526841452,-0.04673119072214818,-0.0033597588100890844,-31.043554516223328,-40.54370067231803,25.48962291727565
1700081829,0.9922530414678898,-0.05512516897043832,-0.0026830834454638123,0.018020524526841452,-0.04673119072214818,-0.0033597588100890844,-30.678164279450453,-40.76293481438176,24.51037708272435
1700081829,0.9922530414678898,-0.05512516897043832,-0.0026830834454638123,0.015271630954950384,-0.047952921198544204,-0.0035124751196385882,-30.86816720257235,-40.836012861736336,25.460391698333822
1700081829,0.9916432497757389,-0.05561300232415902,-0.003658750152905199,0.015271630954950384,-0.047952921198544204,-0.0035124751196385882,-31.4089447529962,-41.157556270096464,24.729611224788073
1700081829,0.9928628331600408,-0.058052169092762486,-0.005244208552497451,0.01557706357404939,-0.0478002048889947,-0.004276056667386108,-30.780473545746855,-40.836012861736336,24.42268342589886
1700081829,0.9928628331600408,-0.058052169092762486,-0.005244208552497451,0.01557706357404939,-0.0478002048889947,-0.004276056667386108,-31.584332066647182,-40.806781642794505,24.174218064893303
1700081829,0.9934726248521917,-0.056222794016309884,-0.006463791936799185,0.017867808217291947,-0.04581489286485115,-0.006719517620178169,-31.84741303712365,-41.25986553639287,25.548085355159312
1700081829,0.9934726248521917,-0.056222794016309884,-0.006463791936799185,0.017867808217291947,-0.04581489286485115,-0.006719517620178169,-31.1166325635779,-41.084478222741886,23.896521484945925
1700081829,0.9931067498369011,-0.05451537727828745,-0.004878333537206931,0.016646077740895916,-0.044898595007554123,-0.008093964406123703,-31.17509500146156,-41.230634317451035,24.74422683425899
1700081829,0.9931067498369011,-0.05451537727828745,-0.004878333537206931,0.016646077740895916,-0.044898595007554123,-0.008093964406123703,-31.277404267757962,-40.9967845659164,24.904998538439052
1700081829,0.9924969581447503,-0.056100835677879705,-0.004146583506625891,0.014813482026301871,-0.0439822971502571,-0.008093964406123703,-31.26278865828705,-41.157556270096464,24.495761473253435
1700081829,0.9924969581447503,-0.056100835677879705,-0.004146583506625891,0.014813482026301871,-0.0439822971502571,-0.008093964406123703,-31.233557439345223,-40.68985676702718,24.627301958491667
1700081829,0.9932287081753313,-0.055734960662589185,-0.005000291875637105,0.017715091907742442,-0.0438295808407076,-0.007635815477475192,-30.882782812043263,-40.74831920491084,24.320374159602455
1700081829,0.9932287081753313,-0.055734960662589185,-0.005000291875637105,0.017715091907742442,-0.0438295808407076,-0.007635815477475192,-30.517392575270392,-40.74831920491084,25.621163402513886
1700081829,0.9931067498369011,-0.05414950226299693,-0.004634416860346585,0.0198531202414355,-0.0436768645311581,-0.0070249502392771765,-31.028938906752412,-41.084478222741886,25.109617071031863
1700081829,0.9931067498369011,-0.05414950226299693,-0.004634416860346585,0.0198531202414355,-0.0436768645311581,-0.0070249502392771765,-30.60508623209588,-40.82139725226542,24.846536100555394
1700081829,0.9922530414678898,-0.05378362724770642,-0.004634416860346585,0.01679879405044542,-0.04337143191205909,-0.006108652381980153,-31.715872551885415,-41.27448114586378,25.43116047939199
1700081829,0.9922530414678898,-0.05378362724770642,-0.004634416860346585,0.01679879405044542,-0.04337143191205909,-0.006108652381980153,-31.745103770827242,-40.7044723764981,25.065770242619116
1700081829,0.9924969581447503,-0.05585691900101936,-0.003780708491335372,0.013591751549905842,-0.0438295808407076,-0.005803219762881146,-31.496638409821692,-41.18678748903829,25.416544869921076
1700081829,0.9924969581447503,-0.05585691900101936,-0.003780708491335372,0.013591751549905842,-0.0438295808407076,-0.005803219762881146,-31.028938906752412,-41.37679041216018,25.241157556270092
1700081829,0.9924969581447503,-0.05683258570846075,-0.003414833476044852,0.014660765716752368,-0.04505131131710363,-0.004886921905584123,-31.29201987722888,-40.74831920491084,25.57731657410114
1700081829,0.9924969581447503,-0.05683258570846075,-0.003414833476044852,0.014660765716752368,-0.04505131131710363,-0.004886921905584123,-31.0143232972815,-41.34755919321836,24.802689272142647
1700081829,0.9926189164831803,-0.056222794016309884,-0.0031709167991845052,0.017715091907742442,-0.04520402762665313,-0.003817907738737596,-31.043554516223328,-41.12832505115463,25.270388775211927
1700081829,0.9926189164831803,-0.056222794016309884,-0.0031709167991845052,0.017715091907742442,-0.04520402762665313,-0.003665191429188092,-31.335866705641624,-40.89447529961999,24.96346097632271
1700081829,0.9935945831906218,-0.05500321063200815,-0.0032928751376146786,0.019089538693687978,-0.04627304179349966,-0.003665191429188092,-31.087401344636074,-41.230634317451035,24.9488453668518
1700081829,0.9927408748216106,-0.05427146060142711,-0.003658750152905199,0.016951510359994926,-0.04642575810304917,-0.0035124751196385882,-30.85355159310143,-41.216018707980126,25.065770242619116
1700081829,0.9927408748216106,-0.05427146060142711,-0.003658750152905199,0.016951510359994926,-0.04642575810304917,-0.0035124751196385882,-31.0143232972815,-41.0990938322128,25.445776088862903
1700081829,0.9921310831294597,-0.05561300232415902,-0.004146583506625891,0.014202616788103856,-0.04612032548395016,-0.0032070425005395805,-31.745103770827242,-40.93832212803274,25.065770242619116
1700081829,0.9921310831294597,-0.05561300232415902,-0.004146583506625891,0.014202616788103856,-0.04612032548395016,-0.0032070425005395805,-31.072785735165155,-41.12832505115463,24.831920491084478
1700081829,0.9932287081753313,-0.057442377400611616,-0.0053661668909276245,0.01389718416900485,-0.04581489286485115,-0.0032070425005395805,-31.4089447529962,-41.30371236480561,24.86115171002631
1700081829,0.9932287081753313,-0.057442377400611616,-0.0053661668909276245,0.01389718416900485,-0.04581489286485115,-0.0032070425005395805,-30.91201403098509,-41.25986553639287,25.197310727857353
1700081829,0.9933506665137612,-0.056710627370030575,-0.004634416860346585,0.016951510359994926,-0.04474587869800463,-0.003665191429188092,-30.80970476468869,-41.157556270096464,25.22654194679918
1700081829,0.9933506665137612,-0.056710627370030575,-0.004634416860346585,0.016951510359994926,-0.04474587869800463,-0.003665191429188092,-31.335866705641624,-41.20140309850921,24.451914644840688
1700081829,0.9932287081753313,-0.056344752354740055,-0.005244208552497451,0.018784106074588972,-0.04413501345980661,-0.0039706240482871,-31.365097924583456,-41.14294066062555,24.524992692195262
1700081829,0.9932287081753313,-0.056344752354740055,-0.005244208552497451,0.018784106074588972,-0.04413501345980661,-0.0039706240482871,-31.452791581408945,-41.40602163110202,24.904998538439052
1700081830,0.9932287081753313,-0.05488125229357798,-0.004878333537206931,0.01832595714594046,-0.04321871560250958,-0.004123340357836604,-31.102016954106986,-40.82139725226542,24.68576439637533
1700081830,0.9932287081753313,-0.05488125229357798,-0.004878333537206931,0.01832595714594046,-0.04321871560250958,-0.004123340357836604,-31.277404267757962,-37.489038292896815,24.978076585793627
1700081830,0.9922530414678898,-0.05500321063200815,-0.004756375198776758,0.01634064512179691,-0.04276056667386108,-0.004276056667386108,-31.043554516223328,-41.157556270096464,25.650394621455714
1700081830,0.9922530414678898,-0.05500321063200815,-0.004756375198776758,0.01634064512179691,-0.04276056667386108,-0.004276056667386108,-30.85355159310143,-41.42063724057293,25.25577316574101
1700081830,0.9934726248521917,-0.05597887733944954,-0.004024625168195718,0.014966198335851376,-0.04260785036431157,-0.0039706240482871,-30.751242326805027,-40.879859690149075,25.153463899444606
1700081830,0.9934726248521917,-0.05597887733944954,-0.004024625168195718,0.014966198335851376,-0.04260785036431157,-0.0039706240482871,-30.838935983630517,-41.24524992692195,25.971938029815846
1700081830,0.9928628331600408,-0.05695454404689092,-0.0026830834454638123,0.0158824961931484,-0.04306599929296008,-0.0039706240482871,-31.686641332943584,-41.42063724057293,25.75270388775212
1700081830,0.9928628331600408,-0.05695454404689092,-0.0026830834454638123,0.0158824961931484,-0.04306599929296008,-0.0039706240482871,-31.102016954106986,-41.61064016369483,25.37269804150833
1700081830,0.9922530414678898,-0.05683258570846075,-0.002561125107033639,0.017256942979093935,-0.04352414822160859,-0.003817907738737596,-31.233557439345223,-37.50365390236773,25.460391698333822
1700081830,0.9922530414678898,-0.05683258570846075,-0.002561125107033639,0.017256942979093935,-0.04352414822160859,-0.003817907738737596,-31.248173048816135,-41.230634317451035,26.64425606547793
1700081830,0.9932287081753313,-0.055734960662589185,-0.0019513334148827726,0.01756237559819294,-0.0439822971502571,-0.003665191429188092,-30.590470622624967,-41.49371528792751,26.717334112832503
1700081830,0.9932287081753313,-0.055734960662589185,-0.0019513334148827726,0.01756237559819294,-0.04444044607890562,-0.002748893571891069,-31.145863782519733,-41.37679041216018,25.913475591932183
1700081830,0.9920091247910295,-0.05427146060142711,-0.0045124585219164124,0.01634064512179691,-0.04444044607890562,-0.002748893571891069,-31.511254019292608,-41.17217187956738,25.3434668225665
1700081830,0.9920091247910295,-0.05427146060142711,-0.0045124585219164124,0.01435533309765336,-0.04459316238845512,-0.002748893571891069,-31.496638409821692,-41.2890967553347,25.401929260450164
1700081830,0.9927408748216106,-0.055734960662589185,-0.003414833476044852,0.01435533309765336,-0.04459316238845512,-0.002748893571891069,-31.701256942414496,-41.20140309850921,25.504238526746565
1700081830,0.9927408748216106,-0.055734960662589185,-0.004390500183486238,0.013744467859455345,-0.044898595007554123,-0.002596177262341565,-31.05817012569424,-41.25986553639287,25.445776088862903
1700081830,0.9918871664525993,-0.05732041906218144,-0.004390500183486238,0.013744467859455345,-0.044898595007554123,-0.002596177262341565,-31.233557439345223,-41.14294066062555,25.460391698333822
1700081830,0.9924969581447503,-0.05768629407747196,-0.004024625168195718,0.016493361431346415,-0.045662176555301644,-0.002748893571891069,-30.941245249926926,-41.0990938322128,25.57731657410114
1700081830,0.9924969581447503,-0.05768629407747196,-0.004024625168195718,0.016493361431346415,-0.045662176555301644,-0.002748893571891069,-31.26278865828705,-41.25986553639287,25.387313650979248
1700081830,0.9924969581447503,-0.056710627370030575,-0.004268541845056065,0.019242255003237483,-0.04505131131710363,-0.0035124751196385882,-31.087401344636074,-41.61064016369483,25.48962291727565
1700081830,0.9924969581447503,-0.056710627370030575,-0.004268541845056065,0.019242255003237483,-0.04505131131710363,-0.0035124751196385882,-31.555100847705347,-41.362174802689275,25.57731657410114
1700081830,0.9929847914984707,-0.05561300232415902,-0.004268541845056065,0.019394971312786988,-0.04505131131710363,-0.004276056667386108,-31.78895059923999,-40.558316281788954,25.94270681087401
1700081830,0.9929847914984707,-0.05561300232415902,-0.004268541845056065,0.019394971312786988,-0.04505131131710363,-0.004276056667386108,-31.452791581408945,-41.11370944168372,25.665010230926626
1700081830,0.9926189164831803,-0.05475929395514781,-0.005000291875637105,0.016951510359994926,-0.045356743936202634,-0.004734205596034618,-31.52586962876352,-41.53756211634025,24.890382928968137
1700081830,0.9926189164831803,-0.05475929395514781,-0.005000291875637105,0.016951510359994926,-0.045356743936202634,-0.004734205596034618,-31.745103770827242,-41.27448114586378,25.25577316574101
1700081830,0.9922530414678898,-0.05585691900101936,-0.004756375198776758,0.014813482026301871,-0.04459316238845512,-0.004123340357836604,-31.087401344636074,-41.25986553639287,25.13884828997369
1700081830,0.9922530414678898,-0.05585691900101936,-0.004756375198776758,0.014813482026301871,-0.04459316238845512,-0.004123340357836604,-31.087401344636074,-41.216018707980126,25.095001461560944
1700081830,0.9929847914984707,-0.05683258570846075,-0.004390500183486238,0.014966198335851376,-0.04444044607890562,-0.004428772976935611,-31.218941829874307,-40.86524408067817,25.285004384682843
1700081830,0.9929847914984707,-0.05683258570846075,-0.004390500183486238,0.014966198335851376,-0.04444044607890562,-0.004428772976935611,-31.701256942414496,-40.777550423852674,24.086524408067817
1700081830,0.9931067498369011,-0.0565886690316004,-0.004268541845056065,0.016187928812247405,-0.0439822971502571,-0.004276056667386108,-31.17509500146156,-40.82139725226542,24.9488453668518
1700081830,0.9931067498369011,-0.0565886690316004,-0.004268541845056065,0.016187928812247405,-0.0439822971502571,-0.004276056667386108,-31.233557439345223,-40.86524408067817,24.729611224788073
1700081830,0.9927408748216106,-0.0565886690316004,-0.0032928751376146786,0.01679879405044542,-0.0438295808407076,-0.003665191429188092,-31.555100847705347,-41.31832797427653,24.714995615317157
1700081830,0.9927408748216106,-0.0565886690316004,-0.0032928751376146786,0.01679879405044542,-0.04352414822160859,-0.0033597588100890844,-31.306635486699797,-40.7044723764981,24.86115171002631
1700081830,0.9926189164831803,-0.05585691900101936,-0.0045124585219164124,0.01634064512179691,-0.04352414822160859,-0.0033597588100890844,-31.306635486699797,-40.602163110201694,24.612686349020755
1700081830,0.9926189164831803,-0.05585691900101936,-0.0045124585219164124,0.015424347264499889,-0.044898595007554123,-0.003817907738737596,-31.511254019292608,-40.79216603332359,24.68576439637533
1700081830,0.9924969581447503,-0.05683258570846075,-0.0031709167991845052,0.015424347264499889,-0.044898595007554123,-0.003817907738737596,-31.218941829874307,-40.54370067231803,24.758842443729904
1700081830,0.9924969581447503,-0.05683258570846075,-0.0031709167991845052,0.01389718416900485,-0.04505131131710363,-0.0039706240482871,-30.970476468868753,-41.04063139432914,25.153463899444606
1700081830,0.9917652081141691,-0.056710627370030575,-0.0028050417838939856,0.01389718416900485,-0.04505131131710363,-0.0039706240482871,-31.43817597193803,-40.909090909090914,25.095001461560944
1700081830,0.9921310831294597,-0.058418044108053006,-0.0030489584607543323,0.013744467859455345,-0.04581489286485115,-0.005039638215133627,-31.540485238234435,-40.96755334697457,24.68576439637533
1700081830,0.9921310831294597,-0.058418044108053006,-0.0030489584607543323,0.013744467859455345,-0.04581489286485115,-0.005039638215133627,-31.42356036246711,-40.61677871967261,25.518854136217477
1700081830,0.9918871664525993,-0.05817412743119265,-0.002561125107033639,0.016187928812247405,-0.047494772269895694,-0.006414085001079161,-31.511254019292608,-40.92370651856182,25.051154633148204
1700081830,0.9918871664525993,-0.05817412743119265,-0.002561125107033639,0.016187928812247405,-0.047494772269895694,-0.006414085001079161,-30.736626717334115,-40.51446945337621,25.460391698333822
1700081830,0.9921310831294597,-0.056344752354740055,-0.003536791814475025,0.017867808217291947,-0.047952921198544204,-0.00717766654882668,-31.394329143525283,-40.879859690149075,25.48962291727565
1700081830,0.9921310831294597,-0.056344752354740055,-0.003536791814475025,0.017867808217291947,-0.047952921198544204,-0.00717766654882668,-31.672025723472668,-40.806781642794505,23.9695995323005
1700081830,0.9929847914984707,-0.056222794016309884,-0.004146583506625891,0.017715091907742442,-0.04856378643674222,-0.00839939702522271,-31.26278865828705,-41.02601578485823,25.051154633148204
1700081830,0.9929847914984707,-0.056222794016309884,-0.004146583506625891,0.017715091907742442,-0.04856378643674222,-0.00839939702522271,-31.0143232972815,-41.0990938322128,24.817304881613563
1700081830,0.9935945831906218,-0.05597887733944954,-0.004146583506625891,0.01679879405044542,-0.047494772269895694,-0.009315694882519734,-31.1166325635779,-41.14294066062555,24.74422683425899
1700081830,0.9935945831906218,-0.05597887733944954,-0.004146583506625891,0.01679879405044542,-0.047494772269895694,-0.009315694882519734,-30.970476468868753,-40.982168956445484,24.524992692195262
1700081830,0.9912773747604484,-0.05561300232415902,-0.0028050417838939856,0.016493361431346415,-0.048258353817643214,-0.007788531787024695,-30.795089155217774,-41.02601578485823,24.904998538439052
1700081830,0.9912773747604484,-0.05561300232415902,-0.0028050417838939856,0.016493361431346415,-0.048258353817643214,-0.007788531787024695,-30.444314527915818,-40.9967845659164,24.24729611224788
1700081830,0.9928628331600408,-0.056222794016309884,-0.0053661668909276245,0.018631389765039467,-0.047952921198544204,-0.007483099167925688,-31.277404267757962,-41.18678748903829,24.028061970184154
1700081830,0.9928628331600408,-0.056222794016309884,-0.0053661668909276245,0.018631389765039467,-0.047952921198544204,-0.007483099167925688,-31.102016954106986,-41.25986553639287,24.70038000584624
1700081830,0.9933506665137612,-0.05268600220183486,-0.007317500305810398,0.020463985479633514,-0.047036623341247176,-0.006719517620178169,-31.043554516223328,-41.04063139432914,24.188833674364222
1700081830,0.9933506665137612,-0.05268600220183486,-0.007317500305810398,0.020463985479633514,-0.047036623341247176,-0.006719517620178169,-31.05817012569424,-41.362174802689275,25.109617071031863
1700081830,0.9939604582059122,-0.052564043863404686,-0.005854000244648318,0.016187928812247405,-0.04444044607890562,-0.005497787143782138,-31.248173048816135,-41.157556270096464,24.758842443729904
1700081830,0.9939604582059122,-0.052564043863404686,-0.005854000244648318,0.012217304763960306,-0.04291328298341058,-0.0030543261909900766,-31.17509500146156,-41.34755919321836,25.665010230926626
1700081830,0.9935945831906218,-0.05439341893985729,-0.0053661668909276245,0.012217304763960306,-0.04291328298341058,-0.0030543261909900766,-31.482022800350773,-41.464484068985676,25.007307804735458
1700081830,0.9935945831906218,-0.05439341893985729,-0.0053661668909276245,0.01435533309765336,-0.04214970143566306,-0.0006108652381980154,-31.365097924583456,-41.17217187956738,25.665010230926626
