timestamp,acc-x,acc-y,acc-z,gyr-x,gyr-y,gyr-z,mag-x,mag-y,mag-z
1699735783,8.695517328400001,2.7589244578,4.0725840652,0.46303585055409563,-0.04321871560250958,0.13881912538049898,-58.87167494884537,-56.4600993861444,-4.0777550423852675
1699735783,8.5076807543,3.1489545415999998,4.5655055207999995,0.46303585055409563,-0.04321871560250958,0.13881912538049898,-59.07629348143818,-56.533177433498984,-4.413914060216311
1699735783,8.445467366699999,3.3248270027,4.2664026958,0.35094207934475985,-0.040622538340168025,0.07834346679889546,-58.90090616778719,-56.69394913767904,-4.019292604501608
1699735783,8.445467366699999,3.3248270027,4.2664026958,0.35094207934475985,-0.040622538340168025,0.07834346679889546,-59.10552470038001,-56.854720841859105,-4.019292604501608
1699735783,8.745766603,2.8486553053,3.6275190616,0.09422596299204386,-0.10231992739816757,-0.058948495486108476,-58.82782812043262,-56.927798889213676,-4.340836012861737
1699735783,8.745766603,2.8486553053,3.6275190616,0.09422596299204386,-0.10231992739816757,-0.058948495486108476,-58.944752996199945,-56.650102309266295,-4.063139432914353
1699735783,9.1956172518,2.2504496553,3.4923245847,-0.0755945732270044,-0.19394971312786988,-0.10888672870879623,-58.988599824612685,-56.8401052323882,-3.814674071908799
1699735783,9.1956172518,2.2504496553,3.4923245847,-0.0755945732270044,-0.19394971312786988,-0.10888672870879623,-58.68167202572347,-57.044723764981,-3.6831335866705643
1699735783,8.9874416856,2.8247270792999997,4.0223347905999995,-0.062002821677098564,-0.25320364123307737,-0.0070249502392771765,-59.28091201403098,-56.8401052323882,-3.171587255188541
1699735783,8.9874416856,2.8247270792999997,4.0223347905999995,-0.062002821677098564,-0.25320364123307737,-0.0070249502392771765,-59.617071031862025,-56.752411575562704,-3.6392867582578194
1699735783,8.654839344200001,3.4468609552999996,4.320241204299999,-0.05192354524683131,-0.2264782870619142,0.11331550168573185,-59.163987138263664,-56.88395206080094,-3.4054370067231803
1699735783,8.654839344200001,3.4468609552999996,4.320241204299999,-0.05192354524683131,-0.2264782870619142,0.11331550168573185,-59.14937152879275,-56.503946214557146,-3.712364805612394
1699735783,8.9144605963,3.0795626862,3.9804603951,-0.19242255003237485,-0.17776178431562248,0.14080443740464255,-59.587839812920194,-56.503946214557146,-4.647763811750949
1699735783,8.9144605963,3.0795626862,3.9804603951,-0.19242255003237485,-0.17776178431562248,0.14080443740464255,-59.2955276235019,-56.357790119848,-4.0777550423852675
1699735783,8.8785682573,2.7182464736,3.2530423247,-0.22968532956245377,-0.1235474944255486,0.16432274907526612,-59.368605670856475,-56.13855597778428,-4.413914060216311
1699735783,8.8785682573,2.7182464736,3.2530423247,-0.22968532956245377,-0.1235474944255486,0.16432274907526612,-59.777842736042096,-56.38702133878982,-4.180064308681672
1699735783,8.774480474199999,2.4598216327999998,2.7565316351999996,-0.17287486241003833,-0.08491026810952414,0.2075414646777757,-59.45629932768196,-56.503946214557146,-4.253142356036247
1699735783,8.774480474199999,2.4598216327999998,2.7565316351999996,-0.17287486241003833,-0.14004085585689502,0.1673770752662562,-59.66091786027478,-56.48933060508623,-3.6831335866705643
1699735783,8.6428752312,2.3856441322,2.9479574432,-0.2270891523001122,-0.14004085585689502,0.1673770752662562,-59.4855305466238,-56.08009353990061,-4.472376498099971
1699735783,8.6428752312,2.3856441322,2.9479574432,-0.36942075280024983,-0.1711949830049938,0.07437284275060838,-59.74861151710026,-55.84624378836598,-4.048523823443437
1699735783,8.769694829,2.1032910654,2.9694928465999997,-0.36942075280024983,-0.1711949830049938,0.07437284275060838,-59.9824612686349,-55.977784273604215,-4.910844782227419
1699735783,9.0149591455,1.6654045296,2.6117658679000004,-0.4702135171029223,-0.14584407561977614,-0.017256942979093935,-59.997076878105815,-55.90470622624964,-4.457760888629056
1699735783,9.0149591455,1.6654045296,2.6117658679000004,-0.4702135171029223,-0.14584407561977614,-0.017256942979093935,-59.86553639286758,-56.12394036831336,-5.393159894767612
1699735783,9.355936366,1.7036896912000001,2.3892333661,-0.519235452468313,-0.14110987002374156,-0.04306599929296008,-59.64630225080386,-55.89009061677872,-4.370067231803566
1699735783,9.355936366,1.7036896912000001,2.3892333661,-0.519235452468313,-0.14110987002374156,-0.04306599929296008,-59.38322128032739,-56.15317158725519,-4.866997953814674
1699735783,9.248259349,2.2707886474,2.4430718746,-0.4958698571072389,-0.2073887483682262,-0.022449297503777062,-59.923998830751245,-55.61239403683133,-4.0777550423852675
1699735783,9.248259349,2.2707886474,2.4430718746,-0.4958698571072389,-0.2073887483682262,-0.022449297503777062,-59.997076878105815,-55.74393452206957,-4.486992107570885
1699735783,9.1465643885,2.1846470338,2.7625136916999997,-0.4115704542359129,-0.25793784682911197,0.005497787143782138,-59.83630517392575,-55.29085062847121,-4.779304296989184
1699735783,9.1465643885,2.1846470338,2.7625136916999997,-0.4115704542359129,-0.25793784682911197,0.005497787143782138,-59.6901490792166,-55.75855013154049,-5.100847705349313
1699735783,9.1058864043,1.6570296505,2.9324040963,-0.3459024411296262,-0.25931229361505753,0.024434609527920613,-59.953230049693076,-55.58316281788951,-4.384682841274482
1699735783,9.1058864043,1.6570296505,2.9324040963,-0.3459024411296262,-0.25931229361505753,0.024434609527920613,-59.573224203449286,-55.70008769365683,-4.691610640163694
1699735783,9.2027957196,1.5840485612,2.7852455064000003,-0.18417586931670163,-0.19654589039021145,0.05406157358052436,-59.500146156094715,-55.07161648640748,-5.700087693656825
1699735783,9.2027957196,1.5840485612,2.7852455064000003,-0.18417586931670163,-0.19654589039021145,0.0516181126277323,-59.74861151710026,-55.61239403683133,-4.9254603916983335
1699735783,9.439685157,1.3471591237999998,2.5256242543,-0.05115996369908379,-0.09834930334988047,0.0516181126277323,-59.9824612686349,-55.553931598947685,-5.363928675825782
1699735783,9.439685157,1.3471591237999998,2.5256242543,-0.016951510359994926,-0.030848694528999777,0.047036623341247176,-59.6901490792166,-55.466237942122184,-5.057000876936568
1699735783,9.6502535458,0.9080761767,2.5208386090999997,-0.016951510359994926,-0.030848694528999777,0.047036623341247176,-60.30400467699503,-54.82315112540193,-5.91932183572055
1699735783,9.6502535458,0.9080761767,2.5208386090999997,0.011453723216212788,-0.04428772976935611,0.07024950239277176,-59.60245542239111,-54.96930722011108,-5.495469161064016
1699735783,9.499505722,0.7094719009,2.6943182475999996,0.011453723216212788,-0.04428772976935611,0.07024950239277176,-59.86553639286758,-54.560070154925455,-4.998538439052909
1699735783,9.207581364800001,1.3387842447,3.0436703472,0.057574048700162944,-0.099723750135826,0.1281289837120337,-59.76322712657118,-55.042385267465654,-6.094709149371528
1699735783,9.207581364800001,1.3387842447,3.0436703472,0.057574048700162944,-0.099723750135826,0.1281289837120337,-59.93861444022216,-54.67699503069278,-5.217772581116632
1699735783,8.9635134596,1.8005990065,3.098705267,0.038026361077826455,-0.1389718416900485,0.12996157942662775,-60.26015784858229,-54.7939199064601,-5.670856474714996
1699735783,8.9635134596,1.8005990065,3.098705267,0.038026361077826455,-0.1389718416900485,0.12996157942662775,-60.15784858228588,-55.10084770534931,-4.67699503069278
1699735783,9.1692962032,1.5780665047,3.1393832512,-0.11056660811384078,-0.1875356281267907,0.05589416929511841,-60.05553931598948,-55.1885413621748,-4.779304296989184
1699735783,9.3499543095,1.6223337227999999,3.3068808331999997,-0.18845192598408772,-0.19562959253291443,0.007635815477475192,-60.08477053493131,-55.20315697164572,-5.173925752703887
1699735783,9.3499543095,1.6223337227999999,3.3068808331999997,-0.18845192598408772,-0.19562959253291443,0.007635815477475192,-60.07015492546039,-54.73545746857644,-4.472376498099971
1699735783,9.200402897,2.0063817501,3.3786655112000004,-0.140346288475994,-0.13607023180860792,0.017409659288643436,-60.12861736334405,-54.67699503069278,-4.779304296989184
1699735783,9.229116768199999,1.6845471104,3.2829526072,-0.12415835966374661,-0.0675006088208807,-0.017867808217291947,-59.923998830751245,-54.69161064016369,-4.647763811750949
1699735783,9.229116768199999,1.6845471104,3.2829526072,-0.12415835966374661,-0.0675006088208807,-0.017867808217291947,-60.02630809704764,-54.70622624963462,-5.2470038000584625
1699735783,9.5617191096,0.7453642399,3.0077780082,-0.13240504037941983,-0.025961772623415653,-0.049480084294039245,-60.377082724349606,-54.82315112540193,-4.881613563285589
1699735783,9.5617191096,0.7453642399,3.0077780082,-0.13240504037941983,-0.025961772623415653,-0.049480084294039245,-60.40631394329144,-55.4808535515931,-5.057000876936568
1699735783,9.5461657627,0.6400800455,2.4538395763,-0.13729196228500395,-0.01069014166846527,-0.0079412480965742,-60.4647763811751,-54.940076001169246,-5.188541362174803
1699735783,9.5461657627,0.6400800455,2.4538395763,-0.1345430687131129,-0.05589416929511841,0.03955352417332149,-60.552470038000585,-54.896229172756506,-5.276235019000293
1699735783,9.3020978575,1.1988041226,2.297109696,-0.1345430687131129,-0.05589416929511841,0.03955352417332149,-60.333235895936866,-54.70622624963462,-5.495469161064016
1699735783,9.3020978575,1.1988041226,2.297109696,-0.0956004097779894,-0.1354593665704099,0.04673119072214818,-59.83630517392575,-54.63314820228003,-5.524700380005846
1699735783,9.0795653557,1.6043875533,2.7613172804,-0.0956004097779894,-0.1354593665704099,0.04673119072214818,-60.62554808535516,-55.13007892429115,-6.1677871967261035
1699735783,8.985048863000001,1.6917255782,3.2566315586,-0.09636399132573692,-0.19639317408066193,0.008704829644321718,-60.698626132709734,-54.720841859105526,-5.553931598947677
1699735783,8.985048863000001,1.6917255782,3.2566315586,-0.09636399132573692,-0.19639317408066193,0.008704829644321718,-60.49400760011693,-54.73545746857644,-4.501607717041801
1699735783,8.9718883387,1.7156538042,3.6562329328,-0.13286318930806834,-0.22342396087092412,-0.04276056667386108,-60.23092662964046,-54.63314820228003,-5.422391113709442
1699735783,8.9718883387,1.7156538042,3.6562329328,-0.13286318930806834,-0.22342396087092412,-0.04276056667386108,-60.4647763811751,-54.54545454545454,-5.261619409529377
1699735783,8.8570328539,1.866401628,3.7854453531999996,-0.14950926704896425,-0.1870774791981422,-0.06841690667817772,-60.39169833382052,-54.42852966968723,-5.437006723180357
1699735783,8.8570328539,1.866401628,3.7854453531999996,-0.14950926704896425,-0.1870774791981422,-0.06841690667817772,-61.04940076001169,-54.63314820228003,-4.940076001169249
1699735783,8.9659062822,1.8652052167000002,3.5270205124,-0.11972958668681101,-0.13316862192716733,-0.09850201965942997,-59.923998830751245,-54.92546039169833,-5.276235019000293
1699735783,8.9659062822,1.8652052167000002,3.5270205124,-0.11972958668681101,-0.13316862192716733,-0.09850201965942997,-60.523238819058754,-55.01315404852383,-4.633148202280035
1699735783,9.2685983411,1.5038890041,2.9407789753999998,-0.09590584239708841,-0.08323038870447959,-0.12003501930591003,-60.6693949137679,-55.33469745688395,-5.173925752703887
1699735783,9.2685983411,1.5038890041,2.9407789753999998,-0.09590584239708841,-0.08323038870447959,-0.12003501930591003,-60.34785150540778,-54.54545454545454,-4.384682841274482
1699735783,9.4480600361,1.4105689227,2.5387847786,-0.10949759394699425,-0.07498370798880638,-0.12140946609185554,-59.997076878105815,-55.33469745688395,-5.363928675825782
1699735783,9.4480600361,1.4105689227,2.5387847786,-0.10949759394699425,-0.07498370798880638,-0.12140946609185554,-59.80707395498393,-55.30546623794213,-4.998538439052909
1699735783,9.5569334644,1.3842478741,2.2205393728,-0.139735423237796,-0.11026117549474176,-0.11911872144861299,-60.36246711487869,-54.82315112540193,-5.057000876936568
1699735783,9.5569334644,1.3842478741,2.2205393728,-0.10552696989870715,-0.15027284859671178,-0.09330966513474685,-60.21631102016954,-54.75007307804736,-5.65624086524408
1699735783,9.535398061,1.4488540843,2.2552353005,-0.10552696989870715,-0.15027284859671178,-0.09330966513474685,-60.71324174218064,-55.01315404852383,-4.779304296989184
1699735783,9.535398061,1.4488540843,2.2552353005,-0.022602013813326566,-0.1586722456219345,-0.04505131131710363,-60.36246711487869,-55.1885413621748,-4.969307220111078
1699735783,9.5042913672,1.7216358607,2.5136601413,-0.022602013813326566,-0.1586722456219345,-0.04505131131710363,-60.333235895936866,-54.983922829581985,-5.422391113709442
1699735783,9.5258267706,1.8340985228999998,2.7026931267000003,0.000916297857297023,-0.14630222454842468,-0.0198531202414355,-60.45016077170418,-54.91084478222742,-4.647763811750949
1699735783,9.5258267706,1.8340985228999998,2.7026931267000003,0.000916297857297023,-0.14630222454842468,-0.0198531202414355,-60.71324174218064,-55.6854720841859,-5.217772581116632
1699735783,9.547362174,1.9022939669999999,2.8223342567,-0.0012217304763960308,-0.11652254418627142,-0.010231992739816757,-60.99093832212803,-55.33469745688395,-5.378544285296697
1699735783,9.547362174,1.9022939669999999,2.8223342567,-0.0012217304763960308,-0.11652254418627142,-0.010231992739816757,-60.64016369482608,-55.261619409529374,-4.209295527623502
1699735783,9.4097748745,1.7994025952000001,2.7972096194,0.046883907031697675,-0.07864889941799447,0.01679879405044542,-60.18707980122772,-55.01315404852383,-4.092370651856182
1699735783,9.4097748745,1.7994025952000001,2.7972096194,0.046883907031697675,-0.07864889941799447,0.01679879405044542,-60.24554223911137,-54.998538439052915,-4.311604793919907
1699735783,9.3499543095,1.7527425545,2.6213371583000002,0.10216721108861807,-0.03359758810089084,0.05635231822376691,-59.93861444022216,-55.320081847413036,-4.56007015492546
1699735783,9.3499543095,1.7527425545,2.6213371583000002,0.10216721108861807,-0.03359758810089084,0.05635231822376691,-59.967845659163984,-54.983922829581985,-4.983922829581994
1699735783,9.3020978575,1.7742779578999999,2.3928226,0.12629638799743967,-0.009010262263420726,0.06551529679673715,-60.74247296112247,-54.76468868751827,-5.422391113709442
1699735783,9.3020978575,1.7742779578999999,2.3928226,0.12629638799743967,-0.009010262263420726,0.06551529679673715,-60.62554808535516,-55.36392867582578,-4.223911137094417
1699735783,9.2829552767,1.6163516663,2.5028924396,0.12996157942662775,-0.0158824961931484,0.06627887834448466,-60.420929552762345,-54.95469161064016,-5.349313066354867
1699735783,9.2829552767,1.6163516663,2.5028924396,0.12996157942662775,-0.0158824961931484,0.06627887834448466,-60.12861736334405,-54.91084478222742,-5.188541362174803
1699735783,9.296115801,1.5481562222,3.0233313551,0.1472185224057217,-0.038789942625573975,0.0636827010821431,-60.31862028646594,-55.01315404852383,-5.130078924291142
1699735783,9.296115801,1.5481562222,3.0233313551,0.1472185224057217,-0.038789942625573975,0.0636827010821431,-60.333235895936866,-55.539315989476755,-5.071616486407484
1699735783,9.345168664300001,1.4524433182,3.1142586138999997,0.14844025288211773,-0.047952921198544204,0.06887505560682623,-60.05553931598948,-55.07161648640748,-4.662379421221865
1699735783,9.345168664300001,1.4524433182,3.1142586138999997,0.14844025288211773,-0.047952921198544204,0.06887505560682623,-60.53785442852967,-54.83776673487284,-5.173925752703887
1699735783,9.274580397600001,1.4572289634,3.0185457098999997,0.14340061466698412,-0.049174651674940235,0.08552113334772216,-60.81555100847705,-54.77930429698918,-4.70622624963461
1699735783,9.274580397600001,1.4572289634,3.0185457098999997,0.14340061466698412,-0.049174651674940235,0.08552113334772216,-61.06401636948261,-54.92546039169833,-4.7939199064601
1699735783,9.0293160811,1.8041882404,3.2327033326,0.1516472953826573,-0.049785516913138254,0.10247264370771707,-60.40631394329144,-55.07161648640748,-5.042385267465653
1699735783,9.0293160811,1.8041882404,3.2327033326,0.13209960776032081,-0.05604688560466791,0.06551529679673715,-60.68401052323882,-55.115463314820225,-4.881613563285589
1699735784,8.9048893059,1.9250257817,3.4791640604,0.13209960776032081,-0.05604688560466791,0.06551529679673715,-60.53785442852967,-54.384682841274476,-4.9254603916983335
1699735784,8.9048893059,1.9250257817,3.4791640604,0.10873401239924674,-0.05085453107998478,0.004123340357836604,-60.903244665302545,-54.58930137386729,-3.756211634025139
1699735784,8.997012975999999,1.8101702968999998,3.5270205124,0.10873401239924674,-0.05085453107998478,0.004123340357836604,-60.4647763811751,-54.852382344343766,-4.209295527623502
1699735784,9.1549392676,1.6414763036,3.421736318,0.08307767239493008,-0.03268129024359382,-0.037415495839628436,-60.43554516223326,-54.940076001169246,-3.49313066354867
1699735784,9.1549392676,1.6414763036,3.421736318,0.08307767239493008,-0.03268129024359382,-0.037415495839628436,-60.654779304296994,-54.73545746857644,-4.428529669687226
1699735784,9.2949193897,1.3100703735,3.3427731722,0.018784106074588972,-0.028252517266658207,-0.06246097060574707,-60.64016369482608,-54.940076001169246,-4.750073078047355
1699735784,9.2949193897,1.3100703735,3.3427731722,0.018784106074588972,-0.028252517266658207,-0.06246097060574707,-60.888629055831636,-54.866997953814675,-4.063139432914353
1699735784,9.3224368496,1.1210373881,3.3990045032999996,-0.03298672286269283,-0.02703078679026218,-0.0516181126277323,-60.49400760011693,-54.83776673487284,-4.267757965507162
1699735784,9.3224368496,1.1210373881,3.3990045032999996,-0.03298672286269283,-0.02703078679026218,-0.0516181126277323,-60.888629055831636,-54.618532592809125,-3.873136509792458
1699735784,9.224331123,1.4500504956,3.4827532943,-0.027641652028460195,-0.016187928812247405,-0.018173240836390957,-60.74247296112247,-54.23852674656533,-4.296989184448992
1699735784,9.224331123,1.4500504956,3.4827532943,-0.027641652028460195,-0.016187928812247405,-0.018173240836390957,-60.523238819058754,-54.7939199064601,-4.472376498099971
1699735784,9.1465643885,1.8089738856,3.1561330094,-0.05696318346196493,-0.021685715956029545,-0.024434609527920613,-60.552470038000585,-54.662379421221864,-3.814674071908799
1699735784,9.1465643885,1.8089738856,3.1561330094,-0.05696318346196493,-0.021685715956029545,-0.024434609527920613,-60.43554516223326,-54.720841859105526,-3.770827243496054
1699735784,9.140582332,1.7096717476999999,2.9036902251,-0.12156218240140505,-0.05070181477043527,-0.06688974358268268,-60.91786027477346,-54.443145279158145,-4.048523823443437
1699735784,9.140582332,1.7096717476999999,2.9036902251,-0.12156218240140505,-0.05070181477043527,-0.06688974358268268,-60.654779304296994,-54.69161064016369,-4.866997953814674
1699735784,9.2350988247,1.6079767872,2.8989045799,-0.15210544431130582,-0.07544185691745489,-0.08200865822808356,-60.523238819058754,-55.1885413621748,-4.633148202280035
1699735784,9.2350988247,1.6079767872,2.8989045799,-0.15210544431130582,-0.07544185691745489,-0.08200865822808356,-60.34785150540778,-55.086232095878394,-5.042385267465653
1699735784,9.1812603162,1.7431712641,3.1286155494999996,-0.17134769931454333,-0.09758572180213294,-0.09178250203925181,-60.34785150540778,-54.95469161064016,-4.70622624963461
1699735784,9.1812603162,1.7431712641,3.1286155494999996,-0.17134769931454333,-0.10125091323132103,-0.09911288489762798,-60.58170125694241,-55.20315697164572,-4.940076001169249
1699735784,9.0771725331,1.7970097726,3.1657042998000002,-0.1870774791981422,-0.10125091323132103,-0.09911288489762798,-60.377082724349606,-54.88161356328559,-5.071616486407484
1699735784,9.0771725331,1.7970097726,3.1657042998000002,-0.2144136986075034,-0.10048733168357353,-0.11636982787672193,-60.040923706518555,-55.07161648640748,-5.305466237942122
1699735784,9.1250289851,1.6402798923,3.1262227269,-0.2144136986075034,-0.10048733168357353,-0.11636982787672193,-60.24554223911137,-54.998538439052915,-5.334697456883952
1699735784,9.1250289851,1.6402798923,2.9036902251,-0.2157881453934489,-0.0919352183488013,-0.1114829059711378,-60.62554808535516,-55.29085062847121,-4.7939199064601
1699735784,9.1980100744,1.7180466268,2.9036902251,-0.2157881453934489,-0.0919352183488013,-0.1114829059711378,-60.24554223911137,-55.042385267465654,-5.057000876936568
1699735784,9.2829552767,1.6977076347,2.6428725617,-0.20693059943957767,-0.09804387073078145,-0.1113301896615883,-60.49400760011693,-55.539315989476755,-4.881613563285589
1699735784,9.2829552767,1.6977076347,2.6428725617,-0.20693059943957767,-0.09804387073078145,-0.1113301896615883,-60.30400467699503,-54.852382344343766,-5.758550131540485
1699735784,9.385846648500001,1.6342978358,2.6356940939,-0.19058995431778078,-0.11698069311491993,-0.10888672870879623,-60.28938906752411,-55.34931306635487,-4.866997953814674
1699735784,9.385846648500001,1.6342978358,2.6356940939,-0.19058995431778078,-0.11698069311491993,-0.10888672870879623,-59.9824612686349,-55.30546623794213,-5.510084770534932
1699735784,9.399007172800001,1.5768700934,2.8103701436999997,-0.16539176324211266,-0.12629638799743967,-0.08933904108645975,-59.79245834551301,-55.20315697164572,-5.013154048523823
1699735784,9.399007172800001,1.5768700934,2.8103701436999997,-0.16539176324211266,-0.12629638799743967,-0.08933904108645975,-59.923998830751245,-55.29085062847121,-4.326220403390821
1699735784,9.3020978575,1.8556339263000001,2.8773691765,-0.11728612573401895,-0.10430523942231112,-0.052228977865930316,-60.34785150540778,-54.95469161064016,-4.516223326512716
1699735784,9.3020978575,1.8556339263000001,2.8773691765,-0.11728612573401895,-0.10430523942231112,-0.052228977865930316,-60.20169541069863,-54.852382344343766,-4.691610640163694
1699735784,9.3511507208,1.9692929998,2.7577280465,-0.05604688560466791,-0.06994406977367276,-0.036193765363232405,-60.143232972814964,-55.276235019000296,-4.56007015492546
1699735784,9.3511507208,1.9692929998,2.7577280465,-0.05604688560466791,-0.06994406977367276,-0.036193765363232405,-60.02630809704764,-55.451622332651276,-5.188541362174803
1699735784,9.415756931,1.7563317884,2.6261228035000004,-0.030848694528999777,-0.04596760917440065,-0.037720928458727446,-60.12861736334405,-55.261619409529374,-5.2470038000584625
1699735784,9.415756931,1.7563317884,2.6261228035000004,-0.030848694528999777,-0.04596760917440065,-0.037720928458727446,-60.12861736334405,-55.539315989476755,-5.451622332651271
1699735784,9.296115801,1.7682959014000001,2.5339991334,-0.026878070480712675,-0.04276056667386108,-0.028405233576207712,-59.89476761180941,-55.74393452206957,-4.983922829581994
1699735784,9.296115801,1.7682959014000001,2.5339991334,-0.028099800957108706,-0.058948495486108476,-0.022449297503777062,-60.40631394329144,-55.466237942122184,-5.553931598947677
1699735784,9.2303131795,1.7431712641,2.5411776012,-0.028099800957108706,-0.058948495486108476,-0.022449297503777062,-59.967845659163984,-55.6854720841859,-5.65624086524408
1699735784,9.2303131795,1.7431712641,2.5411776012,0.005650503453331642,-0.06933320453547474,-0.02107485071783153,-59.90938322128033,-55.33469745688395,-5.217772581116632
1699735784,9.309276325299999,1.7192430381,2.7062823606,0.005650503453331642,-0.06933320453547474,-0.02107485071783153,-59.90938322128033,-55.217772581116634,-4.589301373867291
1699735784,9.309276325299999,1.6247265454,2.9204399833,0.02153299964648004,-0.07605272215565291,-0.012828170002158322,-60.08477053493131,-55.71470330312774,-4.516223326512716
1699735784,9.3379901965,1.6247265454,2.9204399833,0.02153299964648004,-0.07605272215565291,-0.012828170002158322,-59.719380298158434,-55.495469161064015,-4.67699503069278
1699735784,9.397810761499999,1.5541382787000002,3.0963124444,0.020616701789183015,-0.06643159465403417,0.0039706240482871,-59.997076878105815,-55.52470038000584,-4.983922829581994
1699735784,9.397810761499999,1.5541382787000002,3.0963124444,0.020616701789183015,-0.06643159465403417,0.0039706240482871,-59.93861444022216,-55.37854428529669,-4.954691610640164
1699735784,9.207581364800001,1.7264215058999999,3.3008987767,0.05238169417547982,-0.050549098460885775,0.035735616434583894,-60.143232972814964,-55.34931306635487,-5.583162817889506
1699735784,9.207581364800001,1.7264215058999999,3.3008987767,0.05238169417547982,-0.050549098460885775,0.035735616434583894,-60.099386144402224,-55.62700964630225,-4.486992107570885
1699735784,8.9192462415,2.0195422744,3.2769705507,0.1275181184738357,-0.013439035240356337,0.05619960191421741,-59.79245834551301,-54.91084478222742,-4.457760888629056
1699735784,8.9192462415,2.0195422744,3.2769705507,0.1275181184738357,-0.013439035240356337,0.05619960191421741,-59.90938322128033,-55.39315989476761,-4.53083893598363
1699735784,9.0676012427,2.0805592507,3.014956476,0.1317941751412218,0.016951510359994926,0.05085453107998478,-60.18707980122772,-55.495469161064015,-5.232388190587548
1699735784,9.0676012427,2.0805592507,3.014956476,0.1317941751412218,0.016951510359994926,0.05085453107998478,-60.45016077170418,-55.466237942122184,-4.486992107570885
1699735784,9.327222494799999,1.8759729184,2.7421746995999996,0.03527746750593539,-0.01038470904936626,0.007483099167925688,-59.953230049693076,-55.466237942122184,-5.5685472084185905
1699735784,9.327222494799999,1.8759729184,2.7421746995999996,0.03527746750593539,-0.01038470904936626,0.007483099167925688,-60.757088570593396,-55.14469453376206,-5.553931598947677
1699735784,9.327222494799999,1.7192430381,2.7182464736,-0.040011673101970006,-0.05314527572322733,-0.02748893571891069,-60.77170418006431,-55.15931014323298,-4.837766734872844
1699735784,9.327222494799999,1.7192430381,2.7182464736,-0.040011673101970006,-0.05314527572322733,-0.02748893571891069,-60.36246711487869,-55.20315697164572,-4.735457468576439
1699735784,9.2135634213,1.6677973521999998,2.9168507494,-0.04138611988791554,-0.05803219762881146,-0.019700403931885994,-60.15784858228588,-55.43700672318036,-5.334697456883952
1699735784,9.2135634213,1.6677973521999998,2.9168507494,-0.04138611988791554,-0.05803219762881146,-0.019700403931885994,-60.07015492546039,-55.15931014323298,-4.750073078047355
1699735784,9.207581364800001,1.722832272,3.0029923629999997,-0.04046982203061852,-0.0439822971502571,-0.014966198335851376,-59.967845659163984,-55.422391113709445,-5.363928675825782
1699735784,9.207581364800001,1.722832272,3.0029923629999997,-0.04046982203061852,-0.0439822971502571,-0.014966198335851376,-59.90938322128033,-55.15931014323298,-5.159310143232973
1699735784,9.2566342281,2.0015961049,3.0209385325,-0.012217304763960306,-0.03222314131494531,0.00916297857297023,-59.9824612686349,-55.320081847413036,-4.7646886875182695
1699735784,9.2566342281,2.0015961049,3.0209385325,-0.012217304763960306,-0.03222314131494531,0.00916297857297023,-60.12861736334405,-55.320081847413036,-5.261619409529377
1699735784,9.2757768089,2.237289131,2.8582265956999997,0.022143864884678056,-0.020311269170084013,0.0277943683380097,-60.17246419175679,-55.4808535515931,-4.70622624963461
1699735784,9.2757768089,2.237289131,2.8582265956999997,-0.01756237559819294,-0.0317649923862968,0.003817907738737596,-60.08477053493131,-55.6854720841859,-4.998538439052909
1699735784,9.2458665264,2.0015961049,2.6584259086,-0.01756237559819294,-0.0317649923862968,0.003817907738737596,-60.11400175387314,-54.866997953814675,-4.063139432914353
1699735784,9.2458665264,2.0015961049,2.6584259086,-0.06444628262989062,-0.0438295808407076,-0.012064588454410803,-59.953230049693076,-55.37854428529669,-4.779304296989184
1699735784,9.229116768199999,1.8843477975,2.6129622792,-0.06444628262989062,-0.0438295808407076,-0.012064588454410803,-59.86553639286758,-55.086232095878394,-5.013154048523823
1699735784,9.2386880586,1.842473402,2.6668007876999997,-0.07895433203709348,-0.04260785036431157,-0.0035124751196385882,-60.26015784858229,-55.4808535515931,-5.261619409529377
1699735784,9.2386880586,1.842473402,2.6668007876999997,-0.07895433203709348,-0.04260785036431157,-0.0035124751196385882,-60.01169248757673,-55.43700672318036,-5.904706226249635
1699735784,9.109475638200001,1.7670994901,2.6871397798,-0.060781091200702526,-0.03665191429188092,0.007635815477475192,-60.34785150540778,-55.466237942122184,-4.7939199064601
1699735784,9.109475638200001,1.7670994901,2.6871397798,-0.060781091200702526,-0.03665191429188092,0.007635815477475192,-59.85092078339667,-55.71470330312774,-4.881613563285589
1699735784,8.975477572600001,1.6881363443,2.8498517166,-0.020005836550985003,-0.03955352417332149,-0.004581489286485115,-59.923998830751245,-55.23238819058754,-5.393159894767612
1699735784,8.975477572600001,1.6881363443,2.8498517166,-0.020005836550985003,-0.03955352417332149,-0.004581489286485115,-60.21631102016954,-55.56854720841859,-5.188541362174803
1699735784,8.7912302324,1.6677973521999998,2.9467610319,-0.012217304763960306,-0.052228977865930316,-0.047647488579445195,-60.81555100847705,-55.15931014323298,-5.393159894767612
1699735784,8.7912302324,1.6677973521999998,2.9467610319,-0.012217304763960306,-0.052228977865930316,-0.047647488579445195,-59.83630517392575,-55.15931014323298,-5.641625255773166
1699735784,8.818747692299999,1.5469598109,3.038884702,-0.02626720524251466,-0.08414668656177661,-0.12263119656825158,-60.11400175387314,-55.96316866413329,-5.159310143232973
1699735784,8.818747692299999,1.5469598109,3.038884702,-0.02626720524251466,-0.08414668656177661,-0.12263119656825158,-60.26015784858229,-55.4808535515931,-5.510084770534932
1699735784,9.3427758417,1.6426727149,3.2757741394,0.017715091907742442,-0.1111774733520388,-0.12629638799743967,-59.74861151710026,-55.831628178895066,-4.837766734872844
1699735784,9.3427758417,1.6426727149,3.2757741394,0.017715091907742442,-0.1111774733520388,-0.12629638799743967,-59.9824612686349,-55.65624086524408,-5.115463314820228
1699735784,9.4851487864,1.8496518698,3.4743784152000003,0.16172657181292455,-0.10079276430267253,-0.026114488932965158,-59.70476468868752,-55.261619409529374,-4.516223326512716
1699735784,9.4851487864,1.8496518698,3.4743784152000003,0.16172657181292455,-0.10079276430267253,-0.026114488932965158,-60.2747734580532,-55.670856474714995,-5.042385267465653
1699735784,9.176474671,1.7036896912000001,3.3080772444999997,0.2344195351584884,-0.0678060414399797,-0.000916297857297023,-60.07015492546039,-55.75855013154049,-4.326220403390821
1699735784,9.176474671,1.7036896912000001,3.3080772444999997,0.2344195351584884,-0.056505034533316414,-0.016187928812247405,-60.12861736334405,-56.32855890090617,-4.0777550423852675
1699735784,9.4899344316,1.4656038425,3.0699913958000002,0.14019357216644454,-0.056505034533316414,-0.016187928812247405,-60.24554223911137,-55.451622332651276,-4.048523823443437
1699735784,9.4899344316,1.4656038425,3.0699913958000002,0.07269296334556383,-0.05772676500971245,0.0012217304763960308,-59.90938322128033,-55.641625255773164,-4.355451622332652
1699735784,9.5162554802,1.3770694063,3.0053851856000002,0.07269296334556383,-0.05772676500971245,0.0012217304763960308,-59.79245834551301,-55.81701256942414,-4.881613563285589
1699735784,9.5162554802,1.3770694063,3.0053851856000002,0.06719517620178168,-0.05711589977151443,0.02275473012287607,-60.08477053493131,-55.62700964630225,-4.355451622332652
1699735784,9.233902413400001,1.5409777544,2.9276184511,0.06719517620178168,-0.05711589977151443,0.02275473012287607,-59.73399590762934,-55.72931891259866,-4.61853259280912
1699735784,9.233902413400001,1.6426727149,2.8773691765,0.05253441048502932,-0.059864793343405505,0.018020524526841452,-60.08477053493131,-55.466237942122184,-4.6039169833382045
1699735784,9.247062937699999,1.6426727149,2.8773691765,0.05253441048502932,-0.059864793343405505,0.018020524526841452,-59.617071031862025,-55.466237942122184,-4.472376498099971
1699735784,9.2769732202,1.4524433182,2.9682964353,0.03940080786377199,-0.06566801310628666,0.0012217304763960308,-59.777842736042096,-55.670856474714995,-4.457760888629056
1699735784,9.2769732202,1.4524433182,2.9682964353,0.03940080786377199,-0.06566801310628666,0.0012217304763960308,-60.02630809704764,-55.52470038000584,-4.516223326512716
1699735784,9.272187575,1.6857435217,3.1525437755,0.08979719001510825,-0.038331793696925465,0.02183843226557905,-60.02630809704764,-55.422391113709445,-4.370067231803566
1699735784,9.272187575,1.6857435217,3.1525437755,0.08979719001510825,-0.038331793696925465,0.02183843226557905,-60.24554223911137,-55.1885413621748,-4.486992107570885
1699735784,9.1968136631,2.0063817501,3.0855447427,0.14416419621473162,-0.004428772976935611,0.029474247743054238,-60.15784858228588,-55.01315404852383,-3.4638994446068403
1699735784,9.1968136631,2.0063817501,3.0855447427,0.14416419621473162,-0.004428772976935611,0.029474247743054238,-59.60245542239111,-55.29085062847121,-4.180064308681672
1699735784,9.2315095908,1.8735800958,2.8390840148999996,0.13194689145077132,0.008246680715673207,0.012828170002158322,-63.43174510377083,-55.15931014323298,-4.253142356036247
1699735784,9.2315095908,1.8735800958,2.8390840148999996,0.13194689145077132,0.008246680715673207,0.012828170002158322,-60.099386144402224,-55.01315404852383,-4.326220403390821
1699735785,9.4731846734,1.6905291669,2.7337998205,0.0755945732270044,0.003817907738737596,0.009010262263420726,-59.777842736042096,-55.29085062847121,-3.916983338205203
1699735785,9.495916488099999,1.6869399330000001,2.8307091358,0.07773260156069746,-0.0006108652381980154,0.04046982203061852,-59.93861444022216,-55.320081847413036,-4.720841859105525
1699735785,9.495916488099999,1.6869399330000001,2.8307091358,0.07773260156069746,-0.0006108652381980154,0.04046982203061852,-59.73399590762934,-55.20315697164572,-4.691610640163694
1699735785,9.207581364800001,1.6917255782,2.8307091358,0.1270599695451872,0.002138028333693054,0.07147123286916779,-59.88015200233849,-54.92546039169833,-5.071616486407484
1699735785,9.207581364800001,1.6917255782,2.8307091358,0.1270599695451872,0.002138028333693054,0.07147123286916779,-60.07015492546039,-55.15931014323298,-4.340836012861737
1699735785,9.0735832992,1.6773686425999998,2.9611179675,0.16615534478986016,0.0035124751196385882,0.07651087108430142,-59.777842736042096,-55.261619409529374,-4.2823735749780765
1699735785,9.0735832992,1.6773686425999998,2.9611179675,0.16615534478986016,0.0035124751196385882,0.07651087108430142,-59.953230049693076,-55.23238819058754,-4.720841859105525
1699735785,9.0053878551,1.8999011444,3.1884361145,0.18906279122228575,0.003665191429188092,0.06398813370124211,-59.953230049693076,-55.07161648640748,-4.501607717041801
1699735785,9.0053878551,1.8999011444,3.1884361145,0.18906279122228575,0.003665191429188092,0.06398813370124211,-60.02630809704764,-55.39315989476761,-4.969307220111078
1699735785,9.0723868879,2.0685951377,3.0819555088,0.15745051514553846,-0.006872233929727673,0.024740042147019622,-59.64630225080386,-55.29085062847121,-5.217772581116632
1699735785,9.0723868879,2.0685951377,3.0819555088,0.15745051514553846,-0.006872233929727673,0.024740042147019622,-60.08477053493131,-54.88161356328559,-4.516223326512716
1699735785,9.2458665264,1.8352949342,2.8175486115,0.07880161572754397,-0.0439822971502571,-0.030543261909900768,-59.953230049693076,-55.217772581116634,-3.8877521192633733
1699735785,9.2458665264,1.8352949342,2.8175486115,0.07880161572754397,-0.0439822971502571,-0.030543261909900768,-60.377082724349606,-55.495469161064015,-4.238526746565332
1699735785,9.3116691479,1.6307086019,2.7780670386,0.047036623341247176,-0.06597344572538566,-0.03375030441044035,-60.23092662964046,-55.29085062847121,-5.2031569716457176
1699735785,9.3116691479,1.6307086019,2.7780670386,0.06597344572538566,-0.05207626155638081,-0.0024434609527920616,-60.420929552762345,-54.852382344343766,-3.7854428529669684
1699735785,9.3583291886,1.6378870697,2.9431717980000003,0.06597344572538566,-0.05207626155638081,-0.0024434609527920616,-60.20169541069863,-55.34931306635487,-4.033908213972523
1699735785,9.3583291886,1.4979069476,3.2362925665,0.08384125394267761,-0.03940080786377199,0.022143864884678056,-60.23092662964046,-55.34931306635487,-3.8292896813797133
1699735785,9.3236332609,1.4979069476,3.2362925665,0.08384125394267761,-0.03940080786377199,0.022143864884678056,-59.9824612686349,-55.14469453376206,-2.8646594562993277
1699735785,9.2111705987,1.5230315848999998,3.2889346637,0.10293079263636558,-0.020922134408282025,0.047494772269895694,-59.90938322128033,-55.17392575270389,-3.756211634025139
1699735785,9.2111705987,1.5230315848999998,3.2889346637,0.10293079263636558,-0.020922134408282025,0.047494772269895694,-60.20169541069863,-55.56854720841859,-4.165448699210757
1699735785,9.1369930981,1.5409777544,3.1621150658999997,0.08231409084718257,-0.015424347264499889,0.05803219762881146,-59.9824612686349,-55.23238819058754,-4.296989184448992
1699735785,9.1369930981,1.5409777544,3.1621150658999997,0.08231409084718257,-0.015424347264499889,0.05803219762881146,-59.80707395498393,-55.01315404852383,-4.413914060216311
1699735785,8.9814596291,1.9513468303000001,3.0604201053999995,0.049174651674940235,-0.024434609527920613,0.05711589977151443,-60.18707980122772,-55.320081847413036,-4.048523823443437
1699735785,8.9814596291,1.9513468303000001,3.0604201053999995,0.049174651674940235,-0.024434609527920613,0.05711589977151443,-60.72785735165156,-54.67699503069278,-4.194679918152587
1699735785,9.0041914438,2.1906290903,2.9730820805000002,0.024587325837470118,-0.0438295808407076,0.015424347264499889,-60.18707980122772,-55.29085062847121,-4.501607717041801
1699735785,9.0041914438,2.1906290903,2.9730820805000002,0.024587325837470118,-0.0438295808407076,0.015424347264499889,-59.953230049693076,-55.36392867582578,-4.136217480268927
1699735785,9.2255275343,1.7324035624,2.9994031291,-0.030695978219450273,-0.07376197751241036,-0.05314527572322733,-60.21631102016954,-55.39315989476761,-3.43466822566501
1699735785,9.2255275343,1.7324035624,2.9994031291,-0.030695978219450273,-0.07376197751241036,-0.05314527572322733,-60.21631102016954,-55.30546623794213,-4.750073078047355
1699735785,9.3176512044,1.459621786,3.3188449462,-0.047647488579445195,-0.08643743120501916,-0.06551529679673715,-59.85092078339667,-55.539315989476755,-3.741596024554224
1699735785,9.3176512044,1.459621786,3.3188449462,-0.047647488579445195,-0.08643743120501916,-0.06551529679673715,-60.420929552762345,-55.495469161064015,-4.457760888629056
1699735785,9.2267239456,1.7264215058999999,3.3774690999,-0.0070249502392771765,-0.05635231822376691,-0.025198191075668133,-60.333235895936866,-55.217772581116634,-3.770827243496054
1699735785,9.2267239456,1.7264215058999999,3.3774690999,-0.0070249502392771765,-0.05635231822376691,-0.025198191075668133,-60.31862028646594,-54.998538439052915,-3.449283835135925
1699735785,9.188438784,1.7958133612999998,2.9754749031,0.025350907385217634,-0.01511891464540088,-0.0024434609527920616,-60.8593978368898,-55.042385267465654,-4.180064308681672
1699735785,9.188438784,1.7958133612999998,2.9754749031,0.025350907385217634,-0.01511891464540088,-0.0024434609527920616,-60.567085647471494,-54.866997953814675,-3.9462145571470333
1699735785,9.2554378168,1.639083481,2.7290141752999997,0.005650503453331642,-0.009621127501618741,-0.009010262263420726,-60.43554516223326,-55.086232095878394,-3.7854428529669684
1699735785,9.2554378168,1.639083481,2.7290141752999997,0.005650503453331642,-0.009621127501618741,-0.009010262263420726,-60.8593978368898,-55.01315404852383,-4.589301373867291
1699735785,9.3415794304,1.746760498,2.7302105866,-0.040317105721069016,-0.03268129024359382,-0.014202616788103856,-60.34785150540778,-54.998538439052915,-4.355451622332652
1699735785,9.3415794304,1.746760498,2.7302105866,-0.040317105721069016,-0.05345070834232634,-0.018020524526841452,-60.552470038000585,-55.086232095878394,-4.194679918152587
1699735785,9.2913301558,1.8053846516999998,2.7828526838,-0.030543261909900768,-0.05345070834232634,-0.018020524526841452,-60.15784858228588,-55.261619409529374,-4.866997953814674
1699735785,9.2913301558,1.8053846516999998,2.7828526838,0.020616701789183015,-0.05390885727097486,-0.015271630954950384,-60.479391990646015,-54.92546039169833,-4.7646886875182695
1699735785,9.2183490665,1.5840485612,2.9060830476999997,0.020616701789183015,-0.05390885727097486,-0.015271630954950384,-60.143232972814964,-55.17392575270389,-4.472376498099971
1699735785,9.2183490665,1.5840485612,2.9060830476999997,0.048258353817643214,-0.038179077387375956,0.003665191429188092,-60.12861736334405,-54.80853551593101,-4.779304296989184
1699735785,9.1824567275,1.6259229567,3.0604201053999995,0.048258353817643214,-0.038179077387375956,0.003665191429188092,-60.20169541069863,-54.720841859105526,-4.750073078047355
1699735785,9.1824567275,1.8101702968999998,2.9395825641,0.05589416929511841,-0.015424347264499889,0.019242255003237483,-60.479391990646015,-55.24700380005846,-4.092370651856182
1699735785,9.3044906801,1.8101702968999998,2.9395825641,0.05589416929511841,-0.015424347264499889,0.019242255003237483,-60.9617071031862,-54.95469161064016,-4.53083893598363
1699735785,9.327222494799999,1.6749758199999998,2.7589244578,0.05268712679457882,-0.018936822384138473,0.005345070834232635,-60.94709149371529,-55.14469453376206,-4.296989184448992
1699735785,9.327222494799999,1.6749758199999998,2.7589244578,0.05268712679457882,-0.018936822384138473,0.005345070834232635,-60.50862320958784,-54.983922829581985,-3.9023677287342884
1699735785,9.1932244292,1.663011707,2.8797619991,0.08292495608538057,-0.022143864884678056,0.016493361431346415,-60.34785150540778,-55.58316281788951,-4.384682841274482
1699735785,9.1932244292,1.663011707,2.8797619991,0.08292495608538057,-0.022143864884678056,0.016493361431346415,-60.36246711487869,-55.34931306635487,-4.413914060216311
1699735785,9.1465643885,1.8257236438,3.0616165167,0.09834930334988047,-0.01634064512179691,0.028099800957108706,-60.040923706518555,-54.83776673487284,-4.647763811750949
1699735785,9.1465643885,1.8257236438,3.0616165167,0.09834930334988047,-0.01634064512179691,0.028099800957108706,-60.12861736334405,-55.23238819058754,-3.7854428529669684
1699735785,9.2039921309,1.8376877568,3.1274191382,0.09498954453979139,-0.018631389765039467,0.0158824961931484,-59.86553639286758,-55.6854720841859,-4.779304296989184
1699735785,9.2039921309,1.8376877568,3.1274191382,0.09498954453979139,-0.018631389765039467,0.0158824961931484,-60.17246419175679,-55.36392867582578,-4.808535515931014
1699735785,9.274580397600001,1.7120645703,3.0077780082,0.09178250203925181,-0.01557706357404939,0.012675453692608817,-59.85092078339667,-55.597778427360424,-4.2823735749780765
1699735785,9.274580397600001,1.7120645703,3.0077780082,0.09178250203925181,-0.01557706357404939,0.012675453692608817,-59.953230049693076,-55.641625255773164,-4.589301373867291
1699735785,9.1692962032,1.8209379986,2.8498517166,0.0954476934684399,-0.015424347264499889,0.017256942979093935,-60.11400175387314,-55.261619409529374,-3.7854428529669684
1699735785,9.1692962032,1.8209379986,2.8498517166,0.0954476934684399,-0.015424347264499889,0.017256942979093935,-60.15784858228588,-55.115463314820225,-3.9023677287342884
1699735785,9.1561356789,1.8807585636,2.7613172804,0.1149953810907764,-0.017256942979093935,0.022449297503777062,-60.377082724349606,-55.37854428529669,-4.004676995030692
1699735785,9.1561356789,1.8807585636,2.7613172804,0.1149953810907764,-0.017256942979093935,0.022449297503777062,-60.20169541069863,-55.01315404852383,-4.150833089739843
1699735785,9.2051885422,1.8089738856,2.8570301844,0.11514809740032589,-0.035735616434583894,0.005955936072430649,-59.997076878105815,-55.276235019000296,-3.595439929845075
1699735785,9.2051885422,1.8089738856,2.8570301844,0.11514809740032589,-0.035735616434583894,0.005955936072430649,-60.21631102016954,-55.51008477053493,-4.823151125401929
1699735785,9.220741889100001,1.6893327556000002,3.0005995404,0.09880745227852898,-0.04902193536539073,-0.002748893571891069,-60.49400760011693,-54.80853551593101,-4.7646886875182695
1699735785,9.220741889100001,1.6893327556000002,3.0005995404,0.09880745227852898,-0.04902193536539073,-0.002748893571891069,-60.53785442852967,-55.01315404852383,-5.349313066354867
1699735785,9.2578306394,1.6689937635,3.1381868399,0.07147123286916779,-0.049785516913138254,0.0022907446432425577,-60.62554808535516,-55.042385267465654,-5.232388190587548
1699735785,9.2578306394,1.6689937635,3.1381868399,0.07147123286916779,-0.049785516913138254,0.0022907446432425577,-60.23092662964046,-55.115463314820225,-4.70622624963461
1699735785,9.1453679772,1.7970097726,3.1992038162000003,0.07208209810736581,-0.04581489286485115,0.013439035240356337,-60.43554516223326,-55.13007892429115,-5.013154048523823
1699735785,9.1453679772,1.7970097726,3.1992038162000003,0.08567384965727166,-0.0358883327441334,0.018478673455489966,-60.74247296112247,-54.77930429698918,-4.7939199064601
1699735785,9.1262253964,1.8640088054,3.0939196218,0.08567384965727166,-0.0358883327441334,0.018478673455489966,-60.099386144402224,-54.37006723180357,-4.457760888629056
1699735785,9.1262253964,1.8640088054,3.086741154,0.07528914060790538,-0.027183503099811684,0.013744467859455345,-60.24554223911137,-54.866997953814675,-5.2470038000584625
1699735785,9.2793660428,1.7670994901,3.086741154,0.07528914060790538,-0.027183503099811684,0.013744467859455345,-60.21631102016954,-54.76468868751827,-5.495469161064016
1699735785,9.2231347117,1.7647066674999998,3.11066938,0.06627887834448466,-0.023518311670623588,0.009315694882519734,-60.479391990646015,-54.866997953814675,-4.852382344343759
1699735785,9.2231347117,1.7647066674999998,3.11066938,0.06627887834448466,-0.023518311670623588,0.009315694882519734,-60.099386144402224,-55.217772581116634,-4.326220403390821
1699735785,9.128618219,1.8544375149999999,3.0843483314,0.08521570072862314,-0.018631389765039467,0.011759155835311794,-60.420929552762345,-55.33469745688395,-5.612394036831335
1699735785,9.128618219,1.8544375149999999,3.0843483314,0.08521570072862314,-0.018631389765039467,0.011759155835311794,-60.552470038000585,-55.33469745688395,-4.7939199064601
1699735785,9.0939222913,1.9022939669999999,2.9336005076,0.11392636692392986,-0.014202616788103856,0.00717766654882668,-60.43554516223326,-54.88161356328559,-5.422391113709442
1699735785,9.0939222913,1.9022939669999999,2.9336005076,0.11392636692392986,-0.014202616788103856,0.00717766654882668,-60.40631394329144,-54.88161356328559,-5.977784273604209
1699735785,9.274580397600001,1.7120645703,2.8917261120999997,0.06505714786808864,-0.02901609881440573,-0.006719517620178169,-60.43554516223326,-54.70622624963462,-4.940076001169249
1699735785,9.274580397600001,1.7120645703,2.8917261120999997,0.06505714786808864,-0.02901609881440573,-0.006719517620178169,-60.34785150540778,-54.70622624963462,-5.524700380005846
1699735785,9.3140619705,1.7324035624,3.0137600647,-0.02641992155206416,-0.06337726846304409,-0.02550362369476714,-60.45016077170418,-54.92546039169833,-4.574685764396375
1699735785,9.3140619705,1.7324035624,3.0137600647,-0.02641992155206416,-0.06337726846304409,-0.02550362369476714,-60.18707980122772,-55.14469453376206,-4.516223326512716
1699735785,9.1980100744,1.8759729184,3.1034909122000003,-0.03130684345764829,-0.06429356632034111,-0.02229658119422756,-60.15784858228588,-55.43700672318036,-4.647763811750949
1699735785,9.1980100744,1.8759729184,3.1034909122000003,-0.03130684345764829,-0.06429356632034111,-0.02229658119422756,-60.62554808535516,-55.29085062847121,-4.866997953814674
1699735785,9.2279203569,1.8412769907000002,2.9826533709,0.007330382858376184,-0.037262779530078935,-0.01313360262125733,-60.68401052323882,-54.77930429698918,-4.56007015492546
1699735785,9.2279203569,1.8412769907000002,2.9826533709,0.007330382858376184,-0.037262779530078935,-0.01313360262125733,-60.4647763811751,-55.217772581116634,-4.516223326512716
1699735785,9.3463650756,1.7288143285,2.7433711108999996,0.0277943683380097,-0.019700403931885994,-0.009010262263420726,-60.420929552762345,-55.539315989476755,-4.238526746565332
1699735785,9.3463650756,1.7288143285,2.7433711108999996,0.0277943683380097,-0.019700403931885994,-0.009010262263420726,-60.31862028646594,-55.81701256942414,-4.998538439052909
1699735785,9.3523471321,1.6402798923,2.6859433685,0.04337143191205909,-0.018173240836390957,0.005497787143782138,-60.12861736334405,-54.95469161064016,-4.326220403390821
1699735785,9.3523471321,1.6402798923,2.6859433685,0.04337143191205909,-0.018173240836390957,0.005497787143782138,-60.24554223911137,-55.1885413621748,-5.363928675825782
1699735785,9.219545477799999,1.7527425545,2.9252256285000002,0.04627304179349966,-0.02748893571891069,0.026572637861613665,-60.36246711487869,-54.60391698333821,-4.70622624963461
1699735785,9.219545477799999,1.7527425545,2.9252256285000002,0.04627304179349966,-0.02748893571891069,0.026572637861613665,-60.040923706518555,-54.73545746857644,-4.56007015492546
1699735785,9.081958178299999,1.9286150156,3.1058837348,0.05253441048502932,-0.03145955976719779,0.030695978219450273,-60.45016077170418,-54.88161356328559,-4.545454545454546
1699735785,9.081958178299999,1.9286150156,3.1058837348,0.05253441048502932,-0.03145955976719779,0.030695978219450273,-60.83016661794797,-54.70622624963462,-4.779304296989184
1699735785,9.095118702599999,1.890329854,3.0293134116,0.05497787143782138,-0.03115412714809878,0.009773843811168246,-60.596316866413325,-54.69161064016369,-5.057000876936568
1699735785,9.095118702599999,1.890329854,3.0293134116,0.05497787143782138,-0.03115412714809878,0.009773843811168246,-60.83016661794797,-54.618532592809125,-4.355451622332652
1699735785,9.2626162846,1.6546368279,2.9036902251,0.039706240482871,-0.03268129024359382,-0.013439035240356337,-60.30400467699503,-54.76468868751827,-4.61853259280912
1699735785,9.2626162846,1.6546368279,2.9036902251,0.039706240482871,-0.03268129024359382,-0.013439035240356337,-60.333235895936866,-54.998538439052915,-4.662379421221865
1699735785,9.2853480993,1.5708880369,2.9156543381000004,0.024434609527920613,-0.04230241774521256,-0.014202616788103856,-60.377082724349606,-54.60391698333821,-4.296989184448992
1699735786,9.2853480993,1.5708880369,2.9156543381000004,0.024434609527920613,-0.04230241774521256,0.0013744467859455344,-60.49400760011693,-54.70622624963462,-4.779304296989184
1699735786,9.2350988247,1.7120645703,3.0412775246,0.019700403931885994,-0.04612032548395016,0.0013744467859455344,-60.64016369482608,-54.67699503069278,-4.56007015492546
1699735786,9.273383986299999,1.7850456596,3.1238299043,0.01710422666954443,-0.040011673101970006,0.009010262263420726,-60.26015784858229,-54.7939199064601,-5.363928675825782
1699735786,9.273383986299999,1.7850456596,3.1238299043,0.01710422666954443,-0.040011673101970006,0.009010262263420726,-59.9824612686349,-54.69161064016369,-4.574685764396375
1699735786,9.1920280179,1.7395820302,3.1286155494999996,0.03405573702953935,-0.02748893571891069,0.01114829059711378,-60.377082724349606,-54.39929845074539,-4.516223326512716
1699735786,9.1920280179,1.7395820302,3.1286155494999996,0.03405573702953935,-0.02748893571891069,0.01114829059711378,-60.377082724349606,-54.64776381175095,-5.115463314820228
1699735786,9.140582332,1.782652837,2.9730820805000002,0.05131268000863329,-0.014508049407202865,0.017409659288643436,-60.099386144402224,-54.998538439052915,-4.7939199064601
1699735786,9.140582332,1.782652837,2.9730820805000002,0.05131268000863329,-0.014508049407202865,0.017409659288643436,-60.43554516223326,-54.77930429698918,-4.954691610640164
1699735786,9.1896351953,1.7599210223,2.8402804262,0.049174651674940235,-0.020463985479633514,0.007635815477475192,-60.30400467699503,-54.54545454545454,-4.516223326512716
1699735786,9.1896351953,1.7599210223,2.8402804262,0.049174651674940235,-0.020463985479633514,0.007635815477475192,-60.523238819058754,-54.64776381175095,-5.115463314820228
1699735786,9.2793660428,1.6857435217,2.8510481279,0.036804630601430424,-0.03955352417332149,-0.004734205596034618,-60.11400175387314,-54.25314235603624,-4.735457468576439
1699735786,9.2793660428,1.6857435217,2.8510481279,0.036804630601430424,-0.03955352417332149,-0.004734205596034618,-60.28938906752411,-54.64776381175095,-4.428529669687226
1699735786,9.3032942688,1.6043875533,3.0173492985999997,0.017715091907742442,-0.058948495486108476,-0.012828170002158322,-60.377082724349606,-54.530838935983624,-5.027769657994739
1699735786,9.3032942688,1.6043875533,3.0173492985999997,0.017715091907742442,-0.058948495486108476,-0.012828170002158322,-60.4647763811751,-54.516223326512716,-4.691610640163694
1699735786,9.2494557603,1.6486547714,3.2219356309,0.014202616788103856,-0.05803219762881146,-0.001069014166846527,-60.49400760011693,-54.472376498099976,-4.267757965507162
1699735786,9.2494557603,1.6486547714,3.2219356309,0.014202616788103856,-0.05803219762881146,-0.001069014166846527,-60.552470038000585,-54.472376498099976,-4.106986261327098
1699735786,9.1381895094,1.7204394494000002,3.3355947043999996,0.03665191429188092,-0.03466660226773737,0.018631389765039467,-60.479391990646015,-54.472376498099976,-4.969307220111078
1699735786,9.1381895094,1.7204394494000002,3.3355947043999996,0.03665191429188092,-0.03466660226773737,0.018631389765039467,-60.2747734580532,-54.16544869921076,-7.132417421806489
1699735786,9.0915294687,1.8269200550999998,3.2123643404999997,0.05329799203277684,-0.012522737383059314,0.027947084647559205,-60.143232972814964,-54.560070154925455,-5.144694533762058
1699735786,9.0915294687,1.8269200550999998,3.2123643404999997,0.05329799203277684,-0.012522737383059314,0.027947084647559205,-60.18707980122772,-54.852382344343766,-4.238526746565332
1699735786,9.1058864043,1.9585252981,2.8809584104000003,0.03375030441044035,-0.01313360262125733,0.011453723216212788,-59.923998830751245,-54.67699503069278,-3.58082432037416
1699735786,9.1058864043,1.9585252981,2.8809584104000003,0.03375030441044035,-0.01313360262125733,0.011453723216212788,-60.377082724349606,-54.69161064016369,-3.741596024554224
1699735786,9.2386880586,1.7491533206,2.7637101029999998,0.001832595714594046,-0.03665191429188092,-0.019547687622336492,-60.4647763811751,-54.25314235603624,-3.6685179771996492
1699735786,9.2386880586,1.7491533206,2.7637101029999998,0.001832595714594046,-0.03665191429188092,-0.019547687622336492,-60.15784858228588,-54.443145279158145,-3.7269804150833092
1699735786,9.272187575,1.5720844482,2.9682964353,-0.010995574287564275,-0.06017022596250451,-0.02748893571891069,-60.523238819058754,-54.67699503069278,-4.019292604501608
1699735786,9.272187575,1.5720844482,2.9682964353,-0.010995574287564275,-0.06017022596250451,-0.02748893571891069,-60.420929552762345,-54.37006723180357,-4.53083893598363
1699735786,9.284151688,1.6295121905999999,3.1046873235,0.019547687622336492,-0.04642575810304917,-0.0013744467859455344,-60.21631102016954,-54.70622624963462,-4.106986261327098
1699735786,9.284151688,1.6295121905999999,3.1046873235,0.019547687622336492,-0.04642575810304917,0.014508049407202865,-60.40631394329144,-54.16544869921076,-3.595439929845075
1699735786,9.2781696315,1.6953148121,3.1190442591,0.050396382151336266,-0.02748893571891069,0.014508049407202865,-60.50862320958784,-54.662379421221864,-4.67699503069278
1699735786,9.2781696315,1.6953148121,3.1190442591,0.061697389057999555,-0.019089538693687978,0.02336559536107409,-60.143232972814964,-54.852382344343766,-4.311604793919907
1699735786,9.2662055185,1.6522440053,3.1453653077,0.061697389057999555,-0.019089538693687978,0.02336559536107409,-59.967845659163984,-54.19467991815259,-4.662379421221865
1699735786,9.2662055185,1.6522440053,3.1453653077,0.05772676500971245,-0.01511891464540088,0.03329215548179183,-59.66091786027478,-54.296989184449,-4.209295527623502
1699735786,9.1334038642,1.7515461432000001,3.2075786953,0.05772676500971245,-0.01511891464540088,0.03329215548179183,-60.479391990646015,-54.23852674656533,-4.048523823443437
1699735786,9.1011007591,1.9226329591,3.0460631697999996,0.04627304179349966,-0.0035124751196385882,0.04123340357836603,-59.967845659163984,-54.340836012861736,-4.647763811750949
1699735786,9.1011007591,1.9226329591,3.0460631697999996,0.04627304179349966,-0.0035124751196385882,0.04123340357836603,-60.12861736334405,-54.39929845074539,-4.808535515931014
1699735786,9.2398844699,1.8245272325,2.8630122409,0.002596177262341565,-0.014049900478554353,0.017867808217291947,-60.23092662964046,-54.25314235603624,-4.106986261327098
1699735786,9.2398844699,1.8245272325,2.8630122409,0.002596177262341565,-0.014049900478554353,0.017867808217291947,-60.30400467699503,-54.019292604501615,-4.194679918152587
1699735786,9.3810610033,1.4500504956,2.9575287336000002,-0.038942658935123484,-0.029932396671702752,0.004276056667386108,-59.997076878105815,-53.887752119263375,-4.370067231803566
1699735786,9.3810610033,1.4500504956,2.9575287336000002,-0.038942658935123484,-0.029932396671702752,0.004276056667386108,-60.4647763811751,-54.19467991815259,-4.340836012861737
1699735786,9.2853480993,1.5780665047,3.0257241777000004,-0.00198531202414355,-0.00198531202414355,0.047647488579445195,-60.24554223911137,-53.82928968137971,-5.2031569716457176
1699735786,9.2853480993,1.5780665047,3.0257241777000004,-0.00198531202414355,-0.00198531202414355,0.047647488579445195,-60.21631102016954,-53.84390529085062,-4.67699503069278
1699735786,9.2147598326,1.7455640867,2.9551359109999997,0.11621711156717243,0.05345070834232634,0.09865473596897947,-60.12861736334405,-54.19467991815259,-4.779304296989184
1699735786,9.2147598326,1.7455640867,2.9551359109999997,0.11621711156717243,0.05345070834232634,0.09865473596897947,-60.61093247588425,-53.75621163402514,-4.545454545454546
1699735786,9.1980100744,1.9298114269,2.7553352239,0.23686299611128042,0.0879645943005142,0.12522737383059315,-60.64016369482608,-53.85852090032154,-3.800058462437884
1699735786,9.1980100744,1.9298114269,2.7553352239,0.23686299611128042,0.0879645943005142,0.12522737383059315,-60.39169833382052,-54.560070154925455,-5.290850628471207
1699735786,9.2159562439,2.0315063874,2.5351955446999996,0.3045163212417107,0.09040805525330627,0.12293662918735059,-60.31862028646594,-53.80005846243788,-5.0862320958783975
1699735786,9.2159562439,2.0315063874,2.5351955446999996,0.3045163212417107,0.09040805525330627,0.12293662918735059,-60.50862320958784,-53.66851797719965,-5.100847705349313
1699735786,9.391828705,1.9453647738,2.4215364712,0.2993239667170275,0.061850105367549056,0.09987646644537551,-60.43554516223326,-53.65390236772873,-5.173925752703887
1699735786,9.391828705,1.9453647738,2.4215364712,0.2993239667170275,0.061850105367549056,0.09987646644537551,-60.099386144402224,-53.30312774042678,-5.057000876936568
1699735786,9.4923272542,1.6414763036,2.4191436486,0.23289237206299335,0.010842857978014772,0.06673702727313317,-60.26015784858229,-53.63928675825782,-4.7646886875182695
1699735786,9.4923272542,1.6414763036,2.4191436486,0.23289237206299335,0.010842857978014772,0.06673702727313317,-60.53785442852967,-53.63928675825782,-4.910844782227419
1699735786,9.455238503899999,1.4105689227,2.6955146589,0.2067778831300282,-0.020463985479633514,0.06154467274845005,-60.61093247588425,-53.47851505407776,-4.472376498099971
1699735786,9.455238503899999,1.4105689227,2.6955146589,0.2067778831300282,-0.020463985479633514,0.06154467274845005,-60.58170125694241,-53.610055539315994,-4.896229172756504
1699735786,9.3104727366,1.4249258583,3.1669007111,0.28725937826261666,-0.00839939702522271,0.10247264370771707,-60.596316866413325,-53.84390529085062,-4.180064308681672
1699735786,9.3104727366,1.4249258583,3.1669007111,0.3494149162492648,0.029932396671702752,0.1359175154990584,-60.567085647471494,-53.69774919614147,-4.413914060216311
1699735786,9.1513500337,1.4560325521,3.4791640604,0.3494149162492648,0.029932396671702752,0.1359175154990584,-60.81555100847705,-53.49313066354867,-4.545454545454546
1699735786,9.1513500337,1.4560325521,3.4791640604,0.37675113565862595,0.0679587577495292,0.15225816062085534,-60.83016661794797,-53.580824320374155,-4.384682841274482
1699735786,9.064012008799999,1.5661023917,3.4540394231000002,0.37675113565862595,0.0679587577495292,0.15225816062085534,-60.83016661794797,-53.87313650979246,-4.501607717041801
1699735786,9.064012008799999,1.5661023917,3.4540394231000002,0.3761402704204279,0.08811731061006371,0.15317445847815234,-60.479391990646015,-53.74159602455423,-4.413914060216311
1699735786,9.0747797105,1.6666009409,3.4229327293,0.3761402704204279,0.08811731061006371,0.15317445847815234,-60.596316866413325,-53.65390236772873,-4.4431452791581405
1699735786,9.1669033806,1.6342978358,3.4636107135,0.33124167541287386,0.07834346679889546,0.13011429573617728,-60.874013446360706,-53.536977491961416,-3.6246711487869043
1699735786,9.1669033806,1.6342978358,3.4636107135,0.33124167541287386,0.07834346679889546,0.13011429573617728,-60.43554516223326,-53.463899444606845,-3.741596024554224
1699735786,9.1465643885,1.4787643668000001,3.5377882141000003,0.28466320100027515,0.06001750965295501,0.11392636692392986,-60.40631394329144,-53.17158725518855,-4.2823735749780765
1699735786,9.1465643885,1.4787643668000001,3.5377882141000003,0.28466320100027515,0.06001750965295501,0.11392636692392986,-60.64016369482608,-53.536977491961416,-4.370067231803566
1699735786,9.0496550732,1.4931213024,3.6634114006,0.27336219409361184,0.059101211795657985,0.12003501930591003,-60.932475884244376,-53.11312481730488,-5.173925752703887
1699735786,9.0496550732,1.4931213024,3.6634114006,0.27336219409361184,0.059101211795657985,0.12003501930591003,-61.26863490207541,-53.054662379421224,-4.910844782227419
1699735786,8.9216390641,1.6725829974,3.6251262389999996,0.2817615911188346,0.06963863715457375,0.1308778772839248,-60.81555100847705,-53.43466822566501,-5.115463314820228
1699735786,8.9216390641,1.6725829974,3.6251262389999996,0.2817615911188346,0.06963863715457375,0.1308778772839248,-60.99093832212803,-53.06927798889214,-4.837766734872844
1699735786,8.9383888223,1.7982061838999999,3.4707891813,0.24984388242298827,0.06612616203493515,0.1114829059711378,-60.80093539900614,-53.56620871090324,-5.115463314820228
1699735786,8.9383888223,1.7982061838999999,3.4707891813,0.24984388242298827,0.06612616203493515,0.1114829059711378,-60.49400760011693,-53.3177433498977,-4.70622624963461
1699735786,9.0472622506,1.8209379986,3.2602207924999997,0.18997908907958277,0.046883907031697675,0.07437284275060838,-60.552470038000585,-53.332358959368605,-5.188541362174803
1699735786,9.0472622506,1.8209379986,3.2602207924999997,0.18997908907958277,0.046883907031697675,0.07437284275060838,-60.888629055831636,-52.952353113124815,-4.735457468576439
1699735786,9.1573320902,1.6965112234000002,3.1441688964,0.13423763609401387,0.02504547476611863,0.04260785036431157,-61.51710026308097,-52.89389067524116,-4.940076001169249
1699735786,9.1573320902,1.6965112234000002,3.1441688964,0.13423763609401387,0.02504547476611863,0.04260785036431157,-61.2540192926045,-52.89389067524116,-4.7939199064601
1699735786,9.2219383004,1.4919248910999998,3.0855447427,0.12476922490194463,0.019089538693687978,0.030695978219450273,-61.06401636948261,-52.87927506577025,-4.6039169833382045
1699735786,9.2219383004,1.4919248910999998,3.0855447427,0.12476922490194463,0.019089538693687978,0.030695978219450273,-61.122478807366264,-53.20081847413037,-4.779304296989184
1699735786,9.2626162846,1.3686945272,3.0592236941,0.15851952931238497,0.027641652028460195,0.04505131131710363,-61.487869044139146,-53.06927798889214,-4.413914060216311
1699735786,9.2626162846,1.3686945272,3.0592236941,0.15851952931238497,0.027641652028460195,0.04505131131710363,-61.26863490207541,-53.332358959368605,-4.501607717041801
1699735786,9.2781696315,1.4703894876999999,3.0795626862,0.20280725908174108,0.0320704250053958,0.06918048822592524,-60.81555100847705,-52.99619994153756,-5.071616486407484
1699735786,9.2781696315,1.4703894876999999,3.0795626862,0.20280725908174108,0.0320704250053958,0.06918048822592524,-61.10786319789535,-53.054662379421224,-3.800058462437884
1699735786,9.242277292499999,1.6019947307,3.1166514365,0.22204951408497858,0.029779680362153248,0.08582656596682116,-60.757088570593396,-53.27389652148494,-4.779304296989184
1699735786,9.242277292499999,1.6019947307,3.1166514365,0.22204951408497858,0.029779680362153248,0.08582656596682116,-61.020169541069855,-52.66004092370652,-4.866997953814674
1699735786,9.2027957196,1.6019947307,3.1740791789,0.22250766301362707,0.022143864884678056,0.08811731061006371,-61.06401636948261,-53.054662379421224,-4.063139432914353
1699735786,9.2027957196,1.6019947307,3.1740791789,0.22250766301362707,0.029779680362153248,0.09666942394483594,-61.09324758842444,-52.981584332066646,-4.633148202280035
1699735786,9.1573320902,1.5852449725,3.2889346637,0.2509128965898348,0.029779680362153248,0.09666942394483594,-61.16632563577902,-52.76235019000293,-4.2823735749780765
1699735786,9.1573320902,1.5852449725,3.2889346637,0.2967277894546859,0.05009094953223726,0.11010845918519226,-61.2540192926045,-53.054662379421224,-3.697749196141479
1699735786,9.1501536224,1.6067803759000001,3.3655049869,0.2967277894546859,0.05009094953223726,0.11010845918519226,-61.13709441683718,-52.19234142063725,-3.9462145571470333
1699735786,9.1501536224,1.6067803759000001,3.3655049869,0.3190243706489135,0.06673702727313317,0.1075122819228507,-60.84478222741888,-52.82081262788658,-3.332358959368606
1699735786,9.1262253964,1.5948162629,3.3212377687999997,0.3190243706489135,0.06673702727313317,0.1075122819228507,-60.932475884244376,-52.572347266881025,-4.954691610640164
1699735786,9.2398844699,1.5493526335,3.2458638569,0.3196352358871115,0.07345654489331135,0.09911288489762798,-61.06401636948261,-52.10464776381175,-4.165448699210757
1699735786,9.2398844699,1.5493526335,3.2458638569,0.3196352358871115,0.07345654489331135,0.09911288489762798,-61.13709441683718,-52.38234434375914,-4.823151125401929
1699735786,9.2135634213,1.5469598109,3.1836504693,0.31108312255233933,0.07070765132142026,0.10506882097005864,-60.903244665302545,-52.13387898275358,-4.370067231803566
1699735786,9.2135634213,1.5469598109,3.1836504693,0.31108312255233933,0.07070765132142026,0.10506882097005864,-61.13709441683718,-52.528500438468285,-4.969307220111078
1699735786,9.1633141467,1.5852449725,3.1034909122000003,0.31978795219666106,0.07208209810736581,0.1192714377581625,-60.9617071031862,-52.075416544869924,-3.916983338205203
1699735786,9.1633141467,1.5852449725,3.1034909122000003,0.31978795219666106,0.07208209810736581,0.1192714377581625,-61.13709441683718,-52.38234434375914,-3.7269804150833092
1699735786,9.081958178299999,1.5373885205000002,3.170489945,0.3543018381548489,0.06520986417763813,0.12492194121149414,-61.13709441683718,-52.1631102016954,-4.238526746565332
1699735786,9.081958178299999,1.5373885205000002,3.170489945,0.3543018381548489,0.06520986417763813,0.12492194121149414,-61.06401636948261,-52.426191172171876,-4.267757965507162
1699735786,9.0711904766,1.4763715442,3.385843979,0.3953825254236654,0.05131268000863329,0.1311833099030238,-60.874013446360706,-52.71850336159017,-4.194679918152587
1699735786,9.0711904766,1.4763715442,3.385843979,0.3953825254236654,0.05131268000863329,0.1311833099030238,-61.19555685472085,-52.58696287635194,-4.720841859105525
1699735787,9.0735832992,1.4656038425,3.4983066412,0.41202860316456136,0.048869219055841226,0.1354593665704099,-60.976322712657115,-52.68927214264835,-4.940076001169249
1699735787,9.0735832992,1.4656038425,3.4983066412,0.41202860316456136,0.048869219055841226,0.1354593665704099,-60.58170125694241,-52.484653610055545,-3.55159310143233
1699735787,9.068797654,1.4895320685,3.5138599880999997,0.4210388654279821,0.04459316238845512,0.12965614680752877,-60.976322712657115,-52.19234142063725,-5.027769657994739
1699735787,9.068797654,1.4895320685,3.5138599880999997,0.4210388654279821,0.04459316238845512,0.12965614680752877,-60.58170125694241,-52.28003507746273,-3.7269804150833092
1699735787,9.068797654,1.4584253747,3.6442688197999997,0.4134030499505069,0.03375030441044035,0.11972958668681101,-60.99093832212803,-52.19234142063725,-4.428529669687226
1699735787,9.068797654,1.4584253747,3.6442688197999997,0.4134030499505069,0.03375030441044035,0.11972958668681101,-61.356328558900906,-52.3384975153464,-3.756211634025139
1699735787,8.9778703952,1.6103696098,3.8668013215999997,0.3952298091141159,0.024587325837470118,0.11392636692392986,-61.28325051154633,-51.82695118386437,-3.273896521484946
1699735787,8.9778703952,1.6103696098,3.8668013215999997,0.3952298091141159,0.024587325837470118,0.11392636692392986,-61.61940952937738,-52.03156971645717,-4.267757965507162
1699735787,8.889335959,1.7659030788,3.9720855159999995,0.34895676732061626,0.021685715956029545,0.09789115442123195,-61.40017538731365,-52.148494592224495,-4.67699503069278
1699735787,8.889335959,1.7659030788,3.9720855159999995,0.34895676732061626,0.021685715956029545,0.09789115442123195,-61.34171294943,-52.19234142063725,-4.501607717041801
1699735787,8.9216390641,1.7539389658,3.8249269261,0.26404649921109213,0.01389718416900485,0.06398813370124211,-61.312481730488166,-51.88541362174802,-4.033908213972523
1699735787,8.9216390641,1.7539389658,3.8249269261,0.26404649921109213,0.01389718416900485,0.06398813370124211,-60.9617071031862,-51.62233265127156,-3.5662087109032443
1699735787,9.010173500299999,1.4045868662,3.7124642639,0.15378532371635034,-0.01389718416900485,0.02138028333693054,-61.40017538731365,-51.9584916691026,-4.0777550423852675
1699735787,9.010173500299999,1.4045868662,3.7124642639,0.15378532371635034,-0.01389718416900485,0.019394971312786988,-61.40017538731365,-51.68079508915522,-3.171587255188541
1699735787,8.9587278144,1.387837108,3.7292140221,0.11682797680537042,-0.029626964052603743,0.019394971312786988,-61.32709733995908,-52.22157263957907,-3.8292896813797133
1699735787,8.9587278144,1.387837108,3.7292140221,0.13805554383275148,-0.02306016274197508,0.03283400655314333,-61.86787489038292,-51.94387605963169,-3.8292896813797133
1699735787,8.961120637,1.6139588437,3.6478580537000003,0.13805554383275148,-0.02306016274197508,0.03283400655314333,-61.19555685472085,-52.04618532592809,-3.507746273019585
1699735787,8.961120637,1.6139588437,3.6478580537000003,0.13301590561761784,-0.03375030441044035,0.014660765716752368,-61.429406606255476,-52.13387898275358,-3.6831335866705643
1699735787,9.0496550732,1.6354942471,3.5186456333,0.13301590561761784,-0.03375030441044035,0.014660765716752368,-61.34171294943,-52.04618532592809,-3.7269804150833092
1699735787,9.0496550732,1.6354942471,3.5186456333,0.0876591616814152,-0.059864793343405505,-0.014813482026301871,-61.458637825197314,-52.32388190587548,-3.4638994446068403
1699735787,9.148957211099999,1.5684952143000002,3.4791640604,0.0876591616814152,-0.059864793343405505,-0.014813482026301871,-60.903244665302545,-52.17772581116633,-3.8877521192633733
1699735787,9.1118684608,1.6546368279,3.4145578502,0.038789942625573975,-0.0716239491787173,-0.020463985479633514,-60.81555100847705,-51.84156679333528,-4.0777550423852675
1699735787,9.1118684608,1.6546368279,3.4145578502,0.038789942625573975,-0.0716239491787173,-0.020463985479633514,-61.487869044139146,-52.23618824904999,-3.712364805612394
1699735787,9.064012008799999,1.6977076347,3.3750762773,0.03252857393404432,-0.06963863715457375,-0.019394971312786988,-61.66325635779012,-52.426191172171876,-4.472376498099971
1699735787,9.064012008799999,1.6977076347,3.3750762773,0.03252857393404432,-0.06963863715457375,-0.019394971312786988,-61.44402221572639,-52.075416544869924,-4.209295527623502
1699735787,9.0891366461,1.6941184008,3.3200413575,0.04230241774521256,-0.07116580025006879,-0.028405233576207712,-61.66325635779012,-52.23618824904999,-3.9462145571470333
1699735787,9.0891366461,1.6941184008,3.3200413575,0.04230241774521256,-0.07116580025006879,-0.028405233576207712,-61.078631978953524,-52.19234142063725,-3.6246711487869043
1699735787,9.0795653557,1.7443676754000002,3.2530423247,0.048258353817643214,-0.07864889941799447,-0.03940080786377199,-61.21017246419176,-52.51388482899737,-3.1569716457176265
1699735787,9.0795653557,1.7443676754000002,3.2530423247,0.048258353817643214,-0.07864889941799447,-0.03940080786377199,-61.51710026308097,-52.32388190587548,-3.916983338205203
1699735787,9.0879402348,1.7814564256999998,3.218346397,0.03375030441044035,-0.09025533894375676,-0.0478002048889947,-61.34171294943,-52.426191172171876,-3.800058462437884
1699735787,9.0879402348,1.7814564256999998,3.218346397,0.03375030441044035,-0.09025533894375676,-0.0478002048889947,-60.874013446360706,-52.20695703010816,-3.507746273019585
1699735787,9.1836531388,1.7156538042,3.1549365981,0.00717766654882668,-0.09758572180213294,-0.05009094953223726,-61.034785150540785,-52.499269219526454,-4.033908213972523
1699735787,9.1836531388,1.7156538042,3.1549365981,0.00717766654882668,-0.09758572180213294,-0.05009094953223726,-61.09324758842444,-52.148494592224495,-3.756211634025139
1699735787,9.2506521716,1.5026925928000001,3.2769705507,0.004276056667386108,-0.10155634585042005,-0.047036623341247176,-60.62554808535516,-52.1631102016954,-3.6246711487869043
1699735787,9.2506521716,1.5026925928000001,3.2769705507,0.004276056667386108,-0.10155634585042005,-0.047036623341247176,-60.976322712657115,-52.484653610055545,-3.960830166617948
1699735787,9.2231347117,1.4177473905,3.5306097463,0.04612032548395016,-0.08445211918087563,-0.018631389765039467,-61.59017831043555,-52.38234434375914,-3.1569716457176265
1699735787,9.2231347117,1.4177473905,3.5306097463,0.04612032548395016,-0.08445211918087563,-0.018631389765039467,-61.020169541069855,-52.572347266881025,-3.303127740426776
1699735787,9.0580299523,1.6522440053,3.6502508763,0.08582656596682116,-0.05192354524683131,0.020922134408282025,-61.47325343466823,-52.23618824904999,-2.7185033615901784
1699735787,9.0580299523,1.6522440053,3.6502508763,0.08582656596682116,-0.05192354524683131,0.020922134408282025,-61.151710026308095,-52.23618824904999,-2.981584332066647
1699735787,9.0221376133,1.8723836845000001,3.5234312785000004,0.07101308394051928,-0.03344487179134134,0.02306016274197508,-61.487869044139146,-52.10464776381175,-2.747734580532008
1699735787,9.0221376133,1.8723836845000001,3.5234312785000004,0.07101308394051928,-0.03344487179134134,0.02306016274197508,-61.18094124524993,-52.55773165741011,-2.820812627886583
1699735787,9.0843510009,1.7838492483,3.3702906320999997,0.006566801310628665,-0.04184426881656405,-0.006261368691529657,-61.23940368313359,-52.29465068693364,-3.332358959368606
1699735787,9.0843510009,1.7838492483,3.3702906320999997,0.006566801310628665,-0.04184426881656405,-0.006261368691529657,-61.634025138848294,-51.84156679333528,-2.966968722595732
1699735787,9.1465643885,1.6737794087,3.2973095428,-0.047494772269895694,-0.06291911953439558,-0.030848694528999777,-61.32709733995908,-52.1631102016954,-2.6746565331774335
1699735787,9.1465643885,1.6737794087,3.2973095428,-0.047494772269895694,-0.0798706298943905,-0.047647488579445195,-61.56094709149371,-52.32388190587548,-3.317743349897691
1699735787,9.1322074529,1.579262916,3.3583265191000002,-0.058490346557459966,-0.0798706298943905,-0.047647488579445195,-61.70710318620286,-52.23618824904999,-3.507746273019585
1699735787,9.1322074529,1.579262916,3.3583265191000002,-0.08200865822808356,-0.08643743120501916,-0.05299255941367783,-61.86787489038292,-51.94387605963169,-2.148494592224496
1699735787,9.1704926145,1.4297115034999999,3.4037901484999997,-0.08200865822808356,-0.08643743120501916,-0.05299255941367783,-61.2540192926045,-51.81233557439345,-3.770827243496054
1699735787,9.1704926145,1.4297115034999999,3.4037901484999997,-0.09178250203925181,-0.0836885376331281,-0.047494772269895694,-61.51710026308097,-51.81233557439345,-3.4638994446068403
1699735787,9.1669033806,1.4321043261,3.5078779316,-0.09178250203925181,-0.0836885376331281,-0.047494772269895694,-61.37094416837182,-52.29465068693364,-3.58082432037416
1699735787,9.1669033806,1.4321043261,3.5078779316,-0.06291911953439558,-0.06276640322484607,-0.024892758456569127,-61.23940368313359,-52.03156971645717,-7.01549254603917
1699735787,9.1022971704,1.6498511827,3.5006994637999997,-0.06291911953439558,-0.06276640322484607,-0.024892758456569127,-61.502484653610054,-52.41157556270096,-2.9523531131248175
1699735787,9.068797654,1.8017954178,3.2817561959000003,-0.037568212149177944,-0.04902193536539073,-0.026114488932965158,-61.10786319789535,-52.58696287635194,-2.8500438468284126
1699735787,9.068797654,1.8017954178,3.2817561959000003,-0.037568212149177944,-0.04902193536539073,-0.026114488932965158,-60.80093539900614,-52.148494592224495,-2.981584332066647
1699735787,9.1022971704,1.6534404165999999,3.1645078885,-0.040622538340168025,-0.06246097060574707,-0.05299255941367783,-61.034785150540785,-52.44080678164279,-3.1131248173048816
1699735787,9.1022971704,1.6534404165999999,3.1645078885,-0.040622538340168025,-0.06246097060574707,-0.05299255941367783,-61.41479099678456,-52.36772873428822,-2.747734580532008
1699735787,9.2099741874,1.5254244074999999,3.1740791789,-0.07513642429835589,-0.08124507668033605,-0.0635299847725936,-61.40017538731365,-52.32388190587548,-2.9231218941829873
1699735787,9.2099741874,1.5254244074999999,3.1740791789,-0.07513642429835589,-0.08124507668033605,-0.0635299847725936,-61.458637825197314,-52.148494592224495,-2.2508038585209005
1699735787,9.2542414055,1.5421741657,3.146561719,-0.10735956561330119,-0.09010262263420726,-0.05604688560466791,-61.6486407483192,-52.119263373282664,-2.6892721426483486
1699735787,9.2542414055,1.5421741657,3.146561719,-0.10735956561330119,-0.09010262263420726,-0.05604688560466791,-61.40017538731365,-52.32388190587548,-2.9377375036539024
1699735787,9.242277292499999,1.5266208188,3.2099715178999997,-0.09453139561114288,-0.08842274322916273,-0.04169155250701455,-61.458637825197314,-51.870798012277106,-3.054662379421222
1699735787,9.242277292499999,1.5266208188,3.2099715178999997,-0.09453139561114288,-0.08842274322916273,-0.04169155250701455,-61.26863490207541,-52.3384975153464,-2.6454253142356037
1699735787,9.1573320902,1.4656038425,3.2817561959000003,-0.062002821677098564,-0.0836885376331281,-0.03329215548179183,-61.23940368313359,-52.77696579947384,-2.7038877521192632
1699735787,9.1573320902,1.4656038425,3.2817561959000003,-0.062002821677098564,-0.0836885376331281,-0.03329215548179183,-61.122478807366264,-52.51388482899737,-3.1569716457176265
1699735787,8.9862452743,1.7910277161,3.3930224468000003,0.008552113334772215,-0.06765332513043021,-0.009773843811168246,-61.29786612101724,-52.630809704764694,-3.3615901783104354
1699735787,8.9862452743,1.7910277161,3.3930224468000003,0.008552113334772215,-0.06765332513043021,-0.009773843811168246,-61.40017538731365,-52.908506284712075,-2.981584332066647
1699735787,9.0305124924,2.0123638066000002,3.2470602682000003,0.03527746750593539,-0.050243665841786765,-0.00992656012071775,-60.654779304296994,-52.51388482899737,-3.4200526161940954
1699735787,9.0305124924,2.0123638066000002,3.2470602682000003,0.03527746750593539,-0.050243665841786765,-0.00992656012071775,-61.122478807366264,-52.38234434375914,-2.192341420637241
1699735787,9.2410808812,1.7515461432000001,3.0053851856000002,-0.04260785036431157,-0.07147123286916779,-0.05451972250917286,-61.22478807366267,-52.51388482899737,-2.3238819058754747
1699735787,9.2410808812,1.7515461432000001,3.0053851856000002,-0.04260785036431157,-0.07147123286916779,-0.05451972250917286,-61.7363344051447,-52.47003800058463,-2.4408067816427943
1699735787,9.3116691479,1.4177473905,3.1848468806000003,-0.08720101275276669,-0.10384709049366261,-0.06887505560682623,-61.66325635779012,-52.1631102016954,-2.4554223911137094
1699735787,9.3116691479,1.4177473905,3.1848468806000003,-0.08720101275276669,-0.10384709049366261,-0.06887505560682623,-61.19555685472085,-52.41157556270096,-2.966968722595732
1699735787,9.2171526552,1.4033904549,3.4731820039,-0.05803219762881146,-0.09621127501618743,-0.03283400655314333,-60.976322712657115,-52.499269219526454,-3.55159310143233
1699735787,9.2171526552,1.4033904549,3.4731820039,-0.05803219762881146,-0.09621127501618743,0.01710422666954443,-61.078631978953524,-52.3384975153464,-1.9877228880444315
1699735787,9.140582332,1.5505490447999999,3.493520996,0.012064588454410803,-0.047036623341247176,0.01710422666954443,-61.487869044139146,-52.002338497515346,-2.265419467991815
1699735787,9.140582332,1.5505490447999999,3.493520996,0.0439822971502571,-0.025656340004316644,0.02306016274197508,-61.13709441683718,-52.04618532592809,-2.484653610055539
1699735787,9.050851484499999,1.6271193679999998,3.3284162366,0.0439822971502571,-0.025656340004316644,0.02306016274197508,-61.21017246419176,-52.3384975153464,-2.5431160479391988
1699735787,9.050851484499999,1.6271193679999998,3.3284162366,0.04871650274629172,-0.03237585762449481,0.01114829059711378,-61.09324758842444,-51.98772288804443,-2.3823443437591347
1699735787,8.9910309195,1.7072789251,3.3511480513,0.04871650274629172,-0.03237585762449481,0.01114829059711378,-61.16632563577902,-52.148494592224495,-2.1631102016954107
1699735787,8.9910309195,1.7072789251,3.3511480513,0.07315111227421234,-0.028099800957108706,0.0004581489286485115,-61.41479099678456,-52.30926629640456,-2.5869628763519437
1699735787,8.9814596291,1.7850456596,3.3284162366,0.07315111227421234,-0.028099800957108706,0.0004581489286485115,-61.677871967261034,-52.13387898275358,-3.054662379421222
1699735787,8.9814596291,1.7850456596,3.3284162366,0.027336219409361186,-0.047952921198544204,-0.038179077387375956,-61.312481730488166,-52.26541946799181,-2.9085062847120726
1699735787,9.1585285015,1.6354942471,3.2111679291999997,0.027336219409361186,-0.047952921198544204,-0.038179077387375956,-61.10786319789535,-51.870798012277106,-3.449283835135925
1699735787,9.3260260835,1.3770694063,3.2518459134,-0.05513058774737088,-0.0914770694201528,-0.08277223977583108,-61.04940076001169,-52.806197018415666,-2.747734580532008
1699735787,9.3260260835,1.3770694063,3.2518459134,-0.05513058774737088,-0.0914770694201528,-0.08277223977583108,-61.34171294943,-52.89389067524116,-2.7038877521192632
1699735787,9.2853480993,1.328016543,3.5353953915,-0.06734789251133119,-0.11010845918519226,-0.07834346679889546,-61.28325051154633,-51.900029231218944,-3.0254311604793918
1699735787,9.2853480993,1.328016543,3.5353953915,-0.06734789251133119,-0.11010845918519226,-0.07834346679889546,-61.19555685472085,-52.32388190587548,-2.2508038585209005
1699735787,9.09272588,1.4943177136999999,3.7435709577,-0.0160352125026979,-0.0798706298943905,-0.04184426881656405,-61.29786612101724,-52.28003507746273,-2.557731657410114
1699735787,9.09272588,1.4943177136999999,3.7435709577,-0.0160352125026979,-0.0798706298943905,-0.04184426881656405,-61.10786319789535,-52.630809704764694,-3.478515054077755
1699735787,9.0652084201,1.818545176,3.553341561,-0.0033597588100890844,-0.04352414822160859,-0.029626964052603743,-61.97018415667933,-52.58696287635194,-3.1569716457176265
1699735787,9.0652084201,1.818545176,3.553341561,-0.0033597588100890844,-0.04352414822160859,-0.029626964052603743,-61.37094416837182,-52.77696579947384,-3.5662087109032443
1699735787,9.1609213241,1.9022939669999999,3.0652057506,-0.07651087108430142,-0.03222314131494531,-0.05803219762881146,-60.874013446360706,-52.119263373282664,-4.0777550423852675
1699735787,9.1609213241,1.9022939669999999,3.0652057506,-0.07651087108430142,-0.03222314131494531,-0.05803219762881146,-60.8593978368898,-52.58696287635194,-3.6246711487869043
1699735787,9.3188476157,1.6677973521999998,2.7936203855,-0.15347989109725135,-0.05482515512827187,-0.09330966513474685,-60.932475884244376,-52.58696287635194,-3.5223618824905
1699735787,9.3188476157,1.6677973521999998,2.7936203855,-0.15347989109725135,-0.05482515512827187,-0.09330966513474685,-60.6693949137679,-53.27389652148494,-3.916983338205203
1699735787,9.3296153174,1.4679966650999998,2.8881368781999996,-0.16997325252859777,-0.08445211918087563,-0.09743300549258344,-60.6693949137679,-52.79158140894475,-3.507746273019585
1699735787,9.3296153174,1.4679966650999998,2.8881368781999996,-0.16997325252859777,-0.08445211918087563,-0.09743300549258344,-61.38555977784274,-52.937737503653906,-3.536977491961415
1699735787,9.206384953499999,1.6319050132,3.2075786953,-0.12247848025870207,-0.09315694882519734,-0.0755945732270044,-60.596316866413325,-52.09003215434084,-3.3615901783104354
1699735788,9.206384953499999,1.6319050132,3.2075786953,-0.12247848025870207,-0.09315694882519734,-0.0755945732270044,-60.40631394329144,-52.36772873428822,-4.180064308681672
1699735788,9.1776710823,1.7970097726,3.3571301077999998,-0.08017606251348951,-0.08460483549042512,-0.07681630370340044,-61.19555685472085,-52.44080678164279,-3.55159310143233
1699735788,9.1776710823,1.7970097726,3.3571301077999998,-0.08017606251348951,-0.08460483549042512,-0.07681630370340044,-61.09324758842444,-52.61619409529378,-3.6685179771996492
1699735788,9.0699940653,1.7144573929,3.3439695835000003,-0.08536841703817265,-0.08231409084718257,-0.07757988525114795,-61.40017538731365,-52.68927214264835,-3.6246711487869043
1699735788,9.0699940653,1.7144573929,3.3439695835000003,-0.08536841703817265,-0.08231409084718257,-0.07757988525114795,-60.903244665302545,-52.806197018415666,-3.8439052908506284
1699735788,9.0245304359,1.8125631194999998,3.3523444626,-0.13836097645185047,-0.10629055144645466,-0.09086620418195478,-61.34171294943,-52.075416544869924,-3.1569716457176265
1699735788,9.0245304359,1.8125631194999998,3.3523444626,-0.13836097645185047,-0.10629055144645466,-0.10888672870879623,-61.22478807366267,-53.15697164571762,-3.273896521484946
1699735788,9.1130648721,1.8029918290999998,3.2458638569,-0.21471913122660238,-0.12049316823455852,-0.10888672870879623,-60.84478222741888,-52.85004384682841,-3.5223618824905
1699735788,9.1130648721,1.8029918290999998,3.2458638569,-0.22113321622768156,-0.11194105489978631,-0.11255192013798433,-60.932475884244376,-53.06927798889214,-3.0692779888921367
1699735788,9.140582332,1.6414763036,3.2506495021,-0.22113321622768156,-0.11194105489978631,-0.11255192013798433,-61.078631978953524,-52.85004384682841,-2.9523531131248175
1699735788,9.140582332,1.6414763036,3.2506495021,-0.1586722456219345,-0.08414668656177661,-0.09529497715889039,-60.874013446360706,-53.14235603624671,-2.557731657410114
1699735788,9.1513500337,1.4488540843,3.421736318,-0.1586722456219345,-0.08414668656177661,-0.09529497715889039,-60.78631978953523,-53.24466530254311,-2.8646594562993277
1699735788,9.1513500337,1.4488540843,3.421736318,-0.10552696989870715,-0.06551529679673715,-0.07116580025006879,-61.2540192926045,-53.37620578778135,-2.762350190002923
1699735788,9.0484586619,1.6103696098,3.7280176108,-0.10552696989870715,-0.06551529679673715,-0.07116580025006879,-61.531715872551885,-53.37620578778135,-3.332358959368606
1699735788,9.0484586619,1.6103696098,3.7280176108,-0.14263703311923656,-0.06841690667817772,-0.07391469382195986,-61.487869044139146,-53.332358959368605,-3.8877521192633733
1699735788,8.9742811613,1.8568303376,3.601198013,-0.14263703311923656,-0.06841690667817772,-0.07391469382195986,-61.151710026308095,-52.87927506577025,-3.3469745688395203
1699735788,8.930013943199999,1.8843477975,3.3774690999,-0.26481008075883966,-0.11209377120933582,-0.11041389180429127,-61.18094124524993,-53.27389652148494,-3.332358959368606
1699735788,8.930013943199999,1.8843477975,3.3774690999,-0.26481008075883966,-0.11209377120933582,-0.11041389180429127,-61.04940076001169,-53.5223618824905,-3.7269804150833092
1699735788,8.9587278144,1.9657037659,3.4408788988000003,-0.3344487179134134,-0.14859296919166723,-0.1314887425221228,-61.458637825197314,-53.43466822566501,-2.8938906752411575
1699735788,8.9587278144,1.9657037659,3.4408788988000003,-0.3344487179134134,-0.14859296919166723,-0.1314887425221228,-60.6693949137679,-53.34697456883952,-3.6685179771996492
1699735788,9.0029950325,1.8795621523000001,3.3918260355000003,-0.32482759041179465,-0.14233160050013757,-0.14874568550121675,-60.50862320958784,-53.59543992984508,-3.317743349897691
1699735788,9.0029950325,1.8795621523000001,3.3918260355000003,-0.32482759041179465,-0.14233160050013757,-0.14874568550121675,-60.2747734580532,-53.25928091201403,-3.2008184741303713
1699735788,9.175278259699999,1.746760498,3.2793633733,-0.3242167251735967,-0.13072516097437528,-0.16340645121796912,-60.932475884244376,-53.17158725518855,-4.0777550423852675
1699735788,9.175278259699999,1.746760498,3.2793633733,-0.3242167251735967,-0.13072516097437528,-0.16340645121796912,-60.888629055831636,-53.39082139725227,-4.355451622332652
1699735788,9.1561356789,1.639083481,3.3044880106,-0.3649919798233142,-0.14156801895239005,-0.17043140145724628,-60.888629055831636,-53.90236772873429,-4.033908213972523
1699735788,9.1561356789,1.639083481,3.3044880106,-0.3649919798233142,-0.14156801895239005,-0.17043140145724628,-60.74247296112247,-53.84390529085062,-3.303127740426776
1699735788,9.096315113900001,1.7623138449,3.3499516399999996,-0.41981713495158607,-0.16126842288427606,-0.16508633062301364,-60.45016077170418,-53.84390529085062,-3.975445776088863
1699735788,9.096315113900001,1.7623138449,3.3499516399999996,-0.41981713495158607,-0.16126842288427606,-0.16508633062301364,-60.81555100847705,-54.37006723180357,-4.4431452791581405
1699735788,9.1800639049,1.8891334427000002,3.2829526072,-0.44547347495590267,-0.16997325252859777,-0.16004669240788003,-60.91786027477346,-53.960830166617946,-3.770827243496054
1699735788,9.1800639049,1.8891334427000002,3.2829526072,-0.44547347495590267,-0.16997325252859777,-0.16004669240788003,-60.4647763811751,-54.25314235603624,-3.741596024554224
1699735788,9.1609213241,1.9716858223999998,3.1740791789,-0.44806965221824424,-0.17730363538697394,-0.1627955859797711,-60.4647763811751,-53.887752119263375,-4.326220403390821
1699735788,9.1609213241,1.9716858223999998,3.1740791789,-0.44806965221824424,-0.17730363538697394,-0.1627955859797711,-60.43554516223326,-53.74159602455423,-3.975445776088863
1699735788,9.1860459614,1.9334006607999998,3.1034909122000003,-0.45845436126761047,-0.1753183233628304,-0.17241671348138984,-60.20169541069863,-53.99006138555977,-5.071616486407484
1699735788,9.1860459614,1.9334006607999998,3.1034909122000003,-0.45845436126761047,-0.1753183233628304,-0.17241671348138984,-60.28938906752411,-54.5016077170418,-4.501607717041801
1699735788,9.1561356789,1.7898313048,3.1836504693,-0.440433836740769,-0.15851952931238497,-0.18417586931670163,-60.43554516223326,-54.45776088862906,-4.194679918152587
1699735788,9.1561356789,1.7898313048,3.1836504693,-0.440433836740769,-0.15851952931238497,-0.18417586931670163,-60.83016661794797,-54.26775796550716,-4.253142356036247
1699735788,9.1322074529,1.8376877568,3.2207392196,-0.3920227666135763,-0.12492194121149414,-0.17409659288643436,-60.479391990646015,-54.57468576439638,-5.320081847413037
1699735788,9.1322074529,1.8376877568,3.2207392196,-0.36758815708565573,-0.10949759394699425,-0.17043140145724628,-60.18707980122772,-54.67699503069278,-4.311604793919907
1699735788,9.1202433399,1.7874384822,3.1501509529,-0.36758815708565573,-0.10949759394699425,-0.17043140145724628,-59.90938322128033,-54.39929845074539,-4.355451622332652
1699735788,9.1202433399,1.7874384822,3.1501509529,-0.37827829875412095,-0.11453723216212788,-0.16920967098085024,-60.07015492546039,-54.57468576439638,-3.770827243496054
1699735788,9.1872423727,1.79461695,3.0771698636,-0.37827829875412095,-0.11453723216212788,-0.16920967098085024,-60.34785150540778,-54.662379421221864,-4.150833089739843
1699735788,9.1872423727,1.79461695,3.0771698636,-0.40179661042474457,-0.14049900478554353,-0.17134769931454333,-60.2747734580532,-54.69161064016369,-4.589301373867291
1699735788,9.2231347117,1.8340985228999998,3.0233313551,-0.40179661042474457,-0.14049900478554353,-0.17134769931454333,-60.099386144402224,-54.32622040339082,-4.56007015492546
1699735788,9.2231347117,1.8340985228999998,3.0233313551,-0.42943826245320477,-0.17027868514769676,-0.17394387657688487,-60.08477053493131,-54.88161356328559,-4.998538439052909
1699735788,9.1597249128,1.8699908619,3.0329026454999997,-0.42943826245320477,-0.17027868514769676,-0.17394387657688487,-60.21631102016954,-54.73545746857644,-4.910844782227419
1699735788,9.1597249128,1.8939190879,3.0460631697999996,-0.45555275138616996,-0.18264870622120657,-0.18127425943526107,-60.40631394329144,-55.1885413621748,-5.100847705349313
1699735788,9.1968136631,1.8939190879,3.0460631697999996,-0.45555275138616996,-0.18264870622120657,-0.18127425943526107,-60.479391990646015,-54.998538439052915,-5.027769657994739
1699735788,9.1513500337,1.7814564256999998,3.1070801461,-0.45921794281535805,-0.18096882681616205,-0.1829541388403056,-60.21631102016954,-54.91084478222742,-4.866997953814674
1699735788,9.1513500337,1.7814564256999998,3.1070801461,-0.45921794281535805,-0.18096882681616205,-0.1829541388403056,-60.11400175387314,-55.17392575270389,-5.130078924291142
1699735788,9.0747797105,1.8472590472,3.1393832512,-0.3969096885191605,-0.15409075633544936,-0.15821409669328595,-60.143232972814964,-54.92546039169833,-4.662379421221865
1699735788,9.0747797105,1.8472590472,3.1393832512,-0.3969096885191605,-0.15409075633544936,-0.15821409669328595,-60.11400175387314,-55.4808535515931,-4.866997953814674
1699735788,9.1011007591,1.8137595308,3.2004002275,-0.3301726612460273,-0.1359175154990584,-0.13881912538049898,-59.79245834551301,-55.43700672318036,-4.486992107570885
1699735788,9.1011007591,1.8137595308,3.2004002275,-0.3301726612460273,-0.1359175154990584,-0.13881912538049898,-59.777842736042096,-55.43700672318036,-5.393159894767612
1699735788,9.109475638200001,1.8891334427000002,3.1657042998000002,-0.2910772860013543,-0.1322523240698703,-0.12889256525978124,-60.12861736334405,-54.88161356328559,-5.787781350482315
1699735788,9.109475638200001,1.8891334427000002,3.1657042998000002,-0.2910772860013543,-0.1322523240698703,-0.12889256525978124,-60.49400760011693,-54.80853551593101,-5.480853551593102
1699735788,9.1704926145,1.6701901747999999,3.0580272828,-0.31245756933828484,-0.14920383442986526,-0.13362677085581587,-59.997076878105815,-55.23238819058754,-5.83162817889506
1699735788,9.1704926145,1.6701901747999999,3.0580272828,-0.31245756933828484,-0.14920383442986526,-0.13362677085581587,-60.64016369482608,-55.43700672318036,-5.553931598947677
1699735788,9.1716890258,1.5864413838,3.1250263156,-0.37155878113394286,-0.17974709633976602,-0.1351539339513109,-60.31862028646594,-55.52470038000584,-5.290850628471207
1699735788,9.1716890258,1.5864413838,3.1250263156,-0.37155878113394286,-0.17974709633976602,-0.1351539339513109,-59.85092078339667,-55.23238819058754,-5.5685472084185905
1699735788,9.1573320902,1.6654045296,3.3056844219,-0.39141190137537835,-0.20586158527273116,-0.13255775668896932,-60.01169248757673,-55.670856474714995,-5.232388190587548
1699735788,9.1573320902,1.6654045296,3.3056844219,-0.39141190137537835,-0.20586158527273116,-0.13255775668896932,-60.377082724349606,-55.61239403683133,-5.94855305466238
1699735788,9.054440718399999,1.9130616687,3.4815568829999997,-0.38011089446871504,-0.21135937241651329,-0.12873984895023172,-60.24554223911137,-56.12394036831336,-5.977784273604209
1699735788,9.054440718399999,1.9130616687,3.4815568829999997,-0.38011089446871504,-0.21135937241651329,-0.12873984895023172,-60.28938906752411,-55.597778427360424,-5.188541362174803
1699735788,8.9742811613,2.1320049366,3.5760733757,-0.379194596611418,-0.19914206765255302,-0.13316862192716733,-60.17246419175679,-55.51008477053493,-6.343174510377082
1699735788,8.9742811613,2.1320049366,3.5760733757,-0.379194596611418,-0.19914206765255302,-0.13316862192716733,-60.05553931598948,-55.37854428529669,-5.758550131540485
1699735788,8.9479601127,2.1128623558,3.4755748265,-0.4033237735202396,-0.18585574872174615,-0.14981469966806327,-60.02630809704764,-55.74393452206957,-5.933937445191464
1699735788,8.9479601127,2.1128623558,3.4755748265,-0.4033237735202396,-0.18585574872174615,-0.1750128907437314,-59.86553639286758,-55.495469161064015,-5.7731657410114
1699735788,9.1381895094,1.8640088054,3.2817561959000003,-0.4233296100712246,-0.17027868514769676,-0.1750128907437314,-60.08477053493131,-55.40777550423853,-6.86933645133002
1699735788,9.1381895094,1.8640088054,3.2817561959000003,-0.42027528388023455,-0.14859296919166723,-0.18081611050661253,-59.93861444022216,-55.875475007307806,-6.810874013446361
1699735788,9.355936366,1.5984054967999999,3.0675985732,-0.42027528388023455,-0.14859296919166723,-0.18081611050661253,-59.93861444022216,-55.875475007307806,-5.787781350482315
1699735788,9.355936366,1.5984054967999999,3.0675985732,-0.3943135112568189,-0.14263703311923656,-0.1638646001466176,-59.89476761180941,-55.80239695995323,-5.86085939783689
1699735788,9.2769732202,1.5505490447999999,2.9718856692,-0.3943135112568189,-0.14263703311923656,-0.1638646001466176,-59.74861151710026,-55.495469161064015,-6.226249634609763
1699735788,9.2769732202,1.5505490447999999,2.9718856692,-0.3804163270878141,-0.15134186276355832,-0.139429990618697,-59.76322712657118,-56.050862320958785,-5.904706226249635
1699735788,9.1932244292,1.6929219895,2.9659036127,-0.3804163270878141,-0.15134186276355832,-0.139429990618697,-59.719380298158434,-56.22624963460976,-5.510084770534932
1699735788,9.1932244292,1.6929219895,2.9659036127,-0.41691552507014545,-0.18478673455489963,-0.14019357216644454,-59.80707395498393,-56.41625255773166,-5.977784273604209
1699735788,9.1346002755,1.8556339263000001,2.9802605483,-0.41691552507014545,-0.18478673455489963,-0.14019357216644454,-59.88015200233849,-56.065477930429694,-5.641625255773166
1699735788,9.109475638200001,2.0350956213,2.8917261120999997,-0.4308127092391503,-0.20769418098732523,-0.14920383442986526,-59.719380298158434,-55.43700672318036,-6.080093539900614
1699735788,9.109475638200001,2.0350956213,2.8917261120999997,-0.4308127092391503,-0.20769418098732523,-0.14920383442986526,-60.040923706518555,-55.75855013154049,-6.182402806197018
1699735788,9.2135634213,1.9070796122,2.7732813934,-0.39141190137537835,-0.1881464933649887,-0.15286902585905332,-60.099386144402224,-56.1677871967261,-6.562408652440807
1699735788,9.2135634213,1.9070796122,2.7732813934,-0.39141190137537835,-0.1881464933649887,-0.15286902585905332,-60.18707980122772,-55.831628178895066,-6.6939491376790405
1699735788,9.2183490665,1.6785650538999999,2.9072794589999997,-0.3127630019573839,-0.1666134937185087,-0.14431691252428114,-59.9824612686349,-56.021631102016954,-6.664717918737212
1699735788,9.2183490665,1.6785650538999999,2.9072794589999997,-0.3127630019573839,-0.1666134937185087,-0.14431691252428114,-59.67553346974569,-56.13855597778428,-6.080093539900614
1699735788,9.1250289851,1.79461695,3.2111679291999997,-0.2270891523001122,-0.14889840181076625,-0.11056660811384078,-60.099386144402224,-55.80239695995323,-6.591639871382636
1699735788,9.1250289851,1.79461695,3.2111679291999997,-0.2270891523001122,-0.14889840181076625,-0.11056660811384078,-59.31014323297281,-56.197018415667934,-6.299327681964338
1699735788,9.1932244292,1.9812571127999998,3.2530423247,-0.21395554967885486,-0.13713924597545443,-0.09880745227852898,-59.368605670856475,-56.065477930429694,-5.846243788365975
1699735788,9.1932244292,1.9812571127999998,3.2530423247,-0.21395554967885486,-0.13713924597545443,-0.09880745227852898,-59.90938322128033,-56.4600993861444,-6.840105232388191
1699735788,9.2949193897,1.8233308212,2.9288148624,-0.26710082540208224,-0.13255775668896932,-0.11728612573401895,-59.83630517392575,-56.22624963460976,-6.927798889213681
1699735788,9.2949193897,1.8233308212,2.9288148624,-0.26710082540208224,-0.13255775668896932,-0.11728612573401895,-60.040923706518555,-56.503946214557146,-6.796258403975446
1699735788,9.4229353988,1.5146567058,2.6691936103000002,-0.2622139034964981,-0.12293662918735059,-0.11423179954302887,-59.821689564454836,-56.372405729318906,-6.445483776673487
1699735788,9.4229353988,1.5146567058,2.6691936103000002,-0.2622139034964981,-0.12293662918735059,-0.11423179954302887,-59.821689564454836,-55.75855013154049,-6.211634025138848
1699735788,9.3164547931,1.7682959014000001,2.4825534475,-0.2031126917008401,-0.11194105489978631,-0.079717913584841,-59.93861444022216,-56.12394036831336,-6.664717918737212
1699735788,9.3164547931,1.7682959014000001,2.4825534475,-0.2031126917008401,-0.11194105489978631,-0.079717913584841,-59.777842736042096,-56.44548377667349,-5.758550131540485
1699735788,9.1968136631,1.8819549749,2.6763720781,-0.1666134937185087,-0.12858713264068222,-0.0641408500107916,-59.86553639286758,-59.821689564454836,-5.437006723180357
1699735788,9.1968136631,1.8819549749,2.6763720781,-0.1666134937185087,-0.12858713264068222,-0.0641408500107916,-60.040923706518555,-56.00701549254604,-6.138555977784273
1699735788,9.3391866078,1.91425808,2.6057838114000003,-0.14156801895239005,-0.10506882097005864,-0.05451972250917286,-59.90938322128033,-56.10932475884244,-5.480853551593102
1699735788,9.3391866078,1.91425808,2.6057838114000003,-0.14156801895239005,-0.10506882097005864,-0.05451972250917286,-59.967845659163984,-55.56854720841859,-6.942414498684594
1699735788,9.3511507208,1.79461695,2.8283163132,-0.179441663720667,-0.1282817000215832,-0.07498370798880638,-59.67553346974569,-56.18240280619702,-6.123940368313359
1699735788,9.3511507208,1.79461695,2.8283163132,-0.179441663720667,-0.1282817000215832,-0.07742716894159844,-59.88015200233849,-56.518561824028055,-6.98626132709734
1699735789,9.2518485829,1.7036896912000001,2.9180471607,-0.16493361431346412,-0.14782938764391973,-0.07742716894159844,-59.997076878105815,-55.96316866413329,-6.2554808535515924
1699735789,9.2518485829,1.7036896912000001,2.9180471607,-0.16081027395562753,-0.14004085585689502,-0.07254024703601432,-60.24554223911137,-56.050862320958785,-6.664717918737212
1699735789,9.1585285015,1.8783657409999999,3.0699913958000002,-0.16081027395562753,-0.14004085585689502,-0.07254024703601432,-60.08477053493131,-55.96316866413329,-6.284712072493423
1699735789,9.1585285015,1.8783657409999999,3.0699913958000002,-0.1272126858547367,-0.11866057251996448,-0.07269296334556383,-60.4647763811751,-55.96316866413329,-6.343174510377082
1699735789,9.121439751199999,1.9501504189999999,3.1848468806000003,-0.1272126858547367,-0.11866057251996448,-0.07269296334556383,-60.20169541069863,-55.553931598947685,-6.562408652440807
1699735789,9.121439751199999,1.9501504189999999,3.1848468806000003,-0.12492194121149414,-0.10079276430267253,-0.0759000058461034,-59.89476761180941,-56.357790119848,-5.80239695995323
1699735789,9.207581364800001,1.8340985228999998,3.0424739359,-0.12492194121149414,-0.10079276430267253,-0.0759000058461034,-60.17246419175679,-55.875475007307806,-6.123940368313359
1699735789,9.207581364800001,1.7754743692000001,2.8223342567,-0.1351539339513109,-0.0919352183488013,-0.07544185691745489,-59.967845659163984,-56.54779304296989,-7.19087985969015
1699735789,9.2219383004,1.7754743692000001,2.8223342567,-0.1351539339513109,-0.0919352183488013,-0.07544185691745489,-59.573224203449286,-56.10932475884244,-6.796258403975446
1699735789,9.207581364800001,1.8293128776999998,2.787638329,-0.11438451585257838,-0.09392053037294486,-0.06688974358268268,-59.86553639286758,-56.00701549254604,-5.933937445191464
1699735789,9.207581364800001,1.8293128776999998,2.787638329,-0.11438451585257838,-0.09392053037294486,-0.06688974358268268,-59.86553639286758,-56.32855890090617,-6.182402806197018
1699735789,9.2027957196,1.8915262653,2.8390840148999996,-0.10140362954087054,-0.09315694882519734,-0.06765332513043021,-60.11400175387314,-56.021631102016954,-6.270096463022508
1699735789,9.2027957196,1.8915262653,2.8390840148999996,-0.10140362954087054,-0.09315694882519734,-0.06765332513043021,-59.967845659163984,-56.28471207249343,-6.708564747149956
1699735789,9.3104727366,1.8592231602,2.7649065143000002,-0.08567384965727166,-0.08659014751456867,-0.07086036763096977,-60.23092662964046,-55.93393744519146,-6.752411575562702
1699735789,9.3104727366,1.8592231602,2.7649065143000002,-0.08567384965727166,-0.08659014751456867,-0.07086036763096977,-60.18707980122772,-56.197018415667934,-6.387021338789828
1699735789,9.332008140000001,1.8329021116,2.5710878837,-0.08491026810952414,-0.08811731061006371,-0.07345654489331135,-59.38322128032739,-55.86085939783689,-6.723180356620871
1699735789,9.332008140000001,1.8329021116,2.5710878837,-0.08491026810952414,-0.08811731061006371,-0.07345654489331135,-59.83630517392575,-56.44548377667349,-6.518561824028062
1699735789,9.286544510599999,1.746760498,2.6739792555000004,-0.08216137453763306,-0.09880745227852898,-0.06643159465403417,-59.86553639286758,-55.90470622624964,-6.752411575562702
1699735789,9.286544510599999,1.746760498,2.6739792555000004,-0.08216137453763306,-0.09880745227852898,-0.06643159465403417,-59.76322712657118,-56.197018415667934,-7.030108155510084
1699735789,9.2578306394,1.8759729184,2.9036902251,-0.06047565858160352,-0.10033461537402402,-0.049480084294039245,-59.80707395498393,-56.10932475884244,-6.518561824028062
1699735789,9.2578306394,1.8759729184,2.9036902251,-0.06047565858160352,-0.10033461537402402,-0.049480084294039245,-59.9824612686349,-56.15317158725519,-6.226249634609763
1699735789,9.308079914,1.9429719511999999,2.8331019584000003,-0.047494772269895694,-0.08414668656177661,-0.036193765363232405,-59.67553346974569,-56.255480853551596,-6.606255480853552
1699735789,9.308079914,1.9429719511999999,2.8331019584000003,-0.047494772269895694,-0.08414668656177661,-0.036193765363232405,-59.86553639286758,-56.34317451037708,-6.620871090324466
1699735789,9.3738825355,1.8472590472,2.6333012713,-0.03527746750593539,-0.0638354173916926,-0.03405573702953935,-59.23706518561824,-56.41625255773166,-6.6939491376790405
1699735789,9.3738825355,1.8472590472,2.6333012713,-0.03527746750593539,-0.0638354173916926,-0.03405573702953935,-59.23706518561824,-56.44548377667349,-6.971645717626425
1699735789,9.3032942688,1.7024932798999999,2.6189443356999997,-0.008552113334772215,-0.06123924012935104,-0.027641652028460195,-59.64630225080386,-56.620871090324464,-6.2554808535515924
1699735789,9.3032942688,1.7024932798999999,2.6189443356999997,-0.008552113334772215,-0.06123924012935104,-0.027641652028460195,-59.67553346974569,-56.44548377667349,-6.620871090324466
1699735789,9.1992064857,1.8029918290999998,2.9072794589999997,0.024587325837470118,-0.06429356632034111,-0.0007635815477475192,-59.353990061385566,-56.63548669979538,-7.234726688102894
1699735789,9.1992064857,1.8029918290999998,2.9072794589999997,0.024587325837470118,-0.06093380751025203,0.014813482026301871,-59.52937737503654,-56.050862320958785,-6.664717918737212
1699735789,9.178867493599999,2.093719775,2.9048866364,0.03558290012503439,-0.06093380751025203,0.014813482026301871,-59.26629640456007,-56.1677871967261,-6.796258403975446
1699735789,9.178867493599999,2.093719775,2.9048866364,0.02672535417116317,-0.05604688560466791,-0.009010262263420726,-59.32475884244373,-56.28471207249343,-7.220111078631978
1699735789,9.272187575,1.9860427579999997,2.6344976826,0.02672535417116317,-0.05604688560466791,-0.009010262263420726,-59.66091786027478,-56.372405729318906,-6.03624671148787
1699735789,9.272187575,1.9860427579999997,2.6344976826,0.02336559536107409,-0.05772676500971245,-0.019394971312786988,-59.6901490792166,-56.401636948260744,-6.240865244080678
1699735789,9.3188476157,1.7072789251,2.6141586905,0.02336559536107409,-0.05772676500971245,-0.019394971312786988,-59.60245542239111,-56.650102309266295,-6.547793042969892
1699735789,9.3188476157,1.7072789251,2.6141586905,0.05604688560466791,-0.059864793343405505,-0.002748893571891069,-59.70476468868752,-56.533177433498984,-6.562408652440807
1699735789,9.2530449942,1.7934205387,2.8223342567,0.05604688560466791,-0.059864793343405505,-0.002748893571891069,-59.52937737503654,-56.620871090324464,-6.4893306050862325
1699735789,9.274580397600001,1.8520446924,2.8067809098,0.09453139561114288,-0.046883907031697675,0.008552113334772215,-59.47091493715288,-56.63548669979538,-6.460099386144402
1699735789,9.274580397600001,1.8520446924,2.8067809098,0.09453139561114288,-0.046883907031697675,0.008552113334772215,-59.6901490792166,-56.69394913767904,-7.01549254603917
1699735789,9.376275358100001,1.7324035624,2.6691936103000002,0.10216721108861807,-0.040011673101970006,0.013744467859455345,-60.11400175387314,-57.10318620286466,-6.211634025138848
1699735789,9.376275358100001,1.7324035624,2.6691936103000002,0.10216721108861807,-0.040011673101970006,0.013744467859455345,-59.83630517392575,-56.577024261911724,-5.510084770534932
1699735789,9.3068835027,1.7072789251,2.7014967154,0.10735956561330119,-0.04520402762665313,0.030543261909900768,-59.41245249926922,-56.401636948260744,-6.562408652440807
1699735789,9.3068835027,1.7072789251,2.7014967154,0.10735956561330119,-0.04520402762665313,0.030543261909900768,-59.719380298158434,-56.63548669979538,-6.562408652440807
1699735789,9.21236701,1.9250257817,2.8127629663000002,0.13988813954734552,-0.04016438941151951,0.04932736798448974,-59.9824612686349,-56.18240280619702,-6.883952060800935
1699735789,9.21236701,1.9250257817,2.8127629663000002,0.13988813954734552,-0.04016438941151951,0.04932736798448974,-60.12861736334405,-55.78778135048231,-5.539315989476761
1699735789,9.2685983411,1.9525432416,2.8295127245,0.16691892633760771,-0.03466660226773737,0.045356743936202634,-60.479391990646015,-56.32855890090617,-5.91932183572055
1699735789,9.2685983411,1.9525432416,2.8295127245,0.16691892633760771,-0.03466660226773737,0.045356743936202634,-60.08477053493131,-56.34317451037708,-6.6501023092662965
1699735789,9.232706002099999,1.8305092889999999,2.919243572,0.17852536586336998,-0.03375030441044035,0.036041049053682904,-59.76322712657118,-56.4600993861444,-6.913183279742766
1699735789,9.232706002099999,1.8305092889999999,2.919243572,0.17852536586336998,-0.03375030441044035,0.036041049053682904,-59.821689564454836,-56.44548377667349,-6.460099386144402
1699735789,9.2530449942,1.8005990065,2.9264220398,0.1638646001466176,-0.025961772623415653,0.03527746750593539,-59.79245834551301,-55.99239988307513,-6.6939491376790405
1699735789,9.2530449942,1.8005990065,2.9264220398,0.1638646001466176,-0.025961772623415653,0.03527746750593539,-59.52937737503654,-56.56240865244081,-7.687810581701257
1699735789,9.3248296722,1.8939190879,2.8642086522,0.1559233520500434,-0.015424347264499889,0.027641652028460195,-59.73399590762934,-56.08009353990061,-6.401636948260743
1699735789,9.3248296722,1.8939190879,2.8642086522,0.1559233520500434,-0.015424347264499889,0.027641652028460195,-59.83630517392575,-56.372405729318906,-6.094709149371528
1699735789,9.220741889100001,1.8364913454999998,2.8677978860999995,0.16218472074157309,-0.003665191429188092,0.02901609881440573,-59.88015200233849,-56.91318327974276,-6.138555977784273
1699735789,9.220741889100001,1.8364913454999998,2.8677978860999995,0.16218472074157309,-0.003665191429188092,0.02901609881440573,-59.67553346974569,-56.27009646302251,-5.65624086524408
1699735789,9.0879402348,1.9740786449999999,2.9479574432,0.139735423237796,-0.011911872144861299,0.029168815123955232,-59.923998830751245,-56.22624963460976,-5.188541362174803
1699735789,9.0879402348,1.9740786449999999,2.9479574432,0.139735423237796,-0.011911872144861299,0.029168815123955232,-59.500146156094715,-55.977784273604215,-6.03624671148787
1699735789,9.0903330574,2.1068802992999998,3.0233313551,0.09636399132573692,-0.03466660226773737,0.0,-59.55860859397837,-56.72318035662087,-5.91932183572055
1699735789,9.0903330574,2.1068802992999998,3.0233313551,0.09636399132573692,-0.03466660226773737,0.0,-59.89476761180941,-56.503946214557146,-5.714703303127741
1699735789,9.1609213241,1.9872391693,2.9611179675,0.030543261909900768,-0.05238169417547982,-0.04138611988791554,-59.47091493715288,-56.577024261911724,-5.627009646302251
1699735789,9.1609213241,1.9872391693,2.9611179675,0.030543261909900768,-0.05238169417547982,-0.04138611988791554,-59.80707395498393,-56.73779596609179,-5.83162817889506
1699735789,9.2135634213,1.8125631194999998,2.9922246613000003,0.005039638215133627,-0.05085453107998478,-0.04612032548395016,-59.55860859397837,-56.28471207249343,-6.065477930429699
1699735789,9.2135634213,1.8125631194999998,2.9922246613000003,0.005497787143782138,-0.04108068726881653,-0.02580905631386615,-59.85092078339667,-56.021631102016954,-5.232388190587548
1699735789,9.3009014462,1.6809578765,3.0077780082,0.005497787143782138,-0.04108068726881653,-0.02580905631386615,-60.02630809704764,-56.59163987138264,-6.357790119847998
1699735789,9.3009014462,1.6809578765,3.0077780082,0.006719517620178169,-0.04184426881656405,-0.01069014166846527,-59.953230049693076,-56.78164279450453,-6.4893306050862325
1699735789,9.2398844699,1.7790636031,2.9886354273999998,0.006719517620178169,-0.04184426881656405,-0.01069014166846527,-60.099386144402224,-56.76702718503361,-6.562408652440807
1699735789,9.2398844699,1.7790636031,2.9288148624,0.000916297857297023,-0.04413501345980661,-0.010537425358915765,-60.26015784858229,-56.4600993861444,-5.583162817889506
1699735789,9.220741889100001,1.9884355805999998,2.9288148624,0.000916297857297023,-0.04413501345980661,-0.010537425358915765,-60.11400175387314,-56.503946214557146,-6.080093539900614
1699735789,9.2638126959,2.0015961049,2.8031916759,-0.04016438941151951,-0.05299255941367783,-0.02703078679026218,-59.88015200233849,-56.927798889213676,-5.80239695995323
1699735789,9.2638126959,2.0015961049,2.8031916759,-0.04016438941151951,-0.05299255941367783,-0.02703078679026218,-59.67553346974569,-56.72318035662087,-6.270096463022508
1699735789,9.296115801,2.0566310246999997,2.7326034091999998,-0.059712077033856004,-0.048869219055841226,-0.026878070480712675,-59.997076878105815,-56.44548377667349,-6.606255480853552
1699735789,9.296115801,2.0566310246999997,2.7326034091999998,-0.059712077033856004,-0.048869219055841226,-0.026878070480712675,-60.01169248757673,-56.474714995615315,-6.86933645133002
1699735789,9.309276325299999,2.0638094925,2.5651058272,-0.05726861608106394,-0.03481931857728687,-0.0158824961931484,-59.83630517392575,-56.69394913767904,-6.430868167202572
1699735789,9.309276325299999,2.0638094925,2.5651058272,-0.05726861608106394,-0.03481931857728687,-0.0158824961931484,-59.573224203449286,-56.73779596609179,-6.942414498684594
1699735789,9.340383019099999,1.9884355805999998,2.4143580034,-0.04123340357836603,-0.027947084647559205,-0.0024434609527920616,-59.923998830751245,-56.38702133878982,-6.357790119847998
1699735789,9.340383019099999,1.9884355805999998,2.4143580034,-0.04123340357836603,-0.027947084647559205,-0.0024434609527920616,-59.821689564454836,-56.503946214557146,-6.211634025138848
1699735789,9.3810610033,1.7742779578999999,2.5184457865,-0.014813482026301871,-0.02748893571891069,0.012675453692608817,-59.777842736042096,-56.08009353990061,-6.270096463022508
1699735789,9.3810610033,1.7742779578999999,2.5184457865,-0.014813482026301871,-0.02748893571891069,0.012675453692608817,-60.479391990646015,-56.094709149371525,-5.875475007307805
1699735789,9.330811728699999,1.7060825138000002,2.7194428849,0.028252517266658207,-0.025198191075668133,0.03924809155422248,-59.953230049693076,-56.81087401344635,-6.474714995615318
1699735789,9.330811728699999,1.7060825138000002,2.7194428849,0.028252517266658207,-0.025198191075668133,0.03924809155422248,-59.953230049693076,-56.518561824028055,-6.299327681964338
1699735789,9.1860459614,1.8412769907000002,2.9096722816000002,0.09040805525330627,-0.02138028333693054,0.06872233929727672,-59.9824612686349,-56.12394036831336,-6.796258403975446
1699735789,9.1860459614,1.8412769907000002,2.9096722816000002,0.09040805525330627,-0.02138028333693054,0.06872233929727672,-59.543992984507454,-56.22624963460976,-6.284712072493423
1699735789,9.1501536224,1.9477575963999998,2.8917261120999997,0.12538009014014265,-0.01038470904936626,0.07498370798880638,-59.80707395498393,-55.875475007307806,-6.284712072493423
1699735789,9.1501536224,1.9477575963999998,2.8917261120999997,0.12538009014014265,-0.01038470904936626,0.07498370798880638,-59.967845659163984,-56.13855597778428,-7.044723764981
1699735789,9.200402897,1.9286150156,2.7744778047,0.1189660051390635,-0.003817907738737596,0.06001750965295501,-59.89476761180941,-56.08009353990061,-6.4893306050862325
1699735789,9.200402897,1.9286150156,2.7744778047,0.1189660051390635,-0.003817907738737596,0.06001750965295501,-59.9824612686349,-56.10932475884244,-6.197018415667934
1699735789,9.2566342281,1.8089738856,2.8019952646,0.09987646644537551,-0.014966198335851376,0.04230241774521256,-59.777842736042096,-56.050862320958785,-6.3724057293189125
1699735789,9.2566342281,1.8089738856,2.8019952646,0.09987646644537551,-0.014966198335851376,0.04230241774521256,-59.89476761180941,-55.99239988307513,-5.7293189125986554
1699735789,9.206384953499999,1.7694923127,3.0412775246,0.08048149513258852,-0.0316122760767473,0.03634648167278191,-59.777842736042096,-55.948553054662376,-6.1677871967261035
1699735789,9.206384953499999,1.7694923127,3.0412775246,0.08048149513258852,-0.0316122760767473,0.03634648167278191,-59.76322712657118,-55.597778427360424,-5.963168664133294
1699735789,9.1250289851,1.8113667082,3.2650064377,0.07101308394051928,-0.036499197982331415,0.03695734691097993,-59.70476468868752,-55.451622332651276,-6.445483776673487
1699735789,9.1250289851,1.8113667082,3.2650064377,0.07101308394051928,-0.036499197982331415,0.03695734691097993,-59.573224203449286,-55.553931598947685,-6.927798889213681
1699735789,9.1369930981,1.8077774743,3.3595229304,0.0517708289372818,-0.03329215548179183,0.025350907385217634,-59.86553639286758,-55.78778135048231,-6.460099386144402
1699735789,9.1369930981,1.8077774743,3.3595229304,0.020311269170084013,-0.019700403931885994,0.015271630954950384,-59.42706810874013,-56.27009646302251,-7.10318620286466
1699735789,9.1692962032,1.8939190879,3.2506495021,0.020311269170084013,-0.019700403931885994,0.015271630954950384,-59.51476176556562,-55.65624086524408,-7.19087985969015
1699735789,9.1692962032,1.9034903783000001,2.8486553053,-0.019089538693687978,-0.000916297857297023,0.006566801310628665,-59.55860859397837,-55.96316866413329,-7.439345220695703
1699735789,9.232706002099999,1.9034903783000001,2.8486553053,-0.019089538693687978,-0.000916297857297023,0.006566801310628665,-59.64630225080386,-55.86085939783689,-7.088570593393745
1699735789,9.296115801,1.7850456596,2.5627130046,-0.014813482026301871,0.0,-0.0013744467859455344,-60.11400175387314,-55.52470038000584,-7.234726688102894
1699735789,9.296115801,1.7850456596,2.5627130046,-0.014813482026301871,0.0,-0.0013744467859455344,-59.85092078339667,-55.80239695995323,-7.410114001753873
1699735789,9.3379901965,1.7024932798999999,2.4717857458,0.019700403931885994,-0.00916297857297023,0.004428772976935611,-59.80707395498393,-55.37854428529669,-6.86933645133002
1699735790,9.3379901965,1.7024932798999999,2.4717857458,0.019700403931885994,-0.00916297857297023,0.004428772976935611,-59.41245249926922,-55.977784273604215,-6.430868167202572
1699735790,9.2685983411,1.8951154991999999,2.5232314317,0.06536258048718764,-0.017256942979093935,0.01679879405044542,-59.967845659163984,-55.81701256942414,-6.737795966091786
1699735790,9.2685983411,1.8951154991999999,2.5232314317,0.06536258048718764,-0.017256942979093935,0.01679879405044542,-59.923998830751245,-56.41625255773166,-6.971645717626425
1699735790,9.260223461999999,1.9764714676,2.6153551018,0.11484266478122689,-0.01756237559819294,0.02107485071783153,-60.20169541069863,-56.357790119848,-7.249342297573809
