timestamp,acc-x,acc-y,acc-z,gyr-x,gyr-y,gyr-z,mag-x,mag-y,mag-z
1699735579,9.3236332609,2.0685951377,3.1238299043,-0.04092797095926703,-0.079717913584841,-0.07315111227421234,-60.77170418006431,-55.553931598947685,-3.215434083601286
1699735579,9.2925265671,1.8352949342,2.8151557889,-0.08323038870447959,-0.07712173632249944,-0.07406741013150937,-60.83016661794797,-55.74393452206957,-3.741596024554224
1699735579,9.2925265671,1.8352949342,2.8151557889,-0.08323038870447959,-0.07712173632249944,-0.07406741013150937,-60.6693949137679,-55.466237942122184,-3.814674071908799
1699735579,9.2626162846,1.9082760235,2.8486553053,-0.0160352125026979,-0.047494772269895694,-0.03512475119638588,-60.74247296112247,-55.875475007307806,-3.770827243496054
1699735579,9.2626162846,1.9082760235,2.8486553053,-0.0160352125026979,-0.047494772269895694,-0.03512475119638588,-60.81555100847705,-55.217772581116634,-2.8061970184156677
1699735579,9.2147598326,2.0506489682,3.1022945009000003,0.02703078679026218,-0.027183503099811684,-0.00992656012071775,-60.596316866413325,-55.62700964630225,-2.6600409237065183
1699735579,9.2147598326,2.0506489682,3.1022945009000003,0.02703078679026218,-0.027183503099811684,-0.00992656012071775,-60.4647763811751,-55.86085939783689,-3.6392867582578194
1699735579,9.1680997919,2.009970984,3.2829526072,0.0160352125026979,-0.01710422666954443,-0.004123340357836604,-60.523238819058754,-55.4808535515931,-3.595439929845075
1699735579,9.1680997919,2.009970984,3.2829526072,0.0160352125026979,-0.01710422666954443,-0.004123340357836604,-60.377082724349606,-55.70008769365683,-3.8877521192633733
1699735579,9.274580397600001,1.7898313048,3.2398818003999996,0.012064588454410803,-0.002596177262341565,0.009468411192069237,-60.80093539900614,-55.670856474714995,-3.010815551008477
1699735579,9.274580397600001,1.7898313048,3.2398818003999996,0.012064588454410803,-0.002596177262341565,0.009468411192069237,-61.034785150540785,-55.495469161064015,-3.5223618824905
1699735579,9.330811728699999,1.7958133612999998,2.9611179675,0.0070249502392771765,-0.0079412480965742,0.022143864884678056,-61.151710026308095,-55.37854428529669,-3.9023677287342884
1699735579,9.330811728699999,1.7958133612999998,2.9611179675,0.0070249502392771765,-0.017409659288643436,0.03023782929080176,-61.32709733995908,-55.39315989476761,-3.873136509792458
1699735579,9.1274218077,2.15354034,2.8091737324,0.040011673101970006,-0.017409659288643436,0.03023782929080176,-60.39169833382052,-54.940076001169246,-3.58082432037416
1699735579,9.1274218077,2.15354034,2.8091737324,0.030848694528999777,-0.0316122760767473,0.004276056667386108,-60.8593978368898,-55.10084770534931,-4.150833089739843
1699735579,9.0891366461,2.0709879603,2.9168507494,0.030848694528999777,-0.0316122760767473,0.004276056667386108,-61.2540192926045,-55.39315989476761,-3.2008184741303713
1699735579,9.1441715659,1.7036896912000001,3.1669007111,0.007635815477475192,-0.04810563750809371,-0.024129176908821607,-60.49400760011693,-55.10084770534931,-3.040046769950307
1699735579,9.1441715659,1.7036896912000001,3.1669007111,0.007635815477475192,-0.04810563750809371,-0.024129176908821607,-60.45016077170418,-55.1885413621748,-3.6831335866705643
1699735579,9.1441715659,1.7216358607,3.4432717214,0.03298672286269283,-0.044898595007554123,-0.016187928812247405,-60.596316866413325,-54.83776673487284,-3.288512130955861
1699735579,9.1441715659,1.7216358607,3.4432717214,0.03298672286269283,-0.044898595007554123,-0.016187928812247405,-60.6693949137679,-54.662379421221864,-3.43466822566501
1699735579,9.1561356789,1.9740786449999999,3.2614172038,0.03420845333908886,-0.01557706357404939,0.0032070425005395805,-60.479391990646015,-54.75007307804736,-3.1277404267757962
1699735579,9.1561356789,1.9740786449999999,3.2614172038,0.029321531433504737,0.007635815477475192,-0.0004581489286485115,-60.64016369482608,-54.77930429698918,-3.2008184741303713
1699735579,9.2183490665,1.9322042495,2.9084758702999998,0.029321531433504737,0.007635815477475192,-0.0004581489286485115,-61.034785150540785,-54.63314820228003,-3.2008184741303713
1699735579,9.3044906801,1.7036896912000001,2.8211378454,0.006108652381980153,-0.004123340357836604,-0.01511891464540088,-60.28938906752411,-54.82315112540193,-2.8646594562993277
1699735579,9.3044906801,1.7036896912000001,2.8211378454,0.0004581489286485115,-0.03344487179134134,-0.016951510359994926,-60.26015784858229,-55.07161648640748,-3.098509207833967
1699735579,9.1980100744,1.7778671918,2.9766713144,0.0004581489286485115,-0.03344487179134134,-0.016951510359994926,-60.377082724349606,-54.896229172756506,-3.5223618824905
1699735579,9.081958178299999,2.0183458631,3.0807590974999997,0.028405233576207712,-0.03527746750593539,0.004123340357836604,-60.36246711487869,-54.83776673487284,-4.0777550423852675
1699735579,9.081958178299999,2.0183458631,3.0807590974999997,0.021227567027381034,-0.03390302071998985,0.0016798794050445422,-60.36246711487869,-54.80853551593101,-3.6246711487869043
1699735579,9.2638126959,1.7838492483,3.0999016782999997,0.021227567027381034,-0.03390302071998985,0.0016798794050445422,-60.420929552762345,-55.13007892429115,-3.303127740426776
1699735579,9.2638126959,1.7838492483,3.2578279699,0.038179077387375956,-0.031001410838549282,0.015424347264499889,-60.4647763811751,-54.60391698333821,-3.536977491961415
1699735579,9.1932244292,1.6642081183,3.2578279699,0.038179077387375956,-0.031001410838549282,0.015424347264499889,-60.62554808535516,-54.64776381175095,-0.21923414206372407
1699735579,9.0137627342,1.8137595308,3.3439695835000003,0.07208209810736581,-0.016187928812247405,0.03481931857728687,-60.479391990646015,-54.60391698333821,-3.6246711487869043
1699735579,9.0137627342,1.8137595308,3.3439695835000003,0.07208209810736581,-0.016187928812247405,0.03481931857728687,-60.34785150540778,-55.05700087693657,-3.3615901783104354
1699735579,8.9802632178,1.8723836845000001,3.3056844219,0.07605272215565291,-0.012675453692608817,0.026878070480712675,-60.58170125694241,-55.20315697164572,-4.106986261327098
1699735579,8.9802632178,1.8723836845000001,3.3056844219,0.07605272215565291,-0.012675453692608817,0.026878070480712675,-60.83016661794797,-54.57468576439638,-3.6685179771996492
1699735579,9.0221376133,1.7718851352999998,3.314059301,0.04428772976935611,-0.03023782929080176,0.009468411192069237,-60.698626132709734,-54.443145279158145,-3.1569716457176265
1699735579,9.0221376133,1.7718851352999998,3.314059301,0.04428772976935611,-0.03023782929080176,0.009468411192069237,-60.377082724349606,-54.92546039169833,-3.449283835135925
1699735579,9.020941202,1.9022939669999999,3.4815568829999997,0.048411070127192715,-0.038484510006474966,0.007635815477475192,-60.377082724349606,-54.76468868751827,-3.595439929845075
1699735579,9.020941202,1.9022939669999999,3.4815568829999997,0.048411070127192715,-0.038484510006474966,0.007635815477475192,-60.040923706518555,-54.5016077170418,-3.1277404267757962
1699735579,9.038887371500001,1.9274186043000001,3.5186456333,0.08002334620394001,-0.025198191075668133,0.00519235452468313,-60.698626132709734,-54.896229172756506,-3.0838935983630518
1699735579,9.038887371500001,1.9274186043000001,3.5186456333,0.08002334620394001,-0.025198191075668133,0.00519235452468313,-60.903244665302545,-54.82315112540193,-2.6308097047646886
1699735579,9.0735832992,1.8197415872999998,3.3810583338,0.06291911953439558,-0.017867808217291947,-0.006261368691529657,-60.53785442852967,-55.05700087693657,-3.2008184741303713
1699735579,9.0735832992,1.8197415872999998,3.3810583338,0.02703078679026218,-0.0320704250053958,-0.010079276430267254,-60.757088570593396,-54.866997953814675,-3.259280912014031
1699735579,9.0795653557,1.7682959014000001,3.3332018818,0.02703078679026218,-0.0320704250053958,-0.010079276430267254,-60.28938906752411,-54.516223326512716,-2.6308097047646886
1699735579,9.0795653557,1.7682959014000001,3.3332018818,0.000916297857297023,-0.04245513405476207,-0.006414085001079161,-60.698626132709734,-55.02776965799474,-3.390821397252265
1699735579,9.0592263636,1.9322042495,3.3930224468000003,0.000916297857297023,-0.04245513405476207,-0.006414085001079161,-61.26863490207541,-54.77930429698918,-2.9377375036539024
1699735579,9.050851484499999,1.9872391693,3.2841490185,0.0012217304763960308,-0.039706240482871,-0.014813482026301871,-61.034785150540785,-54.75007307804736,-2.5138848289973694
1699735579,9.050851484499999,1.9872391693,3.2841490185,0.0012217304763960308,-0.039706240482871,-0.014813482026301871,-61.005553931598946,-54.866997953814675,-3.2008184741303713
1699735579,9.1034935817,1.8580267489000002,3.2338997439000003,0.023976460599272102,-0.0398589567924205,-0.025350907385217634,-60.72785735165156,-54.60391698333821,-3.536977491961415
1699735579,9.1034935817,1.8580267489000002,3.2338997439000003,0.023976460599272102,-0.0398589567924205,-0.025350907385217634,-60.39169833382052,-55.14469453376206,-3.756211634025139
1699735579,9.0975115252,1.7850456596,3.2913274863,0.030085112981252254,-0.04306599929296008,-0.02107485071783153,-60.62554808535516,-55.01315404852383,-3.0692779888921367
1699735579,9.0975115252,1.7850456596,3.2913274863,0.030085112981252254,-0.04306599929296008,-0.02107485071783153,-60.74247296112247,-54.77930429698918,-2.8646594562993277
1699735579,9.140582332,1.8675980393,3.3320054705,0.012675453692608817,-0.045356743936202634,-0.013286318930806833,-60.17246419175679,-54.69161064016369,-3.58082432037416
1699735579,9.140582332,1.8675980393,3.3320054705,0.012675453692608817,-0.045356743936202634,-0.013286318930806833,-60.903244665302545,-54.32622040339082,-3.931598947676118
1699735579,9.175278259699999,1.8843477975,3.2267212761,-0.004886921905584123,-0.04153883619746504,-0.011759155835311794,-60.81555100847705,-54.866997953814675,-3.230049693072201
1699735579,9.175278259699999,1.8843477975,3.2267212761,-0.004886921905584123,-0.04153883619746504,-0.011759155835311794,-60.903244665302545,-54.5016077170418,-2.3823443437591347
1699735579,9.0652084201,1.9106688461,3.1657042998000002,0.00839939702522271,-0.037568212149177944,-0.009621127501618741,-61.56094709149371,-54.866997953814675,-2.9085062847120726
1699735580,9.0652084201,1.9106688461,3.1657042998000002,0.00839939702522271,-0.037568212149177944,-0.009621127501618741,-60.71324174218064,-54.75007307804736,-3.1131248173048816
1699735580,9.032905315,2.0003996936,3.2602207924999997,0.0160352125026979,-0.04337143191205909,-0.009315694882519734,-60.552470038000585,-54.42852966968723,-2.7331189710610935
1699735580,9.032905315,2.0003996936,3.2602207924999997,0.0160352125026979,-0.04337143191205909,-0.009315694882519734,-60.40631394329144,-54.7939199064601,-3.1277404267757962
1699735580,9.1070828156,1.9429719511999999,3.3786655112000004,0.004886921905584123,-0.04550946024575214,-0.011759155835311794,-60.68401052323882,-54.7939199064601,-3.770827243496054
1699735580,9.1070828156,1.9429719511999999,3.3786655112000004,0.0012217304763960308,-0.036041049053682904,-0.012064588454410803,-60.53785442852967,-54.720841859105526,-3.1862028646594562
1699735580,9.176474671,1.8520446924,3.2949167202,0.0012217304763960308,-0.036041049053682904,-0.012064588454410803,-61.19555685472085,-54.57468576439638,-3.1277404267757962
1699735580,9.1465643885,1.8125631194999998,3.0879375653000003,0.0022907446432425577,-0.03023782929080176,-0.01069014166846527,-60.976322712657115,-54.82315112540193,-3.58082432037416
1699735580,9.1465643885,1.8125631194999998,3.0879375653000003,0.0022907446432425577,-0.03023782929080176,-0.01069014166846527,-60.62554808535516,-54.77930429698918,-3.040046769950307
1699735580,9.1585285015,1.9274186043000001,3.1621150658999997,0.015424347264499889,-0.036193765363232405,-0.009468411192069237,-60.53785442852967,-55.15931014323298,-3.171587255188541
1699735580,9.1585285015,1.9274186043000001,3.1621150658999997,0.015424347264499889,-0.036193765363232405,-0.009468411192069237,-60.420929552762345,-54.486992107570885,-3.49313066354867
1699735580,9.1262253964,2.1499511061,3.314059301,0.018478673455489966,-0.03466660226773737,-0.012522737383059314,-60.4647763811751,-54.940076001169246,-3.390821397252265
1699735580,9.1262253964,2.1499511061,3.314059301,0.018478673455489966,-0.03466660226773737,-0.012522737383059314,-60.596316866413325,-54.516223326512716,-3.858520900321544
1699735580,9.178867493599999,1.9848463467,3.1908289370999996,-0.029321531433504737,-0.02229658119422756,-0.023518311670623588,-60.552470038000585,-54.92546039169833,-3.931598947676118
1699735580,9.178867493599999,1.9848463467,3.1908289370999996,-0.029321531433504737,-0.02229658119422756,-0.023518311670623588,-60.61093247588425,-54.998538439052915,-2.8500438468284126
1699735580,9.2781696315,1.7072789251,2.9443682093000003,-0.07681630370340044,-0.01679879405044542,-0.026572637861613665,-60.84478222741888,-54.19467991815259,-3.273896521484946
1699735580,9.2781696315,1.7072789251,2.9443682093000003,-0.07681630370340044,-0.01679879405044542,-0.026572637861613665,-60.64016369482608,-54.91084478222742,-3.814674071908799
1699735580,9.1250289851,1.8101702968999998,2.9288148624,-0.047647488579445195,-0.02703078679026218,0.00015271630954950385,-60.596316866413325,-54.92546039169833,-4.428529669687226
1699735580,9.1250289851,1.8101702968999998,2.9288148624,0.023976460599272102,-0.03940080786377199,0.027183503099811684,-60.654779304296994,-54.852382344343766,-3.1277404267757962
1699735580,8.8941216042,2.0027925162,3.0963124444,0.023976460599272102,-0.03940080786377199,0.027183503099811684,-60.4647763811751,-54.69161064016369,-4.194679918152587
1699735580,8.9455672901,1.806581063,3.3583265191000002,0.05696318346196493,-0.05299255941367783,0.018631389765039467,-60.64016369482608,-54.443145279158145,-2.6892721426483486
1699735580,8.9455672901,1.806581063,3.3583265191000002,0.05696318346196493,-0.05299255941367783,0.018631389765039467,-60.11400175387314,-55.01315404852383,-2.8646594562993277
1699735580,9.081958178299999,1.710868159,3.4540394231000002,0.01679879405044542,-0.06291911953439558,-0.0004581489286485115,-60.43554516223326,-54.866997953814675,-3.6831335866705643
1699735580,9.081958178299999,1.710868159,3.4540394231000002,0.01679879405044542,-0.06291911953439558,-0.0004581489286485115,-60.2747734580532,-54.63314820228003,-3.3469745688395203
1699735580,9.0305124924,2.0147566292,3.5485559157999997,0.0032070425005395805,-0.0632245521534946,-0.0030543261909900766,-60.552470038000585,-54.77930429698918,-3.8439052908506284
1699735580,9.0305124924,2.0147566292,3.5485559157999997,0.0032070425005395805,-0.0632245521534946,-0.0030543261909900766,-60.45016077170418,-54.82315112540193,-3.610055539315989
1699735580,9.1022971704,2.1236300575,3.3798619225,0.018936822384138473,-0.030390545600351263,-0.004734205596034618,-60.53785442852967,-54.77930429698918,-4.194679918152587
1699735580,9.1022971704,2.1236300575,3.3798619225,0.018936822384138473,-0.030390545600351263,-0.004734205596034618,-60.15784858228588,-54.83776673487284,-3.3469745688395203
1699735580,9.2303131795,1.8723836845000001,3.2099715178999997,0.0317649923862968,-0.008093964406123703,-0.00916297857297023,-60.43554516223326,-54.662379421221864,-3.6392867582578194
1699735580,9.2303131795,1.8723836845000001,3.2099715178999997,0.0317649923862968,-0.008093964406123703,-0.00916297857297023,-59.9824612686349,-54.896229172756506,-4.121601870798012
1699735580,9.2027957196,1.7814564256999998,3.1764720014999996,0.022449297503777062,-0.01038470904936626,0.000916297857297023,-60.43554516223326,-54.57468576439638,-3.610055539315989
1699735580,9.2027957196,1.7814564256999998,3.1764720014999996,0.022449297503777062,-0.01038470904936626,0.000916297857297023,-61.10786319789535,-54.618532592809125,-3.8292896813797133
1699735580,9.0652084201,1.7898313048,3.1788648241,-0.012217304763960306,-0.036499197982331415,0.00015271630954950385,-60.24554223911137,-54.7939199064601,-3.2008184741303713
1699735580,9.0652084201,1.7898313048,3.1788648241,-0.012217304763960306,-0.036499197982331415,0.00015271630954950385,-60.479391990646015,-55.115463314820225,-4.574685764396375
1699735580,8.952745757899999,1.722832272,3.2925238975999997,-0.018173240836390957,-0.06429356632034111,-0.004734205596034618,-60.49400760011693,-54.340836012861736,-3.1423560362467113
1699735580,8.952745757899999,1.722832272,3.2925238975999997,-0.00916297857297023,-0.07834346679889546,-0.001069014166846527,-60.34785150540778,-54.83776673487284,-3.6392867582578194
1699735580,8.9814596291,1.8508482811000002,3.4384860762,-0.00916297857297023,-0.07834346679889546,-0.001069014166846527,-61.09324758842444,-54.866997953814675,-4.2823735749780765
1699735580,8.9814596291,1.8508482811000002,3.4384860762,-0.01038470904936626,-0.08093964406123703,-0.004123340357836604,-61.034785150540785,-54.296989184449,-3.9023677287342884
1699735580,9.0113699116,1.9908284031999999,3.5138599880999997,-0.01038470904936626,-0.08093964406123703,-0.004123340357836604,-60.80093539900614,-54.83776673487284,-3.770827243496054
1699735580,8.9623170483,1.8999011444,3.5593236175,-0.02138028333693054,-0.08307767239493008,-0.02076941809873252,-60.64016369482608,-54.16544869921076,-3.931598947676118
1699735580,8.9623170483,1.8999011444,3.5593236175,-0.02138028333693054,-0.08307767239493008,-0.02076941809873252,-60.84478222741888,-54.31160479391991,-3.1423560362467113
1699735580,9.019744790699999,1.8376877568,3.637090352,-0.04245513405476207,-0.08353582132357859,-0.0316122760767473,-60.80093539900614,-54.75007307804736,-2.572347266881029
1699735580,9.019744790699999,1.8376877568,3.637090352,-0.04245513405476207,-0.08353582132357859,-0.0316122760767473,-61.10786319789535,-54.5016077170418,-3.960830166617948
1699735580,9.0017986212,1.9992032822999999,3.5593236175,-0.06017022596250451,-0.08903360846736075,-0.038637226316024474,-60.80093539900614,-54.618532592809125,-3.697749196141479
1699735580,9.0017986212,1.9992032822999999,3.5593236175,-0.06017022596250451,-0.08903360846736075,-0.038637226316024474,-60.78631978953523,-54.472376498099976,-4.165448699210757
1699735580,8.9635134596,2.0757736055,3.4504501892,-0.09896016858807849,-0.10140362954087054,-0.05238169417547982,-60.50862320958784,-54.39929845074539,-3.756211634025139
1699735580,8.9635134596,2.0757736055,3.4504501892,-0.09896016858807849,-0.10140362954087054,-0.05238169417547982,-60.50862320958784,-54.88161356328559,-4.0777550423852675
1699735580,9.019744790699999,1.9405791285999998,3.4313076084,-0.16218472074157309,-0.12125674978230604,-0.0719293817978163,-60.50862320958784,-55.217772581116634,-3.2008184741303713
1699735580,9.019744790699999,1.9405791285999998,3.4313076084,-0.16218472074157309,-0.12125674978230604,-0.0719293817978163,-60.903244665302545,-54.91084478222742,-3.595439929845075
1699735580,9.0735832992,1.6905291669,3.4839497056,-0.20784689729687472,-0.1395827069282465,-0.08139779298988555,-60.23092662964046,-54.983922829581985,-4.165448699210757
1699735580,9.0735832992,1.6905291669,3.4839497056,-0.20784689729687472,-0.13408491978446438,-0.06459899893944013,-60.99093832212803,-54.64776381175095,-3.756211634025139
1699735580,9.006584266399999,1.7766707805,3.517449222,-0.20876319515417174,-0.13408491978446438,-0.06459899893944013,-60.4647763811751,-54.998538439052915,-3.4200526161940954
1699735580,9.006584266399999,1.7766707805,3.517449222,-0.17027868514769676,-0.11621711156717243,-0.059406644414756994,-60.40631394329144,-54.83776673487284,-3.376205787781351
1699735580,8.9946201534,1.9992032822999999,3.4313076084,-0.17027868514769676,-0.11621711156717243,-0.059406644414756994,-60.53785442852967,-55.05700087693657,-3.273896521484946
1699735580,9.0843510009,1.9034903783000001,3.2973095428,-0.1792889474111175,-0.10537425358915764,-0.08842274322916273,-60.552470038000585,-54.88161356328559,-3.7269804150833092
1699735580,9.0843510009,1.9034903783000001,3.2973095428,-0.1792889474111175,-0.10537425358915764,-0.08842274322916273,-60.28938906752411,-54.75007307804736,-3.990061385559778
1699735580,9.2398844699,1.7934205387,3.1178478478000002,-0.19700403931885993,-0.09483682823024188,-0.10155634585042005,-60.698626132709734,-54.998538439052915,-3.9462145571470333
1699735580,9.2398844699,1.7934205387,3.1178478478000002,-0.19700403931885993,-0.09483682823024188,-0.10155634585042005,-60.12861736334405,-54.998538439052915,-3.478515054077755
1699735580,9.2446701151,1.8077774743,3.0532416376,-0.1867720465790432,-0.09208793465835081,-0.09621127501618743,-60.05553931598948,-55.07161648640748,-3.8877521192633733
1699735580,9.2446701151,1.8077774743,3.0532416376,-0.1867720465790432,-0.09208793465835081,-0.09621127501618743,-60.2747734580532,-54.852382344343766,-3.741596024554224
1699735580,9.1920280179,1.7335999736999999,2.9156543381000004,-0.17348572764823636,-0.08628471489546966,-0.08872817584826173,-60.15784858228588,-55.01315404852383,-4.355451622332652
1699735580,9.1920280179,1.7335999736999999,2.9156543381000004,-0.17348572764823636,-0.08628471489546966,-0.08872817584826173,-60.78631978953523,-55.23238819058754,-3.800058462437884
1699735580,9.2374916473,1.5888342063999998,2.8965117573,-0.15409075633544936,-0.09010262263420726,-0.08506298441907365,-60.71324174218064,-55.29085062847121,-3.595439929845075
1699735580,9.2374916473,1.5888342063999998,2.8965117573,-0.15409075633544936,-0.09010262263420726,-0.08506298441907365,-59.76322712657118,-54.95469161064016,-4.209295527623502
1699735580,9.2530449942,1.7479569093,2.9539394997,-0.11453723216212788,-0.09040805525330627,-0.06429356632034111,-60.31862028646594,-55.495469161064015,-4.180064308681672
1699735580,9.2530449942,1.7479569093,2.9539394997,-0.11453723216212788,-0.09040805525330627,-0.06429356632034111,-60.40631394329144,-55.597778427360424,-3.9462145571470333
1699735580,9.2877409219,1.8544375149999999,2.8007988533,-0.06902777191637574,-0.0755945732270044,-0.0516181126277323,-60.552470038000585,-55.553931598947685,-3.7269804150833092
1699735580,9.2877409219,1.8544375149999999,2.8007988533,-0.06902777191637574,-0.0755945732270044,-0.0516181126277323,-60.18707980122772,-55.62700964630225,-3.990061385559778
1699735580,9.299705034899999,1.5290136414,2.7242285301,-0.0478002048889947,-0.079717913584841,-0.05513058774737088,-60.23092662964046,-55.261619409529374,-4.033908213972523
1699735580,9.299705034899999,1.5290136414,2.7242285301,-0.0478002048889947,-0.079717913584841,-0.027947084647559205,-60.099386144402224,-55.15931014323298,-3.9023677287342884
1699735580,9.290133744499999,1.5397813431,2.9168507494,-0.01832595714594046,-0.08781187799096471,-0.027947084647559205,-60.24554223911137,-55.61239403683133,-3.55159310143233
1699735580,9.220741889100001,1.7659030788,3.1573294206999996,0.018020524526841452,-0.08903360846736075,-0.004581489286485115,-60.64016369482608,-55.33469745688395,-3.6831335866705643
1699735580,9.220741889100001,1.7659030788,3.1573294206999996,0.018020524526841452,-0.08903360846736075,-0.004581489286485115,-60.24554223911137,-55.451622332651276,-3.800058462437884
1699735580,9.1154576947,1.9920248145,3.2566315586,0.02871066619530672,-0.07544185691745489,-0.002138028333693054,-60.43554516223326,-54.88161356328559,-4.238526746565332
1699735580,9.1154576947,1.9920248145,3.2566315586,0.02871066619530672,-0.07544185691745489,-0.002138028333693054,-60.83016661794797,-55.43700672318036,-3.478515054077755
1699735580,9.1381895094,2.0063817501,3.0711878071,0.03634648167278191,-0.04810563750809371,-0.00916297857297023,-60.377082724349606,-55.23238819058754,-4.691610640163694
1699735580,9.1381895094,2.0063817501,3.0711878071,0.03634648167278191,-0.04810563750809371,-0.00916297857297023,-60.6693949137679,-54.92546039169833,-4.545454545454546
1699735580,9.299705034899999,1.7754743692000001,2.8941189347,0.047189339650796684,-0.027183503099811684,-0.01313360262125733,-60.43554516223326,-55.13007892429115,-4.0777550423852675
1699735580,9.299705034899999,1.7754743692000001,2.8941189347,0.047189339650796684,-0.027183503099811684,-0.01313360262125733,-60.596316866413325,-55.4808535515931,-3.697749196141479
1699735580,9.284151688,1.7886348934999998,2.8737799425999997,0.050396382151336266,-0.02626720524251466,-0.005345070834232635,-60.83016661794797,-55.320081847413036,-4.092370651856182
1699735580,9.284151688,1.7886348934999998,2.8737799425999997,0.050396382151336266,-0.02626720524251466,-0.005345070834232635,-60.71324174218064,-55.422391113709445,-4.866997953814674
1699735580,9.1334038642,1.9190437251999999,2.9539394997,0.05696318346196493,-0.03405573702953935,0.004581489286485115,-60.2747734580532,-55.6854720841859,-4.063139432914353
1699735580,9.1334038642,1.9190437251999999,2.9539394997,0.05696318346196493,-0.03405573702953935,0.004581489286485115,-60.4647763811751,-55.466237942122184,-3.507746273019585
1699735580,9.109475638200001,2.0207386857,3.0568308715,0.0678060414399797,-0.037415495839628436,0.00916297857297023,-60.39169833382052,-55.80239695995323,-3.990061385559778
1699735580,9.109475638200001,2.0207386857,3.0568308715,0.0678060414399797,-0.037415495839628436,0.00916297857297023,-60.4647763811751,-55.56854720841859,-3.7854428529669684
1699735580,9.1238325738,2.1332013479,3.0472595810999996,0.08628471489546966,-0.03252857393404432,0.012064588454410803,-60.81555100847705,-55.553931598947685,-4.472376498099971
1699735580,9.1238325738,2.1332013479,3.0472595810999996,0.10690141668465268,-0.024129176908821607,0.011453723216212788,-60.43554516223326,-55.99239988307513,-4.6039169833382045
1699735580,9.1932244292,2.045863323,2.9587251449000003,0.10690141668465268,-0.024129176908821607,0.011453723216212788,-60.2747734580532,-55.115463314820225,-3.800058462437884
1699735580,9.1932244292,2.045863323,2.9587251449000003,0.09330966513474685,-0.028252517266658207,0.006414085001079161,-60.49400760011693,-55.36392867582578,-4.267757965507162
1699735580,9.229116768199999,1.7934205387,2.9336005076,0.09330966513474685,-0.028252517266658207,0.006414085001079161,-60.420929552762345,-55.13007892429115,-4.238526746565332
1699735580,9.1692962032,1.8568303376,3.0532416376,0.09773843811168245,-0.029321531433504737,0.023976460599272102,-60.523238819058754,-55.71470330312774,-3.6246711487869043
1699735580,9.1692962032,1.8568303376,3.0532416376,0.09773843811168245,-0.029321531433504737,0.023976460599272102,-60.596316866413325,-55.553931598947685,-3.171587255188541
1699735580,9.1070828156,2.0542382021,3.1274191382,0.12599095537834065,-0.018784106074588972,0.038789942625573975,-60.6693949137679,-55.20315697164572,-3.6392867582578194
1699735580,9.1070828156,2.0542382021,3.1274191382,0.12599095537834065,-0.018784106074588972,0.038789942625573975,-60.567085647471494,-55.07161648640748,-3.171587255188541
1699735580,9.1070828156,2.0039889275,3.1992038162000003,0.12919799787888026,-0.016187928812247405,0.03283400655314333,-60.2747734580532,-55.422391113709445,-3.8439052908506284
1699735580,9.1070828156,2.0039889275,3.1992038162000003,0.12919799787888026,-0.016187928812247405,0.03283400655314333,-60.21631102016954,-55.01315404852383,-3.6246711487869043
1699735580,9.0831545896,2.0410776778,3.1764720014999996,0.12171489871095456,-0.018478673455489966,0.02871066619530672,-60.72785735165156,-55.29085062847121,-3.449283835135925
1699735581,9.0831545896,2.0410776778,3.1764720014999996,0.12171489871095456,-0.018478673455489966,0.02871066619530672,-60.099386144402224,-55.10084770534931,-3.288512130955861
1699735581,9.080761767,1.9525432416,3.1896325258,0.10858129608969723,-0.022449297503777062,0.023518311670623588,-60.36246711487869,-55.20315697164572,-3.712364805612394
1699735581,9.080761767,1.9525432416,3.1896325258,0.10858129608969723,-0.022449297503777062,0.023518311670623588,-60.64016369482608,-55.43700672318036,-3.259280912014031
1699735581,9.1381895094,1.9130616687,3.3308090592,0.08994990632465776,-0.029168815123955232,0.02199114857512855,-60.15784858228588,-55.24700380005846,-2.8500438468284126
1699735581,9.1381895094,1.9130616687,3.3308090592,0.08994990632465776,-0.029168815123955232,0.02199114857512855,-60.6693949137679,-55.466237942122184,-3.6831335866705643
1699735581,9.096315113900001,1.9190437251999999,3.3475588174,0.07788531787024697,-0.028557949885757217,0.020463985479633514,-60.18707980122772,-54.73545746857644,-4.574685764396375
1699735581,9.096315113900001,1.9190437251999999,3.3475588174,0.06627887834448466,-0.02626720524251466,0.02183843226557905,-60.43554516223326,-55.17392575270389,-3.3469745688395203
1699735581,9.0293160811,1.9704894111,3.3032915993,0.06627887834448466,-0.02626720524251466,0.02183843226557905,-60.78631978953523,-55.34931306635487,-3.288512130955861
1699735581,9.0293160811,1.9992032822999999,3.2805597846,0.05482515512827187,-0.02550362369476714,0.018936822384138473,-60.62554808535516,-54.866997953814675,-3.6246711487869043
1699735581,9.0759761218,1.9992032822999999,3.2805597846,0.05482515512827187,-0.02550362369476714,0.018936822384138473,-60.24554223911137,-55.20315697164572,-4.033908213972523
1699735581,9.055637129700001,1.8939190879,3.3008987767,0.04902193536539073,-0.027947084647559205,0.00916297857297023,-60.377082724349606,-55.15931014323298,-4.209295527623502
1699735581,9.055637129700001,1.8939190879,3.3008987767,0.04902193536539073,-0.027947084647559205,0.00916297857297023,-60.4647763811751,-55.29085062847121,-3.8877521192633733
1699735581,9.0400837828,1.8137595308,3.3164521235999995,0.026114488932965158,-0.0317649923862968,0.0033597588100890844,-60.39169833382052,-54.486992107570885,-3.1423560362467113
1699735581,9.0400837828,1.8137595308,3.3164521235999995,0.026114488932965158,-0.0317649923862968,0.0033597588100890844,-60.903244665302545,-55.05700087693657,-3.1862028646594562
1699735581,9.0436730167,1.9752750562999999,3.2865418411,0.025961772623415653,-0.03283400655314333,0.004428772976935611,-60.43554516223326,-55.36392867582578,-3.756211634025139
1699735581,9.0436730167,1.9752750562999999,3.2865418411,0.025961772623415653,-0.03283400655314333,0.004428772976935611,-60.36246711487869,-55.276235019000296,-3.916983338205203
1699735581,9.1262253964,1.962114532,3.1872397032,0.0478002048889947,-0.02626720524251466,0.00015271630954950385,-60.31862028646594,-55.115463314820225,-3.0692779888921367
1699735581,9.1262253964,1.962114532,3.1872397032,0.0478002048889947,-0.02626720524251466,0.00015271630954950385,-60.15784858228588,-54.940076001169246,-4.180064308681672
1699735581,9.2039921309,1.758724611,3.1669007111,0.05238169417547982,-0.023823744289722597,-0.006414085001079161,-60.78631978953523,-55.261619409529374,-3.0838935983630518
1699735581,9.2039921309,1.758724611,3.1669007111,0.05238169417547982,-0.023823744289722597,-0.006414085001079161,-60.71324174218064,-54.91084478222742,-3.332358959368606
1699735581,9.1274218077,1.6462619487999999,3.2925238975999997,0.04046982203061852,-0.035430183815484885,-0.002138028333693054,-60.58170125694241,-54.70622624963462,-3.4054370067231803
1699735581,9.1274218077,1.6462619487999999,3.2925238975999997,0.04046982203061852,-0.035430183815484885,-0.002138028333693054,-60.34785150540778,-54.896229172756506,-3.8877521192633733
1699735581,8.961120637,1.8771693297,3.4636107135,0.024129176908821607,-0.046883907031697675,0.009010262263420726,-60.11400175387314,-54.92546039169833,-4.033908213972523
1699735581,8.961120637,1.8771693297,3.4636107135,0.024129176908821607,-0.046883907031697675,0.009010262263420726,-59.73399590762934,-54.82315112540193,-4.384682841274482
1699735581,8.9802632178,2.0147566292,3.4109686163,0.004123340357836604,-0.04856378643674222,-0.00198531202414355,-60.2747734580532,-55.086232095878394,-3.916983338205203
1699735581,8.9802632178,2.0147566292,3.4109686163,0.004123340357836604,-0.04856378643674222,-0.00198531202414355,-60.479391990646015,-55.02776965799474,-4.311604793919907
1699735581,9.1070828156,1.8532411037,3.2769705507,-0.029474247743054238,-0.049480084294039245,-0.03344487179134134,-60.53785442852967,-55.14469453376206,-3.741596024554224
1699735581,9.1070828156,1.8532411037,3.2769705507,-0.029474247743054238,-0.049480084294039245,-0.03344487179134134,-60.36246711487869,-54.866997953814675,-3.9023677287342884
1699735581,9.1549392676,1.7168502155,3.1980074049,-0.05192354524683131,-0.050549098460885775,-0.04871650274629172,-60.61093247588425,-55.17392575270389,-4.56007015492546
1699735581,9.1549392676,1.7168502155,3.1980074049,-0.05283984310412832,-0.05482515512827187,-0.04230241774521256,-60.31862028646594,-54.998538439052915,-4.2823735749780765
1699735581,9.1369930981,1.7898313048,3.3044880106,-0.05283984310412832,-0.05482515512827187,-0.04230241774521256,-60.72785735165156,-54.95469161064016,-4.106986261327098
1699735581,9.1369930981,1.7898313048,3.3044880106,-0.04856378643674222,-0.05436700619962337,-0.030543261909900768,-60.4647763811751,-55.02776965799474,-4.121601870798012
1699735581,9.1130648721,1.8400805794,3.3272198253,-0.04856378643674222,-0.05436700619962337,-0.030543261909900768,-60.18707980122772,-55.39315989476761,-3.8292896813797133
1699735581,9.1130648721,1.9118652574,3.1537401868,-0.059864793343405505,-0.0516181126277323,-0.028405233576207712,-60.698626132709734,-55.23238819058754,-3.288512130955861
1699735581,9.148957211099999,1.9118652574,3.1537401868,-0.059864793343405505,-0.0516181126277323,-0.028405233576207712,-60.83016661794797,-55.23238819058754,-3.317743349897691
1699735581,9.21236701,1.8556339263000001,2.99102825,-0.04474587869800463,-0.048869219055841226,-0.028863382504856226,-60.757088570593396,-55.217772581116634,-3.390821397252265
1699735581,9.21236701,1.8556339263000001,2.99102825,-0.04474587869800463,-0.048869219055841226,-0.028863382504856226,-60.479391990646015,-55.17392575270389,-3.098509207833967
1699735581,9.1956172518,1.7670994901,2.9036902251,-0.027183503099811684,-0.047189339650796684,-0.02428189321837111,-60.976322712657115,-55.36392867582578,-4.019292604501608
1699735581,9.121439751199999,1.8137595308,3.086741154,-0.02672535417116317,-0.06444628262989062,-0.019394971312786988,-60.420929552762345,-55.58316281788951,-4.238526746565332
1699735581,9.121439751199999,1.8137595308,3.086741154,-0.02672535417116317,-0.06444628262989062,-0.019394971312786988,-60.74247296112247,-55.30546623794213,-3.7854428529669684
1699735581,9.121439751199999,1.9585252981,3.2470602682000003,-0.01634064512179691,-0.07284567965511334,-0.020616701789183015,-60.26015784858229,-55.422391113709445,-4.238526746565332
1699735581,9.121439751199999,1.9585252981,3.2470602682000003,-0.01634064512179691,-0.07284567965511334,-0.020616701789183015,-60.6693949137679,-55.320081847413036,-3.098509207833967
1699735581,9.1369930981,1.9812571127999998,3.2087751066,0.010231992739816757,-0.049632800603588746,-0.014966198335851376,-60.2747734580532,-55.466237942122184,-3.2446653025431162
1699735581,9.1369930981,1.9812571127999998,3.2087751066,0.010231992739816757,-0.049632800603588746,-0.014966198335851376,-60.64016369482608,-55.56854720841859,-3.931598947676118
1699735581,9.175278259699999,1.8975083218,3.1322047834,0.0012217304763960308,-0.036193765363232405,-0.012522737383059314,-60.61093247588425,-55.65624086524408,-3.697749196141479
1699735581,9.175278259699999,1.8975083218,3.1322047834,0.0012217304763960308,-0.036193765363232405,-0.012522737383059314,-60.74247296112247,-55.13007892429115,-3.6392867582578194
1699735581,9.1202433399,1.9872391693,3.2099715178999997,-0.012828170002158322,-0.04428772976935611,-0.012828170002158322,-60.72785735165156,-55.466237942122184,-4.033908213972523
1699735581,9.1202433399,1.9872391693,3.2099715178999997,-0.012828170002158322,-0.04428772976935611,-0.012828170002158322,-60.50862320958784,-55.78778135048231,-3.58082432037416
1699735581,9.1465643885,1.9716858223999998,3.2219356309,-0.019394971312786988,-0.04184426881656405,-0.018631389765039467,-60.20169541069863,-55.29085062847121,-3.8877521192633733
1699735581,9.1465643885,1.9716858223999998,3.2219356309,-0.019394971312786988,-0.04184426881656405,-0.018631389765039467,-60.23092662964046,-55.641625255773164,-4.370067231803566
1699735581,9.165706969299999,1.7754743692000001,3.1334011947,-0.012217304763960306,-0.03222314131494531,-0.02138028333693054,-60.53785442852967,-55.43700672318036,-3.43466822566501
1699735581,9.165706969299999,1.7754743692000001,3.1334011947,-0.012217304763960306,-0.03222314131494531,-0.02138028333693054,-60.12861736334405,-55.65624086524408,-4.004676995030692
1699735581,9.1274218077,1.7611174336,3.0616165167,0.008857545953871221,-0.024892758456569127,-0.0070249502392771765,-60.15784858228588,-55.93393744519146,-2.9231218941829873
1699735581,9.1274218077,1.7611174336,3.0616165167,0.016187928812247405,-0.03252857393404432,0.0,-60.71324174218064,-55.74393452206957,-3.9023677287342884
1699735581,9.1274218077,1.9669001771999999,3.1489545415999998,0.016187928812247405,-0.03252857393404432,0.0,-60.71324174218064,-55.539315989476755,-3.9462145571470333
1699735581,9.1274218077,1.9669001771999999,3.1489545415999998,0.007330382858376184,-0.04245513405476207,-0.011453723216212788,-60.12861736334405,-55.7731657410114,-4.106986261327098
1699735581,9.1585285015,1.9010975557,3.2530423247,0.007330382858376184,-0.04245513405476207,-0.011453723216212788,-60.2747734580532,-55.74393452206957,-3.8439052908506284
1699735581,9.116654106,1.8233308212,3.1752755902,-0.02076941809873252,-0.045662176555301644,-0.010995574287564275,-59.543992984507454,-55.451622332651276,-3.230049693072201
1699735581,9.116654106,1.8233308212,3.1752755902,-0.02076941809873252,-0.045662176555301644,-0.010995574287564275,-60.39169833382052,-55.62700964630225,-3.4200526161940954
1699735581,9.068797654,1.9298114269,3.1214370817,-0.02703078679026218,-0.05589416929511841,-0.00717766654882668,-59.86553639286758,-55.90470622624964,-3.215434083601286
1699735581,9.068797654,1.9298114269,3.1214370817,-0.02703078679026218,-0.05589416929511841,-0.00717766654882668,-59.777842736042096,-55.6854720841859,-2.966968722595732
1699735581,9.0759761218,1.9286150156,3.0783662749,0.014049900478554353,-0.05009094953223726,0.0004581489286485115,-60.143232972814964,-55.43700672318036,-2.572347266881029
1699735581,9.0759761218,1.9286150156,3.0783662749,0.014049900478554353,-0.05009094953223726,0.0004581489286485115,-60.523238819058754,-55.58316281788951,-3.0838935983630518
1699735581,9.206384953499999,1.7575281996999998,3.0783662749,0.05314527572322733,-0.04153883619746504,0.007788531787024695,-60.05553931598948,-55.56854720841859,-3.2008184741303713
1699735581,9.206384953499999,1.7575281996999998,3.0783662749,0.05314527572322733,-0.04153883619746504,0.007788531787024695,-60.4647763811751,-55.75855013154049,-3.2446653025431162
1699735581,9.1262253964,1.7790636031,3.1633114771999997,0.08872817584826173,-0.04046982203061852,0.020005836550985003,-60.36246711487869,-55.70008769365683,-2.9523531131248175
1699735581,9.1262253964,1.7790636031,3.1633114771999997,0.08872817584826173,-0.04046982203061852,0.020005836550985003,-59.997076878105815,-55.422391113709445,-3.916983338205203
1699735581,9.1238325738,1.8628123941,3.2817561959000003,0.10644326775600417,-0.037720928458727446,0.027641652028460195,-60.40631394329144,-55.320081847413036,-3.171587255188541
1699735581,9.1429751546,1.9022939669999999,3.409772205,0.10766499823240021,-0.03268129024359382,0.02199114857512855,-60.40631394329144,-55.276235019000296,-3.1862028646594562
1699735581,9.1429751546,1.9022939669999999,3.409772205,0.10766499823240021,-0.03268129024359382,0.02199114857512855,-59.967845659163984,-55.466237942122184,-3.7269804150833092
1699735581,9.121439751199999,1.9202401365000001,3.3930224468000003,0.10461067204141013,-0.016646077740895916,0.021685715956029545,-60.34785150540778,-55.495469161064015,-3.3615901783104354
1699735581,9.121439751199999,1.9202401365000001,3.3930224468000003,0.10461067204141013,-0.016646077740895916,0.021685715956029545,-63.490207541654485,-55.553931598947685,-3.1569716457176265
1699735581,9.109475638200001,1.890329854,3.2913274863,0.06444628262989062,-0.009773843811168246,0.020158552860534508,-60.377082724349606,-55.495469161064015,-2.9231218941829873
1699735581,9.109475638200001,1.890329854,3.2913274863,0.06444628262989062,-0.009773843811168246,0.020158552860534508,-60.2747734580532,-55.80239695995323,-3.756211634025139
1699735581,9.0783689444,1.8795621523000001,3.2434710343,0.04413501345980661,-0.0160352125026979,0.019700403931885994,-60.24554223911137,-55.217772581116634,-3.288512130955861
1699735581,9.0783689444,1.8795621523000001,3.2434710343,0.04413501345980661,-0.0160352125026979,0.019700403931885994,-60.62554808535516,-55.33469745688395,-3.507746273019585
1699735581,9.0795653557,1.8699908619,3.1956145822999997,0.04642575810304917,-0.029779680362153248,0.020311269170084013,-60.53785442852967,-54.82315112540193,-3.288512130955861
1699735581,9.0795653557,1.8699908619,3.1956145822999997,0.045356743936202634,-0.05711589977151443,0.017715091907742442,-60.74247296112247,-55.34931306635487,-3.4054370067231803
1699735581,9.0592263636,1.8831513862,3.2949167202,0.045356743936202634,-0.05711589977151443,0.017715091907742442,-60.39169833382052,-55.320081847413036,-4.209295527623502
1699735581,8.9766739839,2.0482561456,3.6083764808,0.04245513405476207,-0.0757472895365539,0.017715091907742442,-60.07015492546039,-55.320081847413036,-2.9231218941829873
1699735581,8.9766739839,2.0482561456,3.6083764808,0.04245513405476207,-0.0757472895365539,0.017715091907742442,-60.15784858228588,-55.05700087693657,-3.8292896813797133
1699735581,8.9455672901,2.177468566,3.7483566029,0.01389718416900485,-0.06704245989223219,0.005650503453331642,-60.2747734580532,-55.24700380005846,-3.6685179771996492
1699735581,8.9455672901,2.177468566,3.7483566029,0.01389718416900485,-0.06704245989223219,0.005650503453331642,-60.24554223911137,-55.1885413621748,-3.6685179771996492
1699735581,8.983852451699999,1.9322042495,3.5509487384000002,-0.039095375244672985,-0.05146539631818279,-0.02672535417116317,-60.4647763811751,-55.01315404852383,-3.1277404267757962
1699735581,8.983852451699999,1.9322042495,3.5509487384000002,-0.039095375244672985,-0.05146539631818279,-0.02672535417116317,-60.18707980122772,-55.43700672318036,-2.7769657994738384
1699735581,9.056833541,1.6893327556000002,3.3224341800999997,-0.07299839596466283,-0.04138611988791554,-0.03390302071998985,-60.05553931598948,-55.495469161064015,-2.8061970184156677
1699735581,9.056833541,1.6893327556000002,3.3224341800999997,-0.07299839596466283,-0.04138611988791554,-0.03390302071998985,-60.8593978368898,-55.13007892429115,-3.6685179771996492
1699735581,9.1549392676,1.8951154991999999,3.2171499857,-0.07528914060790538,-0.04092797095926703,-0.021227567027381034,-60.81555100847705,-54.92546039169833,-4.808535515931014
1699735581,9.1549392676,1.8951154991999999,3.2171499857,-0.07528914060790538,-0.04092797095926703,-0.021227567027381034,-60.28938906752411,-55.495469161064015,-0.20461853259280913
1699735581,9.1477607998,2.0327027987,3.2075786953,-0.050243665841786765,-0.045662176555301644,-0.018784106074588972,-60.11400175387314,-55.15931014323298,-3.1277404267757962
1699735581,9.1477607998,2.0327027987,3.2075786953,-0.050243665841786765,-0.045662176555301644,-0.018784106074588972,-60.523238819058754,-55.40777550423853,-3.800058462437884
1699735581,9.0831545896,1.8628123941,3.2769705507,-0.04153883619746504,-0.05100724738953428,-0.025656340004316644,-60.28938906752411,-55.276235019000296,-3.9462145571470333
1699735581,9.0831545896,1.8628123941,3.2769705507,-0.04153883619746504,-0.05100724738953428,-0.025656340004316644,-60.77170418006431,-55.10084770534931,-3.1862028646594562
1699735581,9.050851484499999,1.8305092889999999,3.3535408739,-0.06032294227205401,-0.049938233222687756,-0.022143864884678056,-60.53785442852967,-55.042385267465654,-3.697749196141479
1699735581,9.050851484499999,1.8305092889999999,3.3535408739,-0.061391956438900545,-0.04337143191205909,-0.02138028333693054,-60.18707980122772,-55.33469745688395,-3.449283835135925
1699735582,9.0711904766,2.0159530405,3.3415767608999998,-0.061391956438900545,-0.04337143191205909,-0.02138028333693054,-60.596316866413325,-55.23238819058754,-4.209295527623502
1699735582,9.1896351953,1.9405791285999998,3.0424739359,-0.0875064453718657,-0.036499197982331415,-0.03405573702953935,-60.53785442852967,-55.01315404852383,-3.610055539315989
1699735582,9.1896351953,1.9405791285999998,3.0424739359,-0.0875064453718657,-0.036499197982331415,-0.03405573702953935,-60.58170125694241,-54.852382344343766,-3.332358959368606
1699735582,9.3367937852,1.6115660211,2.6715864329,-0.10888672870879623,-0.03940080786377199,-0.044898595007554123,-60.6693949137679,-55.422391113709445,-4.121601870798012
1699735582,9.3367937852,1.6115660211,2.6715864329,-0.10888672870879623,-0.03940080786377199,-0.044898595007554123,-60.377082724349606,-54.91084478222742,-3.931598947676118
1699735582,9.3619184225,1.4177473905,2.6608187311999996,-0.05635231822376691,-0.047036623341247176,-0.02580905631386615,-60.479391990646015,-55.495469161064015,-3.8439052908506284
1699735582,9.3619184225,1.4177473905,2.6608187311999996,-0.05635231822376691,-0.047036623341247176,-0.02580905631386615,-61.151710026308095,-55.07161648640748,-3.4200526161940954
1699735582,9.1393859207,1.663011707,3.134597606,0.07024950239277176,-0.04108068726881653,0.02153299964648004,-60.757088570593396,-55.07161648640748,-3.7854428529669684
1699735582,9.1393859207,1.663011707,3.134597606,0.07024950239277176,-0.04108068726881653,0.02153299964648004,-60.654779304296994,-55.36392867582578,-3.8439052908506284
1699735582,9.038887371500001,1.9585252981,3.4540394231000002,0.15042556490626127,-0.014049900478554353,0.04352414822160859,-61.18094124524993,-55.51008477053493,-4.180064308681672
1699735582,9.038887371500001,1.9585252981,3.4540394231000002,0.15042556490626127,-0.014049900478554353,0.04352414822160859,-60.83016661794797,-55.4808535515931,-4.194679918152587
1699735582,9.1381895094,1.9094724347999998,3.3882368016,0.1317941751412218,0.0007635815477475192,0.027641652028460195,-60.757088570593396,-55.52470038000584,-4.194679918152587
1699735582,9.1381895094,1.9094724347999998,3.3882368016,0.10445795573186063,0.00198531202414355,0.014966198335851376,-60.78631978953523,-55.37854428529669,-4.223911137094417
1699735582,9.2279203569,1.6462619487999999,3.1932217597,0.10445795573186063,0.00198531202414355,0.014966198335851376,-61.21017246419176,-55.14469453376206,-4.326220403390821
1699735582,9.2279203569,1.6235301341000001,3.2087751066,0.08506298441907365,-0.009621127501618741,0.023671027980173093,-60.49400760011693,-55.72931891259866,-4.516223326512716
1699735582,9.0783689444,1.6235301341000001,3.2087751066,0.08506298441907365,-0.009621127501618741,0.023671027980173093,-60.8593978368898,-55.20315697164572,-4.428529669687226
1699735582,8.9802632178,1.8867406201,3.3762726886,0.07254024703601432,-0.03283400655314333,0.0319177086958463,-60.49400760011693,-55.33469745688395,-3.712364805612394
1699735582,8.9802632178,1.8867406201,3.3762726886,0.07254024703601432,-0.03283400655314333,0.0319177086958463,-60.34785150540778,-54.96930722011108,-4.121601870798012
1699735582,8.983852451699999,1.8783657409999999,3.5006994637999997,0.04123340357836603,-0.06261368691529658,0.001832595714594046,-60.64016369482608,-54.91084478222742,-3.9023677287342884
1699735582,8.983852451699999,1.8783657409999999,3.5006994637999997,0.04123340357836603,-0.06261368691529658,0.001832595714594046,-60.08477053493131,-55.042385267465654,-4.808535515931014
1699735582,8.9671026935,1.7635102562,3.5760733757,0.014049900478554353,-0.0755945732270044,-0.028863382504856226,-60.479391990646015,-54.998538439052915,-4.750073078047355
1699735582,8.9671026935,1.7635102562,3.5760733757,0.014049900478554353,-0.0755945732270044,-0.028863382504856226,-60.64016369482608,-55.05700087693657,-4.633148202280035
1699735582,8.961120637,1.6929219895,3.4743784152000003,0.0030543261909900766,-0.06123924012935104,-0.036499197982331415,-60.45016077170418,-55.495469161064015,-3.6685179771996492
1699735582,8.961120637,1.6929219895,3.4743784152000003,0.0030543261909900766,-0.06123924012935104,-0.036499197982331415,-60.49400760011693,-55.4808535515931,-4.428529669687226
1699735582,9.0843510009,1.7754743692000001,3.3834511564,0.00015271630954950385,-0.05253441048502932,-0.0316122760767473,-60.58170125694241,-54.983922829581985,-4.457760888629056
1699735582,9.0843510009,1.7754743692000001,3.3834511564,0.0079412480965742,-0.05375614096142535,-0.0277943683380097,-60.523238819058754,-55.422391113709445,-4.61853259280912
1699735582,9.1393859207,1.8305092889999999,3.2769705507,0.0079412480965742,-0.05375614096142535,-0.0277943683380097,-60.567085647471494,-55.62700964630225,-3.55159310143233
1699735582,9.1393859207,1.8305092889999999,3.2769705507,0.00839939702522271,-0.059864793343405505,-0.0320704250053958,-60.2747734580532,-55.36392867582578,-3.5662087109032443
1699735582,9.09272588,1.6666009409,3.2362925665,0.00839939702522271,-0.059864793343405505,-0.0320704250053958,-60.377082724349606,-55.451622332651276,-3.7269804150833092
1699735582,9.09272588,1.7778671918,3.2267212761,0.018478673455489966,-0.061850105367549056,-0.027183503099811684,-63.57790119847998,-55.62700964630225,-3.478515054077755
1699735582,9.164510558,1.7778671918,3.2267212761,0.018478673455489966,-0.061850105367549056,-0.027183503099811684,-60.50862320958784,-55.7731657410114,-4.121601870798012
1699735582,9.1896351953,1.9645073545999998,3.1417760738,0.03481931857728687,-0.05528330405692039,-0.02107485071783153,-60.28938906752411,-55.36392867582578,-4.486992107570885
1699735582,9.1896351953,1.9645073545999998,3.1417760738,0.03481931857728687,-0.05528330405692039,-0.02107485071783153,-60.80093539900614,-55.62700964630225,-3.858520900321544
1699735582,9.2051885422,1.9429719511999999,3.1381868399,0.04932736798448974,-0.04337143191205909,-0.017715091907742442,-60.552470038000585,-55.597778427360424,-4.340836012861737
1699735582,9.2051885422,1.9429719511999999,3.1381868399,0.04932736798448974,-0.04337143191205909,-0.017715091907742442,-60.28938906752411,-55.553931598947685,-4.033908213972523
1699735582,9.2027957196,1.8364913454999998,3.1788648241,0.045662176555301644,-0.030085112981252254,-0.014966198335851376,-60.552470038000585,-55.919321835720545,-4.53083893598363
1699735582,9.2027957196,1.8364913454999998,3.1788648241,0.045662176555301644,-0.030085112981252254,-0.014966198335851376,-60.50862320958784,-55.80239695995323,-4.165448699210757
1699735582,9.1142612834,1.8580267489000002,3.1381868399,0.050243665841786765,-0.01557706357404939,-0.008246680715673207,-60.99093832212803,-55.81701256942414,-3.5662087109032443
1699735582,9.1142612834,1.8580267489000002,3.1381868399,0.050243665841786765,-0.01557706357404939,-0.008246680715673207,-60.39169833382052,-55.89009061677872,-3.9462145571470333
1699735582,8.998209387300001,1.8041882404,3.2159535744,0.056505034533316414,-0.02076941809873252,-0.01114829059711378,-60.43554516223326,-55.17392575270389,-4.6039169833382045
1699735582,9.032905315,1.8675980393,3.3044880106,0.040317105721069016,-0.04046982203061852,-0.0198531202414355,-60.26015784858229,-55.40777550423853,-4.866997953814674
1699735582,9.032905315,1.8675980393,3.3044880106,0.040317105721069016,-0.04046982203061852,-0.0198531202414355,-60.567085647471494,-55.93393744519146,-4.633148202280035
1699735582,9.1716890258,1.9836499354,3.2853454298,0.002596177262341565,-0.058643062867009474,-0.03390302071998985,-60.479391990646015,-55.84624378836598,-4.428529669687226
1699735582,9.1716890258,1.9836499354,3.2853454298,0.002596177262341565,-0.058643062867009474,-0.03390302071998985,-60.49400760011693,-55.90470622624964,-4.121601870798012
1699735582,9.1322074529,2.1224336462,3.2626136151000003,-0.01069014166846527,-0.07254024703601432,-0.03787364476827695,-60.74247296112247,-55.14469453376206,-4.6039169833382045
1699735582,9.1322074529,2.1224336462,3.2626136151000003,-0.01069014166846527,-0.07254024703601432,-0.03787364476827695,-60.84478222741888,-55.23238819058754,-4.67699503069278
1699735582,9.0221376133,2.1930219129,3.23031051,0.0030543261909900766,-0.07513642429835589,-0.028405233576207712,-60.874013446360706,-55.320081847413036,-5.173925752703887
1699735582,9.0221376133,2.1930219129,3.23031051,0.0030543261909900766,-0.07513642429835589,-0.028405233576207712,-60.333235895936866,-55.597778427360424,-4.428529669687226
1699735582,8.8869431364,1.8867406201,3.2997023654,0.004123340357836604,-0.08552113334772216,-0.03359758810089084,-60.61093247588425,-55.466237942122184,-3.8439052908506284
1699735582,8.8869431364,1.8867406201,3.2997023654,0.004123340357836604,-0.08552113334772216,-0.03359758810089084,-60.4647763811751,-55.36392867582578,-4.121601870798012
1699735582,8.8941216042,1.8735800958,3.4983066412,-0.030543261909900768,-0.10812314716104872,-0.037720928458727446,-60.552470038000585,-55.34931306635487,-4.033908213972523
1699735582,8.8941216042,1.8735800958,3.4983066412,-0.030543261909900768,-0.10812314716104872,-0.037720928458727446,-60.888629055831636,-55.451622332651276,-4.413914060216311
1699735582,8.9826560404,2.2516460665999998,3.5832518435,-0.08170322560898456,-0.12507465752104363,-0.05772676500971245,-60.58170125694241,-56.03624671148787,-4.296989184448992
1699735582,8.9826560404,2.2516460665999998,3.5832518435,-0.08170322560898456,-0.12507465752104363,-0.05772676500971245,-60.68401052323882,-55.451622332651276,-4.165448699210757
1699735582,9.0185483794,2.0566310246999997,3.3846475676999996,-0.11881328882951399,-0.1189660051390635,-0.09682214025438543,-60.50862320958784,-55.74393452206957,-4.501607717041801
1699735582,9.0185483794,2.0566310246999997,3.3846475676999996,-0.1553124868118454,-0.10644326775600417,-0.11087204073293978,-60.377082724349606,-55.81701256942414,-3.960830166617948
1699735582,9.1872423727,1.4548361408000001,3.2626136151000003,-0.1553124868118454,-0.10644326775600417,-0.11087204073293978,-60.523238819058754,-56.021631102016954,-4.823151125401929
1699735582,9.1872423727,1.4548361408000001,3.2626136151000003,-0.1316414588316723,-0.08231409084718257,-0.0636827010821431,-60.77170418006431,-55.84624378836598,-4.194679918152587
1699735582,9.3224368496,1.6654045296,3.3308090592,-0.1316414588316723,-0.08231409084718257,-0.0636827010821431,-60.72785735165156,-55.75855013154049,-3.43466822566501
1699735582,9.3391866078,1.8987047331,3.0185457098999997,-0.0675006088208807,-0.040622538340168025,-0.020922134408282025,-60.64016369482608,-56.197018415667934,-4.486992107570885
1699735582,9.3391866078,1.8987047331,3.0185457098999997,-0.0675006088208807,-0.040622538340168025,-0.020922134408282025,-60.552470038000585,-55.65624086524408,-3.873136509792458
1699735582,9.3164547931,1.5601203352,2.7804598612,-0.037568212149177944,-0.03145955976719779,-0.008704829644321718,-60.552470038000585,-55.670856474714995,-4.56007015492546
1699735582,9.3164547931,1.5601203352,2.7804598612,-0.037568212149177944,-0.03145955976719779,-0.008704829644321718,-60.62554808535516,-55.80239695995323,-4.662379421221865
1699735582,9.229116768199999,1.7838492483,3.0448667585,-0.003665191429188092,-0.04276056667386108,0.017715091907742442,-59.93861444022216,-55.70008769365683,-4.238526746565332
1699735582,9.229116768199999,1.7838492483,3.0448667585,-0.003665191429188092,-0.04276056667386108,0.017715091907742442,-60.31862028646594,-55.62700964630225,-3.55159310143233
1699735582,9.008977089,2.1702900981999997,3.2027930501,0.019394971312786988,-0.04444044607890562,0.024434609527920613,-60.45016077170418,-55.40777550423853,-4.574685764396375
1699735582,9.008977089,2.1702900981999997,3.2027930501,0.019394971312786988,-0.04444044607890562,0.024434609527920613,-60.58170125694241,-55.086232095878394,-4.165448699210757
1699735582,9.0664048314,2.009970984,3.1142586138999997,0.0022907446432425577,-0.04199698512611356,-0.0033597588100890844,-60.34785150540778,-55.495469161064015,-4.384682841274482
1699735582,9.0664048314,2.009970984,3.1142586138999997,0.0022907446432425577,-0.04199698512611356,-0.0033597588100890844,-60.28938906752411,-55.78778135048231,-4.194679918152587
1699735582,9.0520478958,1.9585252981,3.0329026454999997,-0.018478673455489966,-0.04657847441259867,-0.02336559536107409,-60.72785735165156,-55.6854720841859,-4.56007015492546
1699735582,9.1262253964,2.0111673952999998,2.8797619991,-0.010995574287564275,-0.047342055960346185,-0.03466660226773737,-60.596316866413325,-55.641625255773164,-4.633148202280035
1699735582,9.1262253964,2.0111673952999998,2.8797619991,-0.010995574287564275,-0.047342055960346185,-0.03466660226773737,-60.49400760011693,-55.90470622624964,-3.858520900321544
1699735582,9.2267239456,1.7527425545,2.8307091358,0.010537425358915765,-0.056810467152415424,-0.0478002048889947,-60.6693949137679,-55.30546623794213,-3.449283835135925
1699735582,9.2267239456,1.7527425545,2.8307091358,0.010537425358915765,-0.056810467152415424,-0.0319177086958463,-60.21631102016954,-55.90470622624964,-3.916983338205203
1699735582,9.2410808812,1.7024932798999999,3.0975088557,0.05115996369908379,-0.06963863715457375,-0.0319177086958463,-60.552470038000585,-55.34931306635487,-4.223911137094417
1699735582,9.2410808812,1.7024932798999999,3.0975088557,0.0876591616814152,-0.07544185691745489,-0.006566801310628665,-60.523238819058754,-55.466237942122184,-4.106986261327098
1699735582,9.1453679772,1.5780665047,3.4971102299,0.0876591616814152,-0.07544185691745489,-0.006566801310628665,-60.596316866413325,-55.831628178895066,-4.370067231803566
1699735582,9.1453679772,1.5780665047,3.4971102299,0.07773260156069746,-0.06047565858160352,0.02306016274197508,-60.18707980122772,-55.70008769365683,-4.092370651856182
1699735582,9.037690960199999,1.7898313048,3.6825539814000003,0.07773260156069746,-0.06047565858160352,0.02306016274197508,-60.698626132709734,-55.641625255773164,-4.633148202280035
1699735582,8.9575314031,2.1391834043999998,3.4995030524999997,0.049480084294039245,-0.045356743936202634,0.02199114857512855,-60.11400175387314,-55.6854720841859,-4.150833089739843
1699735582,8.9575314031,2.1391834043999998,3.4995030524999997,0.049480084294039245,-0.045356743936202634,0.02199114857512855,-60.28938906752411,-55.74393452206957,-3.712364805612394
1699735582,8.9647098709,2.0243279196,3.290131075,0.02076941809873252,-0.05635231822376691,-0.016187928812247405,-60.654779304296994,-55.78778135048231,-3.931598947676118
1699735582,8.9647098709,2.0243279196,3.290131075,0.02076941809873252,-0.05635231822376691,-0.016187928812247405,-60.28938906752411,-55.71470330312774,-3.536977491961415
1699735582,9.0436730167,1.9704894111,3.3523444626,-0.012217304763960306,-0.07422012644105887,-0.03787364476827695,-60.6693949137679,-55.71470330312774,-3.9023677287342884
1699735582,9.0436730167,1.9704894111,3.3523444626,-0.012217304763960306,-0.07422012644105887,-0.03787364476827695,-60.420929552762345,-55.948553054662376,-3.595439929845075
1699735582,9.1322074529,2.0997018315,3.4002009146,-0.05146539631818279,-0.07834346679889546,-0.044898595007554123,-60.84478222741888,-55.70008769365683,-3.741596024554224
1699735582,9.1322074529,2.0997018315,3.4002009146,-0.05146539631818279,-0.07834346679889546,-0.044898595007554123,-60.9617071031862,-56.13855597778428,-3.4638994446068403
1699735582,9.1992064857,2.0327027987,3.1980074049,-0.09605855870663792,-0.0675006088208807,-0.05635231822376691,-60.6693949137679,-56.065477930429694,-3.49313066354867
1699735582,9.1944208405,1.806581063,2.9694928465999997,-0.0755945732270044,-0.05009094953223726,-0.048258353817643214,-60.874013446360706,-55.72931891259866,-3.800058462437884
1699735582,9.1944208405,1.806581063,2.9694928465999997,-0.0755945732270044,-0.05009094953223726,-0.048258353817643214,-60.552470038000585,-55.62700964630225,-4.223911137094417
1699735582,9.1369930981,1.7012968686,2.9288148624,0.01114829059711378,-0.0320704250053958,-0.014660765716752368,-60.377082724349606,-55.84624378836598,-4.033908213972523
1699735582,9.1369930981,1.7012968686,2.9288148624,0.01114829059711378,-0.0320704250053958,-0.014660765716752368,-60.31862028646594,-55.948553054662376,-3.390821397252265
1699735582,9.1369930981,1.8592231602,2.9826533709,0.061697389057999555,-0.026114488932965158,0.012217304763960306,-60.31862028646594,-56.03624671148787,-4.472376498099971
1699735582,9.1369930981,1.8592231602,2.9826533709,0.061697389057999555,-0.026114488932965158,0.012217304763960306,-60.64016369482608,-56.18240280619702,-3.6392867582578194
1699735583,9.0891366461,2.2480568327,3.0329026454999997,0.10537425358915764,-0.021685715956029545,0.03115412714809878,-60.50862320958784,-55.99239988307513,-4.2823735749780765
1699735583,9.0891366461,2.2480568327,3.0329026454999997,0.10537425358915764,-0.021685715956029545,0.03115412714809878,-60.43554516223326,-56.00701549254604,-4.165448699210757
1699735583,9.054440718399999,2.1667008643,3.0029923629999997,0.11239920382843482,-0.027336219409361186,0.013591751549905842,-60.49400760011693,-56.00701549254604,-3.990061385559778
1699735583,9.054440718399999,2.1667008643,3.0029923629999997,0.11239920382843482,-0.027336219409361186,0.013591751549905842,-60.20169541069863,-55.74393452206957,-4.194679918152587
1699735583,9.09272588,1.9800607015,3.1202406704,0.05467243881872237,-0.05803219762881146,-0.018784106074588972,-60.11400175387314,-55.90470622624964,-4.720841859105525
1699735583,9.09272588,1.9800607015,3.1202406704,0.05467243881872237,-0.05803219762881146,-0.018784106074588972,-60.72785735165156,-56.00701549254604,-3.6831335866705643
1699735583,9.1836531388,1.9513468303000001,3.2554351473,0.009773843811168246,-0.08185594191853406,-0.02626720524251466,-60.698626132709734,-56.28471207249343,-3.595439929845075
1699735583,9.1836531388,1.9513468303000001,3.2554351473,0.009773843811168246,-0.08185594191853406,-0.02626720524251466,-60.28938906752411,-55.89009061677872,-3.507746273019585
1699735583,9.1465643885,1.9812571127999998,3.1633114771999997,0.011453723216212788,-0.07696902001294993,-0.017867808217291947,-60.39169833382052,-55.422391113709445,-3.916983338205203
1699735583,9.1465643885,1.9812571127999998,3.1633114771999997,0.0439822971502571,-0.05696318346196493,-0.012980886311707827,-60.377082724349606,-55.90470622624964,-4.033908213972523
1699735583,9.165706969299999,1.8508482811000002,3.0017959517,0.0439822971502571,-0.05696318346196493,-0.012980886311707827,-60.01169248757673,-55.89009061677872,-3.756211634025139
1699735583,9.165706969299999,1.8508482811000002,3.0017959517,0.06062837489115302,-0.059864793343405505,-0.01313360262125733,-60.34785150540778,-59.4855305466238,-4.019292604501608
1699735583,9.188438784,1.5876377951,3.0269205889999995,0.06062837489115302,-0.059864793343405505,-0.01313360262125733,-60.83016661794797,-56.197018415667934,-4.136217480268927
1699735583,9.188438784,1.5876377951,3.3212377687999997,0.06291911953439558,-0.06887505560682623,0.009010262263420726,-60.552470038000585,-55.948553054662376,-3.653902367728734
1699735583,9.1704926145,1.9082760235,3.3212377687999997,0.06291911953439558,-0.06887505560682623,0.009010262263420726,-60.05553931598948,-55.948553054662376,-4.033908213972523
1699735583,9.200402897,2.3102702203,3.2374889778,0.05085453107998478,-0.0436768645311581,0.018631389765039467,-60.80093539900614,-55.61239403683133,-4.413914060216311
1699735583,9.200402897,2.3102702203,3.2374889778,0.05085453107998478,-0.0436768645311581,0.018631389765039467,-60.20169541069863,-55.495469161064015,-4.896229172756504
1699735583,9.242277292499999,1.9465611851,2.7720849821,0.03634648167278191,-0.016187928812247405,-0.002748893571891069,-60.24554223911137,-55.84624378836598,-4.209295527623502
1699735583,9.242277292499999,1.9465611851,2.7720849821,0.03634648167278191,-0.016187928812247405,-0.002748893571891069,-60.040923706518555,-55.6854720841859,-4.267757965507162
1699735583,9.2518485829,1.5637095691,2.7637101029999998,0.038179077387375956,-0.021227567027381034,-0.0007635815477475192,-60.34785150540778,-52.484653610055545,-3.6392867582578194
1699735583,9.2518485829,1.5637095691,2.7637101029999998,0.038179077387375956,-0.021227567027381034,-0.0007635815477475192,-60.61093247588425,-55.6854720841859,-3.960830166617948
1699735583,9.1142612834,2.0602202586000002,3.146561719,0.09468411192069237,-0.036804630601430424,0.03955352417332149,-60.099386144402224,-56.197018415667934,-4.267757965507162
1699735583,9.1142612834,2.0602202586000002,3.146561719,0.09468411192069237,-0.036804630601430424,0.03955352417332149,-60.30400467699503,-55.29085062847121,-3.5223618824905
1699735583,8.926424709299999,2.2791635265,3.4408788988000003,0.1556179194309444,-0.04214970143566306,0.04321871560250958,-60.333235895936866,-55.875475007307806,-3.5223618824905
1699735583,8.926424709299999,2.2791635265,3.4408788988000003,0.1556179194309444,-0.04214970143566306,0.04321871560250958,-60.40631394329144,-55.919321835720545,-4.019292604501608
1699735583,8.9623170483,1.7838492483,3.5270205124,0.12935071418842975,-0.04871650274629172,0.014202616788103856,-60.20169541069863,-55.6854720841859,-4.209295527623502
1699735583,8.9623170483,1.7838492483,3.5270205124,0.12935071418842975,-0.04871650274629172,0.014202616788103856,-60.552470038000585,-55.78778135048231,-3.814674071908799
1699735583,8.9647098709,1.7730815466,3.6837503927,0.07864889941799447,-0.056505034533316414,0.015424347264499889,-60.91786027477346,-55.81701256942414,-3.259280912014031
1699735583,8.9647098709,1.7730815466,3.6837503927,0.07864889941799447,-0.056505034533316414,0.015424347264499889,-60.77170418006431,-55.7731657410114,-2.33849751534639
1699735583,8.8522472087,2.2899312282,3.6921252718,0.04520402762665313,-0.05345070834232634,0.021227567027381034,-60.567085647471494,-55.115463314820225,-3.770827243496054
1699735583,8.8522472087,2.2899312282,3.6921252718,0.04520402762665313,-0.05345070834232634,0.021227567027381034,-60.523238819058754,-55.84624378836598,-4.092370651856182
1699735583,8.9120677737,2.3018953412000003,3.5078779316,-0.005497787143782138,-0.059406644414756994,-0.02550362369476714,-60.58170125694241,-55.58316281788951,-2.7769657994738384
1699735583,8.9120677737,2.3018953412000003,3.5078779316,-0.09514226084934088,-0.07452555906015787,-0.07330382858376185,-60.40631394329144,-55.70008769365683,-3.098509207833967
1699735583,9.0867438235,1.7754743692000001,3.2709884942,-0.09514226084934088,-0.07452555906015787,-0.07330382858376185,-60.74247296112247,-55.78778135048231,-4.019292604501608
1699735583,9.0867438235,1.7754743692000001,3.2709884942,-0.12919799787888026,-0.08155050929943505,-0.058490346557459966,-60.62554808535516,-55.61239403683133,-3.288512130955861
1699735583,9.1346002755,1.9274186043000001,3.2350961552,-0.12919799787888026,-0.08155050929943505,-0.058490346557459966,-60.757088570593396,-55.71470330312774,-2.9961999415375624
1699735583,9.1346002755,2.2289142519,3.1680971224,-0.12904528156933073,-0.08063421144213803,-0.048869219055841226,-60.40631394329144,-56.15317158725519,-3.273896521484946
1699735583,9.1357966868,2.2289142519,3.1680971224,-0.12904528156933073,-0.08063421144213803,-0.048869219055841226,-60.01169248757673,-56.21163402513885,-6.89856767027185
1699735583,9.1824567275,1.9274186043000001,2.9946174839,-0.11820242359131597,-0.07299839596466283,-0.05772676500971245,-60.78631978953523,-56.29932768196434,-3.931598947676118
1699735583,9.1824567275,1.9274186043000001,2.9946174839,-0.11820242359131597,-0.07299839596466283,-0.05772676500971245,-60.39169833382052,-55.948553054662376,-3.9462145571470333
1699735583,9.2877409219,1.6235301341000001,2.9479574432,-0.11209377120933582,-0.06963863715457375,-0.045356743936202634,-60.20169541069863,-55.99239988307513,-4.033908213972523
1699735583,9.2877409219,1.6235301341000001,2.9479574432,-0.11209377120933582,-0.06963863715457375,-0.045356743936202634,-60.21631102016954,-56.430868167202576,-4.296989184448992
1699735583,9.2147598326,2.1116659445,2.8570301844,-0.06429356632034111,-0.05146539631818279,-0.004886921905584123,-60.26015784858229,-55.96316866413329,-4.150833089739843
1699735583,9.2147598326,2.1116659445,2.8570301844,-0.06429356632034111,-0.05146539631818279,-0.004886921905584123,-60.81555100847705,-56.1677871967261,-4.4431452791581405
1699735583,9.265009107200001,2.1475582835,2.6584259086,0.005803219762881146,-0.02626720524251466,0.003817907738737596,-60.888629055831636,-56.021631102016954,-4.9254603916983335
1699735583,9.265009107200001,2.1475582835,2.6584259086,0.03558290012503439,-0.02748893571891069,-0.00519235452468313,-60.49400760011693,-56.12394036831336,-4.253142356036247
1699735583,9.3595255999,1.7072789251,2.7074787719,0.03558290012503439,-0.02748893571891069,-0.00519235452468313,-60.567085647471494,-55.84624378836598,-4.136217480268927
1699735583,9.3595255999,1.7072789251,2.9108686929000003,0.05711589977151443,-0.037568212149177944,0.018173240836390957,-60.698626132709734,-55.51008477053493,-3.8439052908506284
1699735583,9.2374916473,1.6654045296,2.9108686929000003,0.05711589977151443,-0.037568212149177944,0.018173240836390957,-60.64016369482608,-56.24086524408067,-3.55159310143233
1699735583,9.0915294687,1.9214365478,3.0185457098999997,0.09758572180213294,-0.037262779530078935,0.046883907031697675,-60.40631394329144,-55.539315989476755,-3.6246711487869043
1699735583,9.0915294687,1.9214365478,3.0185457098999997,0.09758572180213294,-0.037262779530078935,0.046883907031697675,-60.143232972814964,-56.00701549254604,-4.004676995030692
1699735583,9.0939222913,2.0566310246999997,3.0520452262999997,0.12873984895023172,-0.036804630601430424,0.04505131131710363,-60.8593978368898,-55.831628178895066,-3.58082432037416
1699735583,9.0939222913,2.0566310246999997,3.0520452262999997,0.12873984895023172,-0.036804630601430424,0.04505131131710363,-60.72785735165156,-55.553931598947685,-0.3215434083601286
1699735583,9.1441715659,1.9345970721,3.2051858726999995,0.1305724446648258,-0.03924809155422248,0.024434609527920613,-60.8593978368898,-55.56854720841859,-3.010815551008477
1699735583,9.1441715659,1.9345970721,3.2051858726999995,0.1305724446648258,-0.03924809155422248,0.024434609527920613,-60.81555100847705,-55.65624086524408,-3.49313066354867
1699735583,9.1740818484,1.8017954178,3.3308090592,0.10155634585042005,-0.03527746750593539,0.013286318930806833,-60.2747734580532,-55.597778427360424,-3.595439929845075
1699735583,9.1740818484,1.8017954178,3.3308090592,0.10155634585042005,-0.03527746750593539,0.013286318930806833,-60.72785735165156,-55.23238819058754,-3.478515054077755
1699735583,9.0987079365,1.8281164664,3.2195428083000004,0.08109236037078654,-0.022143864884678056,0.020616701789183015,-60.64016369482608,-55.422391113709445,-3.2008184741303713
1699735583,9.0987079365,1.8281164664,3.2195428083000004,0.08109236037078654,-0.022143864884678056,0.020616701789183015,-60.874013446360706,-55.84624378836598,-2.791581408944753
1699735583,9.1070828156,1.6677973521999998,3.1154550251999997,0.08323038870447959,-0.01679879405044542,0.026878070480712675,-60.91786027477346,-56.197018415667934,-3.273896521484946
1699735583,9.1070828156,1.6677973521999998,3.1154550251999997,0.08323038870447959,-0.01679879405044542,0.026878070480712675,-60.567085647471494,-55.58316281788951,-2.6892721426483486
1699735583,9.0831545896,1.79461695,3.2135607518000002,0.079412480965742,-0.03436116964863836,0.0316122760767473,-60.39169833382052,-55.93393744519146,-3.010815551008477
1699735583,9.0831545896,1.79461695,3.2135607518000002,0.079412480965742,-0.03436116964863836,0.0316122760767473,-60.50862320958784,-55.61239403683133,-2.8646594562993277
1699735583,9.0305124924,2.189432679,3.421736318,0.1036943741841131,-0.04627304179349966,0.03420845333908886,-60.757088570593396,-55.70008769365683,-2.9523531131248175
1699735583,9.0305124924,2.189432679,3.421736318,0.1036943741841131,-0.04627304179349966,0.03420845333908886,-60.40631394329144,-55.70008769365683,-3.43466822566501
1699735583,9.044869428,2.1870398563999998,3.3678978095,0.09071348787240527,-0.04138611988791554,0.01389718416900485,-60.874013446360706,-55.01315404852383,-2.747734580532008
1699735583,9.044869428,2.1870398563999998,3.3678978095,0.09071348787240527,-0.04138611988791554,0.01389718416900485,-60.698626132709734,-55.96316866413329,-3.49313066354867
1699735583,9.1393859207,1.9046867896,3.266202849,0.05635231822376691,-0.03298672286269283,-0.004123340357836604,-60.333235895936866,-55.086232095878394,-3.332358959368606
1699735583,9.1393859207,1.9046867896,3.266202849,0.05635231822376691,-0.03298672286269283,0.005345070834232635,-60.567085647471494,-55.65624086524408,-3.653902367728734
1699735583,9.1465643885,1.8245272325,3.3116664784,0.03359758810089084,-0.0320704250053958,0.005345070834232635,-60.099386144402224,-55.261619409529374,-2.8646594562993277
1699735583,9.1465643885,1.8245272325,3.3116664784,0.023212879051524585,-0.023976460599272102,0.028405233576207712,-60.40631394329144,-55.24700380005846,-2.1631102016954107
1699735583,9.081958178299999,2.15354034,3.2578279699,0.023212879051524585,-0.023976460599272102,0.028405233576207712,-60.420929552762345,-55.39315989476761,-2.557731657410114
1699735583,9.1011007591,2.1427726383,2.9982067177999996,0.01038470904936626,-0.018020524526841452,0.020158552860534508,-60.77170418006431,-55.451622332651276,-3.1569716457176265
1699735583,9.1011007591,2.1427726383,2.9982067177999996,0.01038470904936626,-0.018020524526841452,0.020158552860534508,-60.698626132709734,-55.36392867582578,-2.9231218941829873
1699735583,9.1585285015,1.842473402,2.8450660714,0.02153299964648004,-0.02229658119422756,0.005039638215133627,-60.49400760011693,-54.983922829581985,-2.9085062847120726
1699735583,9.1585285015,1.842473402,2.8450660714,0.02153299964648004,-0.02229658119422756,0.005039638215133627,-60.698626132709734,-55.24700380005846,-3.536977491961415
1699735583,9.1298146303,1.8125631194999998,2.9491538545,0.059406644414756994,-0.03130684345764829,0.013286318930806833,-60.77170418006431,-54.983922829581985,-3.8292896813797133
1699735583,9.1298146303,1.8125631194999998,2.9491538545,0.059406644414756994,-0.03130684345764829,0.013286318930806833,-60.77170418006431,-55.07161648640748,-3.8877521192633733
1699735583,9.0831545896,1.9860427579999997,3.0544380489000003,0.09224065096790032,-0.037568212149177944,0.024129176908821607,-60.420929552762345,-55.01315404852383,-2.966968722595732
1699735583,9.0831545896,1.9860427579999997,3.0544380489000003,0.09224065096790032,-0.037568212149177944,0.024129176908821607,-60.91786027477346,-55.276235019000296,-2.6892721426483486
1699735583,9.1908316066,1.8915262653,2.9970103065,0.09392053037294486,-0.03924809155422248,0.019242255003237483,-60.99093832212803,-55.6854720841859,-3.7269804150833092
1699735583,9.1908316066,1.8915262653,2.9970103065,0.09392053037294486,-0.03924809155422248,0.019242255003237483,-60.83016661794797,-55.51008477053493,-2.9961999415375624
1699735583,9.220741889100001,1.6749758199999998,2.9814569596,0.11484266478122689,-0.04245513405476207,0.017256942979093935,-61.005553931598946,-55.02776965799474,-3.2446653025431162
1699735583,9.220741889100001,1.6749758199999998,2.9814569596,0.11484266478122689,-0.04245513405476207,0.017256942979093935,-60.552470038000585,-55.20315697164572,-2.835428237357498
1699735583,9.1908316066,1.8101702968999998,3.0520452262999997,0.1551597705022959,-0.038637226316024474,0.0316122760767473,-60.479391990646015,-54.96930722011108,-3.259280912014031
1699735583,9.1908316066,1.8101702968999998,3.0520452262999997,0.1551597705022959,-0.038637226316024474,0.0316122760767473,-60.6693949137679,-55.422391113709445,-3.376205787781351
1699735583,9.1585285015,1.8556339263000001,3.1513473642000003,0.1866193302694937,-0.023823744289722597,0.04077525464971753,-60.698626132709734,-55.20315697164572,-3.215434083601286
1699735583,9.1585285015,1.8556339263000001,3.1513473642000003,0.1989893513430035,-0.012980886311707827,0.040622538340168025,-61.09324758842444,-55.320081847413036,-3.536977491961415
1699735583,9.1740818484,1.7443676754000002,3.3188449462,0.1989893513430035,-0.012980886311707827,0.040622538340168025,-60.49400760011693,-55.466237942122184,-3.4200526161940954
1699735583,9.1740818484,1.7443676754000002,3.3188449462,0.18845192598408772,-0.006719517620178169,0.04184426881656405,-60.81555100847705,-55.20315697164572,-3.4638994446068403
1699735583,9.1393859207,1.7886348934999998,3.3918260355000003,0.18845192598408772,-0.006719517620178169,0.04184426881656405,-60.84478222741888,-55.39315989476761,-3.390821397252265
1699735583,9.1393859207,1.7886348934999998,3.3918260355000003,0.13652838073725643,-0.01634064512179691,0.03359758810089084,-60.420929552762345,-55.51008477053493,-3.3615901783104354
1699735583,9.1669033806,1.890329854,3.2159535744,0.13652838073725643,-0.01634064512179691,0.03359758810089084,-60.53785442852967,-55.875475007307806,-2.9085062847120726
1699735583,9.041280194099999,1.8496518698,3.1525437755,0.09346238144429636,-0.038179077387375956,0.019089538693687978,-60.874013446360706,-55.7731657410114,-3.0254311604793918
1699735583,9.041280194099999,1.8496518698,3.1525437755,0.09346238144429636,-0.038179077387375956,0.019089538693687978,-60.72785735165156,-55.34931306635487,-3.1277404267757962
1699735583,8.949156524,1.9836499354,3.4600214796,0.09804387073078145,-0.05192354524683131,0.019547687622336492,-60.552470038000585,-55.51008477053493,-3.1862028646594562
1699735583,8.949156524,1.9836499354,3.4600214796,0.09804387073078145,-0.05192354524683131,0.019547687622336492,-60.552470038000585,-55.086232095878394,-2.5431160479391988
1699735584,9.0317089037,1.8939190879,3.6813575701,0.04459316238845512,-0.06658431096358366,-0.0006108652381980154,-60.26015784858229,-55.086232095878394,-3.1131248173048816
1699735584,9.0317089037,1.8939190879,3.6813575701,0.04459316238845512,-0.06658431096358366,-0.0006108652381980154,-60.64016369482608,-54.91084478222742,-3.1862028646594562
1699735584,9.1118684608,1.9669001771999999,3.5497523270999998,-0.009010262263420726,-0.05390885727097486,-0.004886921905584123,-60.20169541069863,-55.115463314820225,-3.712364805612394
1699735584,9.1118684608,1.9669001771999999,3.5497523270999998,-0.009010262263420726,-0.05390885727097486,-0.004886921905584123,-60.333235895936866,-54.54545454545454,-3.230049693072201
1699735584,9.0975115252,2.0745771942,3.1609186546,-0.002138028333693054,-0.024129176908821607,-0.002596177262341565,-60.8593978368898,-54.720841859105526,-2.747734580532008
1699735584,9.0975115252,2.0745771942,3.1609186546,-0.002138028333693054,-0.024129176908821607,-0.002596177262341565,-60.757088570593396,-54.983922829581985,-2.791581408944753
1699735584,9.1106720495,1.8017954178,2.9718856692,0.023671027980173093,-0.014508049407202865,-0.007330382858376184,-60.62554808535516,-54.95469161064016,-3.43466822566501
1699735584,9.1106720495,1.8017954178,2.9718856692,0.023671027980173093,-0.014508049407202865,-0.007330382858376184,-60.21631102016954,-54.866997953814675,-3.0254311604793918
1699735584,9.056833541,1.7970097726,3.1477581302999997,0.008246680715673207,-0.04260785036431157,-0.012675453692608817,-60.78631978953523,-54.70622624963462,-2.820812627886583
1699735584,9.056833541,1.7970097726,3.1477581302999997,0.008246680715673207,-0.059406644414756994,-0.010079276430267254,-60.26015784858229,-54.80853551593101,-3.1423560362467113
1699735584,9.044869428,2.0985054202,3.3212377687999997,-0.006719517620178169,-0.059406644414756994,-0.010079276430267254,-60.26015784858229,-54.75007307804736,-3.507746273019585
1699735584,9.044869428,2.0985054202,3.3212377687999997,-0.018631389765039467,-0.05115996369908379,-0.024740042147019622,-60.80093539900614,-55.641625255773164,-3.449283835135925
1699735584,9.175278259699999,2.045863323,3.2075786953,-0.018631389765039467,-0.05115996369908379,-0.024740042147019622,-60.78631978953523,-54.83776673487284,-3.2008184741303713
1699735584,9.175278259699999,2.045863323,3.2075786953,-0.02306016274197508,-0.04444044607890562,-0.03252857393404432,-61.020169541069855,-54.852382344343766,-3.3615901783104354
1699735584,9.2626162846,1.9106688461,3.0400811133000003,-0.02306016274197508,-0.04444044607890562,-0.03252857393404432,-60.4647763811751,-54.96930722011108,-3.273896521484946
1699735584,9.1202433399,1.6534404165999999,3.1453653077,-0.01435533309765336,-0.05100724738953428,-0.02336559536107409,-60.888629055831636,-54.940076001169246,-3.814674071908799
1699735584,9.1202433399,1.6534404165999999,3.1453653077,-0.01435533309765336,-0.05100724738953428,-0.02336559536107409,-60.6693949137679,-54.91084478222742,-3.3469745688395203
1699735584,9.0149591455,1.9238293703999998,3.2745777280999997,-0.00519235452468313,-0.05451972250917286,-0.0016798794050445422,-60.20169541069863,-54.618532592809125,-3.6246711487869043
1699735584,9.0149591455,1.9238293703999998,3.2745777280999997,-0.00519235452468313,-0.05451972250917286,-0.0016798794050445422,-60.45016077170418,-54.91084478222742,-3.55159310143233
1699735584,9.0747797105,2.1487546948,3.1381868399,-0.006872233929727673,-0.049480084294039245,-0.009315694882519734,-60.2747734580532,-55.13007892429115,-3.098509207833967
1699735584,9.0747797105,2.1487546948,3.1381868399,-0.006872233929727673,-0.049480084294039245,-0.009315694882519734,-60.552470038000585,-54.80853551593101,-3.1277404267757962
1699735584,9.1669033806,1.9429719511999999,3.0221349438,-0.01710422666954443,-0.05268712679457882,-0.03405573702953935,-60.68401052323882,-55.05700087693657,-3.3615901783104354
1699735584,9.1669033806,1.9429719511999999,3.0221349438,-0.01710422666954443,-0.05268712679457882,-0.03405573702953935,-60.49400760011693,-55.23238819058754,-3.58082432037416
1699735584,9.1932244292,1.7934205387,3.134597606,0.0003054326190990077,-0.05268712679457882,-0.027183503099811684,-60.62554808535516,-55.24700380005846,-3.873136509792458
1699735584,9.1932244292,1.7934205387,3.134597606,0.0003054326190990077,-0.05268712679457882,-0.027183503099811684,-60.888629055831636,-55.4808535515931,-3.43466822566501
1699735584,9.109475638200001,1.8293128776999998,3.290131075,-0.006414085001079161,-0.05146539631818279,-0.013286318930806833,-60.567085647471494,-55.37854428529669,-3.536977491961415
1699735584,9.109475638200001,1.8293128776999998,3.290131075,-0.006414085001079161,-0.05146539631818279,-0.013286318930806833,-60.53785442852967,-55.34931306635487,-2.6308097047646886
1699735584,9.1238325738,1.8867406201,3.2542387359999996,-0.029626964052603743,-0.05070181477043527,-0.00992656012071775,-60.31862028646594,-54.662379421221864,-3.478515054077755
1699735584,9.1238325738,1.8867406201,3.2542387359999996,-0.029626964052603743,-0.05070181477043527,-0.00992656012071775,-60.377082724349606,-55.30546623794213,-2.835428237357498
1699735584,9.1070828156,2.0374884439,3.1369904286000003,-0.017715091907742442,-0.047342055960346185,-0.007635815477475192,-60.77170418006431,-55.30546623794213,-3.916983338205203
1699735584,9.1070828156,2.0374884439,3.1369904286000003,-0.017715091907742442,-0.047342055960346185,-0.007635815477475192,-60.83016661794797,-55.276235019000296,-3.1862028646594562
1699735584,9.0987079365,1.9944176371,3.1489545415999998,0.02871066619530672,-0.03481931857728687,-0.00519235452468313,-60.552470038000585,-55.23238819058754,-3.770827243496054
1699735584,9.0987079365,1.9944176371,3.1489545415999998,0.007330382858376184,-0.039706240482871,-0.013591751549905842,-60.18707980122772,-55.70008769365683,-0.029231218941829874
1699735584,9.128618219,1.7838492483,3.1393832512,0.007330382858376184,-0.039706240482871,-0.013591751549905842,-60.567085647471494,-55.05700087693657,-3.054662379421222
1699735584,9.128618219,1.7838492483,3.1393832512,-0.03145955976719779,-0.061086523819801536,-0.017715091907742442,-60.18707980122772,-55.02776965799474,-2.835428237357498
1699735584,9.108279226899999,1.8616159827999998,3.1788648241,-0.03145955976719779,-0.061086523819801536,-0.017715091907742442,-60.02630809704764,-55.34931306635487,-4.092370651856182
1699735584,9.108279226899999,1.8616159827999998,3.1692935337,-0.04337143191205909,-0.05803219762881146,-0.01435533309765336,-60.61093247588425,-54.91084478222742,-3.814674071908799
1699735584,9.1680997919,2.0255243308999997,3.1692935337,-0.04337143191205909,-0.05803219762881146,-0.01435533309765336,-60.17246419175679,-54.852382344343766,-3.697749196141479
1699735584,9.21236701,1.9106688461,3.1202406704,-0.018936822384138473,-0.04673119072214818,-0.01832595714594046,-60.39169833382052,-55.52470038000584,-3.303127740426776
1699735584,9.21236701,1.9106688461,3.1202406704,-0.018936822384138473,-0.04673119072214818,-0.01832595714594046,-60.58170125694241,-55.7731657410114,-3.1862028646594562
1699735584,9.080761767,1.8317057003,3.1310083721,0.031001410838549282,-0.03390302071998985,-0.0079412480965742,-59.997076878105815,-55.02776965799474,-3.610055539315989
1699735584,9.080761767,1.8317057003,3.1310083721,0.031001410838549282,-0.03390302071998985,-0.0079412480965742,-60.68401052323882,-54.75007307804736,-3.5223618824905
1699735584,9.1202433399,1.7898313048,3.1286155494999996,0.03420845333908886,-0.030695978219450273,0.002138028333693054,-60.12861736334405,-54.7939199064601,-3.770827243496054
1699735584,9.1202433399,1.7898313048,3.1286155494999996,0.03420845333908886,-0.030695978219450273,0.002138028333693054,-60.479391990646015,-55.33469745688395,-3.0254311604793918
1699735584,9.117850517299999,1.9322042495,3.2291140987,0.017256942979093935,-0.04673119072214818,0.0016798794050445422,-60.39169833382052,-54.76468868751827,-3.610055539315989
1699735584,9.117850517299999,1.9322042495,3.2291140987,0.017256942979093935,-0.04673119072214818,0.0016798794050445422,-60.040923706518555,-55.14469453376206,-3.697749196141479
1699735584,9.1274218077,2.0949161863,3.1752755902,0.006414085001079161,-0.04612032548395016,-0.005345070834232635,-60.11400175387314,-54.54545454545454,-3.9462145571470333
1699735584,9.1274218077,2.0949161863,3.1752755902,0.006414085001079161,-0.04612032548395016,-0.005345070834232635,-60.4647763811751,-55.02776965799474,-2.747734580532008
1699735584,9.1992064857,1.770688724,3.0711878071,-0.0079412480965742,-0.04214970143566306,-0.02550362369476714,-60.01169248757673,-55.17392575270389,-3.332358959368606
1699735584,9.1992064857,1.770688724,3.0711878071,-0.0079412480965742,-0.04214970143566306,-0.02550362369476714,-60.40631394329144,-54.92546039169833,-4.048523823443437
1699735584,9.1561356789,1.7898313048,3.1190442591,0.015271630954950384,-0.038942658935123484,-0.01114829059711378,-60.333235895936866,-55.10084770534931,-3.507746273019585
1699735584,9.1561356789,1.7898313048,3.1190442591,0.015271630954950384,-0.038942658935123484,-0.01114829059711378,-60.523238819058754,-54.92546039169833,-3.8877521192633733
1699735584,9.0939222913,1.9453647738,3.1992038162000003,0.036499197982331415,-0.03451388595818787,0.006566801310628665,-60.08477053493131,-55.217772581116634,-3.858520900321544
1699735584,9.0939222913,1.9453647738,3.1992038162000003,0.036499197982331415,-0.03924809155422248,0.0022907446432425577,-60.64016369482608,-55.042385267465654,-4.063139432914353
1699735584,9.050851484499999,1.9310078382,3.2231320422,0.03283400655314333,-0.03924809155422248,0.0022907446432425577,-60.654779304296994,-54.95469161064016,-2.8646594562993277
1699735584,9.050851484499999,1.9310078382,3.2231320422,0.02306016274197508,-0.04184426881656405,-0.0033597588100890844,-60.61093247588425,-55.14469453376206,-3.55159310143233
1699735584,9.1262253964,1.8711872732,3.1992038162000003,0.02306016274197508,-0.04184426881656405,-0.0033597588100890844,-60.420929552762345,-55.10084770534931,-3.449283835135925
1699735584,9.1262253964,1.8711872732,3.1992038162000003,0.016493361431346415,-0.040317105721069016,-0.005955936072430649,-60.64016369482608,-55.51008477053493,-2.9085062847120726
1699735584,9.1357966868,1.9310078382,3.0951160330999996,0.016493361431346415,-0.040317105721069016,-0.005955936072430649,-60.61093247588425,-55.43700672318036,-3.6392867582578194
1699735584,9.1417787433,1.8747765071,3.1130622026,0.017256942979093935,-0.04459316238845512,-0.009773843811168246,-60.62554808535516,-55.495469161064015,-2.747734580532008
1699735584,9.1417787433,1.8747765071,3.1130622026,0.017256942979093935,-0.04459316238845512,-0.009773843811168246,-60.523238819058754,-55.23238819058754,-3.49313066354867
1699735584,9.178867493599999,1.8233308212,3.2697920829,0.0160352125026979,-0.05070181477043527,-0.00839939702522271,-60.099386144402224,-55.24700380005846,-3.1862028646594562
1699735584,9.178867493599999,1.8233308212,3.2697920829,0.0160352125026979,-0.05070181477043527,-0.00839939702522271,-60.596316866413325,-54.91084478222742,-3.332358959368606
1699735584,9.1070828156,1.9465611851,3.2925238975999997,0.03268129024359382,-0.040011673101970006,0.004276056667386108,-60.53785442852967,-55.086232095878394,-3.478515054077755
1699735584,9.1070828156,1.9465611851,3.2925238975999997,0.03268129024359382,-0.040011673101970006,0.004276056667386108,-60.2747734580532,-54.70622624963462,-4.413914060216311
1699735584,9.0831545896,1.8675980393,3.1298119607999997,0.037568212149177944,-0.028252517266658207,0.00198531202414355,-60.05553931598948,-55.13007892429115,-4.092370651856182
1699735584,9.0831545896,1.8675980393,3.1298119607999997,0.037568212149177944,-0.028252517266658207,0.00198531202414355,-60.420929552762345,-55.10084770534931,-3.756211634025139
1699735584,9.1357966868,1.8125631194999998,3.11066938,0.028252517266658207,-0.03436116964863836,-0.0033597588100890844,-60.888629055831636,-55.13007892429115,-3.595439929845075
1699735584,9.1357966868,1.8125631194999998,3.11066938,0.028252517266658207,-0.03436116964863836,-0.0033597588100890844,-60.654779304296994,-55.10084770534931,-3.4054370067231803
1699735584,9.1202433399,1.9896319919,3.2231320422,0.024892758456569127,-0.04306599929296008,-0.003817907738737596,-60.596316866413325,-55.13007892429115,-3.9462145571470333
1699735584,9.1202433399,1.9896319919,3.2231320422,0.024892758456569127,-0.04306599929296008,-0.003817907738737596,-60.43554516223326,-55.20315697164572,-3.916983338205203
1699735584,9.1393859207,1.8927226765999998,3.2578279699,0.024892758456569127,-0.04413501345980661,-0.009773843811168246,-60.78631978953523,-55.34931306635487,-4.253142356036247
1699735584,9.1393859207,1.8927226765999998,3.2578279699,0.024892758456569127,-0.04413501345980661,-0.009773843811168246,-60.30400467699503,-54.95469161064016,-3.6685179771996492
1699735584,9.0879402348,1.7922241274,3.1968109935999998,0.012217304763960306,-0.04169155250701455,-0.0079412480965742,-60.71324174218064,-54.82315112540193,-3.4638994446068403
1699735584,9.0879402348,1.7922241274,3.1968109935999998,0.016951510359994926,-0.04337143191205909,-0.0015271630954950383,-60.523238819058754,-55.02776965799474,-3.7269804150833092
1699735584,9.0747797105,1.8197415872999998,3.2554351473,0.016951510359994926,-0.04337143191205909,-0.0015271630954950383,-60.20169541069863,-54.940076001169246,-3.6246711487869043
1699735584,9.0747797105,1.8197415872999998,3.2554351473,0.012980886311707827,-0.048258353817643214,0.0015271630954950383,-60.43554516223326,-54.92546039169833,-3.873136509792458
1699735584,9.0939222913,1.9872391693,3.3164521235999995,0.012980886311707827,-0.048258353817643214,0.0015271630954950383,-60.43554516223326,-55.24700380005846,-3.43466822566501
1699735584,9.0628155975,2.0877377184999997,3.2398818003999996,0.019089538693687978,-0.04428772976935611,-0.00519235452468313,-60.58170125694241,-55.24700380005846,-3.610055539315989
1699735584,9.0628155975,2.0877377184999997,3.2398818003999996,0.019089538693687978,-0.04428772976935611,-0.00519235452468313,-60.40631394329144,-54.82315112540193,-3.317743349897691
1699735584,9.1106720495,1.7599210223,3.1716863562999995,0.013286318930806833,-0.04352414822160859,-0.023671027980173093,-60.61093247588425,-55.01315404852383,-4.048523823443437
1699735584,9.1106720495,1.7599210223,3.1716863562999995,0.013286318930806833,-0.04352414822160859,-0.023671027980173093,-60.21631102016954,-55.042385267465654,-3.332358959368606
1699735584,9.1250289851,1.7802600144,3.2961131315000003,0.009773843811168246,-0.047952921198544204,-0.01435533309765336,-60.420929552762345,-55.217772581116634,-3.507746273019585
1699735584,9.1250289851,1.7802600144,3.2961131315000003,0.009773843811168246,-0.047952921198544204,-0.01435533309765336,-60.62554808535516,-55.422391113709445,-3.873136509792458
1699735584,9.096315113900001,2.0027925162,3.3296126479000003,0.007330382858376184,-0.04657847441259867,-0.005803219762881146,-60.874013446360706,-55.261619409529374,-3.58082432037416
1699735584,9.096315113900001,2.0027925162,3.3296126479000003,0.007330382858376184,-0.04657847441259867,-0.005803219762881146,-60.81555100847705,-55.14469453376206,-3.2446653025431162
1699735584,9.0939222913,2.0315063874,3.2027930501,-0.0079412480965742,-0.04413501345980661,-0.012522737383059314,-60.58170125694241,-55.58316281788951,-3.6831335866705643
1699735584,9.0939222913,2.0315063874,3.2027930501,-0.0079412480965742,-0.04413501345980661,-0.012522737383059314,-60.099386144402224,-55.641625255773164,-4.267757965507162
1699735584,9.1011007591,1.79461695,3.1429724850999996,-0.012675453692608817,-0.04902193536539073,-0.020158552860534508,-60.479391990646015,-55.29085062847121,-3.8877521192633733
1699735584,9.1011007591,1.79461695,3.1429724850999996,-0.012675453692608817,-0.04902193536539073,-0.020158552860534508,-60.552470038000585,-55.24700380005846,-3.4054370067231803
1699735584,9.0915294687,1.8412769907000002,3.3164521235999995,0.005345070834232635,-0.049174651674940235,-0.007635815477475192,-60.61093247588425,-55.01315404852383,-4.384682841274482
1699735584,9.0915294687,1.8412769907000002,3.3164521235999995,0.005345070834232635,-0.049174651674940235,-0.007635815477475192,-60.71324174218064,-55.042385267465654,-3.317743349897691
1699735584,9.1118684608,1.9465611851,3.3320054705,0.013286318930806833,-0.04474587869800463,-0.00015271630954950385,-60.68401052323882,-55.05700087693657,-4.180064308681672
1699735584,9.1118684608,1.9465611851,3.3320054705,0.013286318930806833,-0.04474587869800463,-0.00015271630954950385,-60.71324174218064,-55.13007892429115,-3.8439052908506284
1699735584,9.2279203569,1.8891334427000002,3.1692935337,0.012522737383059314,-0.038331793696925465,-0.007788531787024695,-60.64016369482608,-55.422391113709445,-4.472376498099971
1699735584,9.2279203569,1.8891334427000002,3.1692935337,0.012522737383059314,-0.038331793696925465,-0.007788531787024695,-59.953230049693076,-55.74393452206957,-4.340836012861737
1699735584,9.104689993,1.8759729184,3.0831519201,-0.029168815123955232,-0.04214970143566306,-0.005955936072430649,-60.20169541069863,-55.276235019000296,-4.063139432914353
1699735585,9.104689993,1.8759729184,3.0831519201,-0.029168815123955232,-0.04214970143566306,-0.005955936072430649,-60.39169833382052,-55.62700964630225,-3.58082432037416
1699735585,9.0257268472,2.0111673952999998,3.2554351473,-0.03390302071998985,-0.04123340357836603,0.01069014166846527,-60.36246711487869,-55.14469453376206,-3.4054370067231803
1699735585,9.0257268472,2.0111673952999998,3.2554351473,-0.03390302071998985,-0.04123340357836603,0.009315694882519734,-60.80093539900614,-54.940076001169246,-3.9462145571470333
1699735585,9.1202433399,2.0482561456,3.3355947043999996,-0.012064588454410803,-0.03375030441044035,0.009315694882519734,-60.91786027477346,-55.05700087693657,-4.267757965507162
1699735585,9.1202433399,2.0482561456,3.3355947043999996,0.007483099167925688,-0.028099800957108706,-0.0003054326190990077,-60.143232972814964,-55.07161648640748,-4.180064308681672
1699735585,9.1872423727,1.9944176371,3.1513473642000003,0.007483099167925688,-0.028099800957108706,-0.0003054326190990077,-60.30400467699503,-55.1885413621748,-3.1862028646594562
1699735585,9.1872423727,1.9944176371,3.11066938,-0.017867808217291947,-0.03420845333908886,-0.006566801310628665,-60.43554516223326,-55.01315404852383,-3.58082432037416
1699735585,9.1322074529,1.8807585636,3.11066938,-0.017867808217291947,-0.03420845333908886,-0.006566801310628665,-60.20169541069863,-55.217772581116634,-3.653902367728734
1699735585,9.0628155975,1.8101702968999998,3.2267212761,-0.022602013813326566,-0.04138611988791554,-0.00916297857297023,-60.21631102016954,-54.96930722011108,-3.1423560362467113
1699735585,9.0628155975,1.8101702968999998,3.2267212761,-0.022602013813326566,-0.04138611988791554,-0.00916297857297023,-60.18707980122772,-54.60391698333821,-4.340836012861737
1699735585,9.0616191862,1.9118652574,3.1669007111,-0.022143864884678056,-0.046883907031697675,-0.01313360262125733,-60.43554516223326,-55.20315697164572,-4.209295527623502
1699735585,9.0616191862,1.9118652574,3.1669007111,-0.022143864884678056,-0.046883907031697675,-0.01313360262125733,-60.68401052323882,-55.40777550423853,-3.6246711487869043
1699735585,9.1034935817,2.1200408236,2.9814569596,-0.005803219762881146,-0.04581489286485115,-0.010537425358915765,-60.61093247588425,-55.261619409529374,-4.004676995030692
1699735585,9.1034935817,2.1200408236,2.9814569596,-0.005803219762881146,-0.04581489286485115,-0.010537425358915765,-60.50862320958784,-55.01315404852383,-4.063139432914353
1699735585,9.152546445,1.8735800958,3.0101708308,0.009773843811168246,-0.05528330405692039,-0.024892758456569127,-60.50862320958784,-54.96930722011108,-4.165448699210757
1699735585,9.152546445,1.8735800958,3.0101708308,0.009773843811168246,-0.05528330405692039,-0.024892758456569127,-60.143232972814964,-54.998538439052915,-3.9023677287342884
1699735585,9.140582332,1.6725829974,3.2171499857,-0.006414085001079161,-0.07024950239277176,-0.0317649923862968,-60.39169833382052,-55.07161648640748,-3.6246711487869043
1699735585,9.140582332,1.6725829974,3.2171499857,-0.006414085001079161,-0.07024950239277176,-0.0317649923862968,-60.64016369482608,-54.95469161064016,-4.063139432914353
1699735585,9.1573320902,1.8927226765999998,3.2733813167999997,0.004428772976935611,-0.061086523819801536,-0.013591751549905842,-60.74247296112247,-54.77930429698918,-3.4200526161940954
1699735585,9.1573320902,1.8927226765999998,3.2733813167999997,0.004428772976935611,-0.061086523819801536,-0.013591751549905842,-60.05553931598948,-55.07161648640748,-3.800058462437884
1699735585,9.2494557603,1.7934205387,3.1489545415999998,0.019242255003237483,-0.0439822971502571,-0.005497787143782138,-60.479391990646015,-54.83776673487284,-3.712364805612394
1699735585,9.2494557603,1.7934205387,3.1489545415999998,0.037110063220529434,-0.04459316238845512,0.009468411192069237,-60.654779304296994,-54.83776673487284,-3.55159310143233
1699735585,9.1058864043,1.7874384822,3.1441688964,0.037110063220529434,-0.04459316238845512,0.009468411192069237,-60.12861736334405,-54.998538439052915,-3.8877521192633733
1699735585,9.1058864043,1.7874384822,3.1441688964,0.046883907031697675,-0.04596760917440065,0.020463985479633514,-61.005553931598946,-54.618532592809125,-3.390821397252265
1699735585,9.0364945489,1.8628123941,3.2338997439000003,0.046883907031697675,-0.04596760917440065,0.020463985479633514,-60.888629055831636,-55.086232095878394,-4.180064308681672
1699735585,9.0364945489,1.9082760235,3.3188449462,0.04199698512611356,-0.050396382151336266,0.01038470904936626,-61.37094416837182,-54.75007307804736,-3.5662087109032443
1699735585,9.081958178299999,1.9082760235,3.3188449462,0.04199698512611356,-0.050396382151336266,0.01038470904936626,-60.80093539900614,-54.75007307804736,-4.106986261327098
1699735585,9.050851484499999,2.0255243308999997,3.3822547451,0.0398589567924205,-0.04902193536539073,0.0007635815477475192,-60.9617071031862,-54.95469161064016,-3.9462145571470333
1699735585,9.050851484499999,2.0255243308999997,3.3822547451,0.0398589567924205,-0.04902193536539073,0.0007635815477475192,-60.40631394329144,-55.29085062847121,-4.4431452791581405
1699735585,9.0891366461,1.8364913454999998,3.2925238975999997,0.0,-0.047952921198544204,-0.019242255003237483,-60.91786027477346,-55.14469453376206,-3.9023677287342884
1699735585,9.0891366461,1.8364913454999998,3.2925238975999997,0.0,-0.047952921198544204,-0.019242255003237483,-60.84478222741888,-55.15931014323298,-4.150833089739843
1699735585,9.0628155975,1.7455640867,3.3068808331999997,-0.04199698512611356,-0.0641408500107916,-0.02901609881440573,-60.72785735165156,-54.73545746857644,-3.800058462437884
1699735585,9.0628155975,1.7455640867,3.3068808331999997,-0.04199698512611356,-0.0641408500107916,-0.02901609881440573,-60.81555100847705,-54.45776088862906,-4.428529669687226
1699735585,9.1369930981,1.9214365478,3.3750762773,-0.009773843811168246,-0.05360342465187585,-0.00916297857297023,-60.64016369482608,-54.998538439052915,-3.4200526161940954
1699735585,9.1369930981,1.9214365478,3.3750762773,-0.009773843811168246,-0.05360342465187585,-0.00916297857297023,-60.58170125694241,-54.866997953814675,-3.858520900321544
1699735585,9.2147598326,1.8544375149999999,3.1609186546,0.01313360262125733,-0.03558290012503439,-0.004734205596034618,-60.15784858228588,-54.560070154925455,-3.317743349897691
1699735585,9.2147598326,1.8544375149999999,3.1609186546,0.01313360262125733,-0.03558290012503439,-0.004734205596034618,-60.43554516223326,-54.58930137386729,-3.449283835135925
1699735585,9.1357966868,1.6366906583999998,3.0903303879,0.017256942979093935,-0.0398589567924205,-0.0016798794050445422,-60.552470038000585,-54.560070154925455,-3.931598947676118
1699735585,9.1357966868,1.6366906583999998,3.0903303879,0.017256942979093935,-0.0398589567924205,-0.0016798794050445422,-60.40631394329144,-54.58930137386729,-4.165448699210757
1699735585,9.0281196698,1.8675980393,3.2949167202,0.009468411192069237,-0.05009094953223726,0.013744467859455345,-60.99093832212803,-54.54545454545454,-4.70622624963461
1699735585,9.0281196698,1.8675980393,3.2949167202,0.009468411192069237,-0.05009094953223726,0.017867808217291947,-60.80093539900614,-54.852382344343766,-4.165448699210757
1699735585,9.0149591455,2.1212372348999997,3.3738798660000002,0.024892758456569127,-0.038942658935123484,0.017867808217291947,-60.9617071031862,-54.560070154925455,-4.209295527623502
1699735585,9.0149591455,2.1212372348999997,3.3738798660000002,0.024892758456569127,-0.03359758810089084,-0.007483099167925688,-60.757088570593396,-54.57468576439638,-4.457760888629056
1699735585,9.1549392676,1.9896319919,3.2530423247,0.024892758456569127,-0.03359758810089084,-0.007483099167925688,-60.4647763811751,-54.91084478222742,-4.063139432914353
1699735585,9.1549392676,1.9896319919,3.2530423247,0.005803219762881146,-0.0358883327441334,-0.018784106074588972,-60.698626132709734,-55.276235019000296,-4.808535515931014
1699735585,9.165706969299999,1.7012968686,3.1142586138999997,0.005803219762881146,-0.0358883327441334,-0.018784106074588972,-60.420929552762345,-54.618532592809125,-4.486992107570885
1699735585,9.116654106,1.7491533206,3.1046873235,-0.028557949885757217,-0.0516181126277323,-0.012064588454410803,-60.6693949137679,-54.60391698333821,-4.355451622332652
1699735585,9.116654106,1.7491533206,3.1046873235,-0.028557949885757217,-0.0516181126277323,-0.012064588454410803,-61.09324758842444,-54.58930137386729,-4.4431452791581405
1699735585,9.164510558,1.9058832009,3.0915267992,-0.030085112981252254,-0.06307183584394509,-0.00916297857297023,-60.53785442852967,-54.80853551593101,-4.428529669687226
1699735585,9.164510558,1.9058832009,3.0915267992,-0.030085112981252254,-0.06307183584394509,-0.00916297857297023,-60.78631978953523,-54.940076001169246,-4.662379421221865
1699735585,9.1944208405,1.9274186043000001,3.1094729686999996,-0.0035124751196385882,-0.06123924012935104,-0.007788531787024695,-60.61093247588425,-54.88161356328559,-4.180064308681672
1699735585,9.1944208405,1.9274186043000001,3.1094729686999996,-0.0035124751196385882,-0.06123924012935104,-0.007788531787024695,-61.005553931598946,-54.77930429698918,-3.990061385559778
1699735585,9.1334038642,1.8759729184,3.2350961552,0.0358883327441334,-0.047494772269895694,-0.001069014166846527,-60.654779304296994,-54.42852966968723,-4.472376498099971
1699735585,9.1334038642,1.8759729184,3.2350961552,0.0358883327441334,-0.047494772269895694,-0.001069014166846527,-60.6693949137679,-54.998538439052915,-3.58082432037416
1699735585,9.095118702599999,1.7084753364,3.3020951879999996,0.03436116964863836,-0.04199698512611356,0.00015271630954950385,-61.078631978953524,-54.03390821397252,-4.384682841274482
1699735585,9.095118702599999,1.7084753364,3.3020951879999996,0.03436116964863836,-0.04199698512611356,0.00015271630954950385,-60.49400760011693,-54.42852966968723,-4.969307220111078
1699735585,9.0735832992,1.7659030788,3.2398818003999996,0.02076941809873252,-0.04306599929296008,0.00717766654882668,-60.72785735165156,-55.042385267465654,-4.019292604501608
1699735585,9.0735832992,1.7659030788,3.2398818003999996,0.02076941809873252,-0.04306599929296008,0.00717766654882668,-60.49400760011693,-55.14469453376206,-3.697749196141479
1699735585,9.1561356789,1.9633109433,3.0903303879,0.02871066619530672,-0.036499197982331415,0.008857545953871221,-61.28325051154633,-55.10084770534931,-3.873136509792458
1699735585,9.1561356789,1.9633109433,3.0903303879,0.02871066619530672,-0.036499197982331415,0.008857545953871221,-60.698626132709734,-55.17392575270389,-4.092370651856182
1699735585,9.1585285015,1.9393827173,3.1178478478000002,0.03466660226773737,-0.04459316238845512,-0.002901609881440573,-60.80093539900614,-54.720841859105526,-3.770827243496054
1699735585,9.1585285015,1.9393827173,3.1178478478000002,0.03466660226773737,-0.04459316238845512,-0.002901609881440573,-61.078631978953524,-54.75007307804736,-3.6392867582578194
1699735585,9.1130648721,1.8269200550999998,3.3104700671000002,0.022143864884678056,-0.049938233222687756,-0.005345070834232635,-60.83016661794797,-54.852382344343766,-3.58082432037416
1699735585,9.1130648721,1.8269200550999998,3.3104700671000002,0.022143864884678056,-0.049938233222687756,-0.005345070834232635,-60.654779304296994,-54.83776673487284,-4.662379421221865
1699735585,9.0699940653,1.8412769907000002,3.3523444626,0.005650503453331642,-0.049785516913138254,0.0007635815477475192,-60.61093247588425,-55.05700087693657,-4.019292604501608
1699735585,9.0699940653,1.8412769907000002,3.3523444626,0.005650503453331642,-0.049785516913138254,0.0007635815477475192,-60.49400760011693,-54.76468868751827,-3.9023677287342884
1699735585,9.1561356789,1.7790636031,3.1322047834,0.0013744467859455344,-0.04459316238845512,0.003665191429188092,-61.005553931598946,-54.31160479391991,-4.355451622332652
1699735585,9.1561356789,1.7790636031,3.1322047834,0.0013744467859455344,-0.04459316238845512,0.003665191429188092,-60.68401052323882,-54.720841859105526,-4.004676995030692
1699735585,9.175278259699999,1.8388841681,3.0723842184,-0.0004581489286485115,-0.04871650274629172,0.005039638215133627,-60.479391990646015,-54.852382344343766,-3.9023677287342884
1699735585,9.175278259699999,1.8388841681,3.0723842184,0.029626964052603743,-0.05146539631818279,0.00717766654882668,-60.58170125694241,-54.83776673487284,-3.960830166617948
1699735585,9.1154576947,1.9872391693,3.2578279699,0.029626964052603743,-0.05146539631818279,0.00717766654882668,-60.932475884244376,-55.02776965799474,-3.6685179771996492
1699735585,9.1154576947,1.9872391693,3.2578279699,0.046883907031697675,-0.038026361077826455,0.005803219762881146,-60.99093832212803,-54.63314820228003,-4.0777550423852675
1699735585,9.0580299523,1.8161523534,3.2709884942,0.046883907031697675,-0.038026361077826455,0.005803219762881146,-61.151710026308095,-54.866997953814675,-3.653902367728734
1699735585,9.148957211099999,1.6737794087,3.2099715178999997,0.036499197982331415,-0.02748893571891069,0.008246680715673207,-61.020169541069855,-54.560070154925455,-4.355451622332652
1699735585,9.148957211099999,1.6737794087,3.2099715178999997,0.036499197982331415,-0.02748893571891069,0.008246680715673207,-61.034785150540785,-54.37006723180357,-3.4054370067231803
1699735585,9.1968136631,1.8867406201,3.0855447427,0.0004581489286485115,-0.04306599929296008,0.00198531202414355,-61.356328558900906,-54.618532592809125,-3.6685179771996492
1699735585,9.1968136631,1.8867406201,3.0855447427,0.0004581489286485115,-0.04306599929296008,0.00198531202414355,-60.552470038000585,-54.384682841274476,-4.2823735749780765
1699735585,9.096315113900001,2.0111673952999998,3.0173492985999997,0.001832595714594046,-0.05467243881872237,-0.004734205596034618,-60.4647763811751,-54.67699503069278,-3.931598947676118
1699735585,9.096315113900001,2.0111673952999998,3.0173492985999997,0.001832595714594046,-0.05467243881872237,-0.004734205596034618,-60.976322712657115,-54.22391113709442,-3.449283835135925
1699735585,9.1561356789,1.7312071511,3.0640093393,0.02428189321837111,-0.05451972250917286,-0.008093964406123703,-60.83016661794797,-54.896229172756506,-3.49313066354867
1699735585,9.1561356789,1.7312071511,3.0640093393,0.02428189321837111,-0.05451972250917286,-0.008093964406123703,-61.26863490207541,-54.60391698333821,-4.136217480268927
1699735585,9.2051885422,1.5014961814999999,3.2458638569,0.035430183815484885,-0.05497787143782138,0.00198531202414355,-60.6693949137679,-54.42852966968723,-4.413914060216311
1699735585,9.2051885422,1.5014961814999999,3.2458638569,0.035430183815484885,-0.05497787143782138,0.00198531202414355,-60.43554516223326,-54.54545454545454,-3.858520900321544
1699735585,9.0616191862,1.9956140484,3.4085757937,0.05390885727097486,-0.057879481319261954,0.022602013813326566,-60.68401052323882,-54.45776088862906,-4.194679918152587
1699735585,9.0616191862,1.9956140484,3.4085757937,0.05390885727097486,-0.057879481319261954,0.022602013813326566,-60.99093832212803,-54.998538439052915,-4.516223326512716
1699735585,9.0293160811,2.1116659445,3.3200413575,0.02626720524251466,-0.05528330405692039,0.0003054326190990077,-61.458637825197314,-54.57468576439638,-3.4638994446068403
1699735585,9.0293160811,2.1116659445,3.3200413575,0.02626720524251466,-0.05528330405692039,0.0003054326190990077,-61.13709441683718,-54.69161064016369,-4.311604793919907
1699735585,9.1704926145,1.7623138449,3.1836504693,0.0006108652381980154,-0.045356743936202634,-0.02580905631386615,-61.21017246419176,-54.88161356328559,-3.1277404267757962
1699735585,9.1704926145,1.7623138449,3.1836504693,0.0006108652381980154,-0.045356743936202634,-0.02580905631386615,-60.94709149371529,-54.70622624963462,-3.960830166617948
1699735585,9.220741889100001,1.5026925928000001,3.2004002275,0.029321531433504737,-0.029168815123955232,-0.014508049407202865,-60.932475884244376,-54.5016077170418,-4.56007015492546
1699735585,9.220741889100001,1.5026925928000001,3.2004002275,0.03665191429188092,-0.026114488932965158,0.010842857978014772,-60.07015492546039,-54.70622624963462,-4.633148202280035
1699735585,9.1441715659,1.7407784414999998,3.2841490185,0.03665191429188092,-0.026114488932965158,0.010842857978014772,-60.17246419175679,-54.88161356328559,-4.180064308681672
1699735585,9.1441715659,1.7407784414999998,3.2841490185,0.02229658119422756,-0.03497203488683638,0.007635815477475192,-61.034785150540785,-54.720841859105526,-4.837766734872844
1699735585,9.0592263636,2.0123638066000002,3.2135607518000002,0.02229658119422756,-0.03497203488683638,0.007635815477475192,-61.034785150540785,-54.73545746857644,-5.042385267465653
1699735585,9.0592263636,1.8831513862,3.1070801461,0.00717766654882668,-0.04199698512611356,-0.013591751549905842,-60.72785735165156,-54.618532592809125,-4.238526746565332
1699735585,9.0676012427,1.8831513862,3.1070801461,0.00717766654882668,-0.04199698512611356,-0.013591751549905842,-61.151710026308095,-54.720841859105526,-4.823151125401929
1699735585,9.117850517299999,1.7766707805,3.0460631697999996,0.0013744467859455344,-0.048869219055841226,-0.023518311670623588,-60.80093539900614,-54.32622040339082,-4.56007015492546
1699735586,9.117850517299999,1.7766707805,3.0460631697999996,0.0013744467859455344,-0.048869219055841226,-0.023518311670623588,-60.53785442852967,-54.720841859105526,-4.428529669687226
1699735586,9.1429751546,1.8652052167000002,3.1525437755,0.010231992739816757,-0.05375614096142535,-0.01679879405044542,-60.30400467699503,-54.64776381175095,-4.67699503069278
1699735586,9.1429751546,1.8652052167000002,3.1525437755,0.010231992739816757,-0.05375614096142535,-0.01679879405044542,-60.72785735165156,-53.97544577608886,-4.61853259280912
1699735586,9.2099741874,1.9405791285999998,3.2446674455999998,0.016187928812247405,-0.05085453107998478,-0.011301006906663283,-60.45016077170418,-54.67699503069278,-4.574685764396375
1699735586,9.2099741874,1.9405791285999998,3.2446674455999998,0.016187928812247405,-0.05085453107998478,-0.011301006906663283,-60.8593978368898,-54.5016077170418,-4.67699503069278
1699735586,9.1728854371,1.7216358607,3.2398818003999996,0.040622538340168025,-0.038942658935123484,-0.009621127501618741,-60.99093832212803,-55.14469453376206,-4.384682841274482
1699735586,9.1728854371,1.7216358607,3.2398818003999996,0.040622538340168025,-0.038942658935123484,-0.009621127501618741,-61.18094124524993,-54.662379421221864,-4.106986261327098
1699735586,9.1334038642,1.6067803759000001,3.1980074049,0.04321871560250958,-0.029168815123955232,0.0016798794050445422,-60.77170418006431,-54.472376498099976,-4.662379421221865
1699735586,9.1334038642,1.6067803759000001,3.1980074049,0.04321871560250958,-0.029168815123955232,0.0016798794050445422,-61.06401636948261,-54.530838935983624,-4.223911137094417
1699735586,9.1106720495,1.8640088054,3.1381868399,0.0277943683380097,-0.035735616434583894,0.009468411192069237,-60.58170125694241,-54.63314820228003,-4.735457468576439
1699735586,9.1106720495,1.8640088054,3.1381868399,0.0277943683380097,-0.035735616434583894,0.009468411192069237,-60.523238819058754,-54.67699503069278,-3.507746273019585
1699735586,9.0652084201,2.0769700168,3.1130622026,0.024587325837470118,-0.05070181477043527,-0.0022907446432425577,-61.04940076001169,-54.940076001169246,-3.931598947676118
1699735586,9.0652084201,2.0769700168,3.1130622026,0.024587325837470118,-0.05070181477043527,-0.017867808217291947,-60.874013446360706,-54.896229172756506,-3.49313066354867
1699735586,9.0783689444,1.9908284031999999,3.2135607518000002,0.030848694528999777,-0.05253441048502932,-0.017867808217291947,-60.99093832212803,-54.69161064016369,-4.2823735749780765
1699735586,9.0783689444,1.9908284031999999,3.2135607518000002,0.026114488932965158,-0.046883907031697675,-0.025198191075668133,-61.020169541069855,-54.852382344343766,-4.662379421221865
1699735586,9.1561356789,1.6307086019,3.3906296242,0.026114488932965158,-0.046883907031697675,-0.025198191075668133,-61.13709441683718,-54.69161064016369,-4.954691610640164
1699735586,9.1561356789,1.6307086019,3.3906296242,0.01557706357404939,-0.04046982203061852,-0.011759155835311794,-61.005553931598946,-54.57468576439638,-4.296989184448992
1699735586,9.1441715659,1.7192430381,3.3954152694,0.01557706357404939,-0.04046982203061852,-0.011759155835311794,-61.13709441683718,-54.80853551593101,-5.217772581116632
1699735586,9.0915294687,1.9477575963999998,3.1752755902,0.018173240836390957,-0.03298672286269283,-0.001069014166846527,-61.40017538731365,-54.54545454545454,-5.013154048523823
1699735586,9.0915294687,1.9477575963999998,3.1752755902,0.018173240836390957,-0.03298672286269283,-0.001069014166846527,-61.151710026308095,-54.37006723180357,-4.267757965507162
1699735586,9.1704926145,1.8496518698,2.9934210726,0.006261368691529657,-0.037415495839628436,-0.011911872144861299,-61.21017246419176,-54.57468576439638,-4.67699503069278
1699735586,9.1704926145,1.8496518698,2.9934210726,0.006261368691529657,-0.037415495839628436,-0.011911872144861299,-60.654779304296994,-54.486992107570885,-4.881613563285589
1699735586,9.1441715659,1.7670994901,3.1393832512,0.007635815477475192,-0.05085453107998478,-0.013744467859455345,-61.122478807366264,-54.70622624963462,-4.165448699210757
1699735586,9.1441715659,1.7670994901,3.1393832512,0.007635815477475192,-0.05085453107998478,-0.013744467859455345,-60.9617071031862,-54.5016077170418,-4.063139432914353
1699735586,9.0771725331,1.8448662246,3.3726834547,0.020158552860534508,-0.05207626155638081,-0.007483099167925688,-61.020169541069855,-54.7939199064601,-4.61853259280912
1699735586,9.0771725331,1.8448662246,3.3726834547,0.020158552860534508,-0.05207626155638081,-0.007483099167925688,-60.17246419175679,-54.82315112540193,-4.311604793919907
1699735586,9.0855474122,1.9680965885,3.290131075,0.031001410838549282,-0.038331793696925465,-0.006566801310628665,-60.12861736334405,-54.998538439052915,-4.267757965507162
1699735586,9.0855474122,1.9680965885,3.290131075,0.031001410838549282,-0.038331793696925465,-0.006566801310628665,-60.61093247588425,-54.282373574978074,-4.720841859105525
1699735586,9.1740818484,1.7563317884,3.1669007111,0.0277943683380097,-0.035735616434583894,-0.018936822384138473,-60.81555100847705,-55.07161648640748,-4.589301373867291
1699735586,9.1740818484,1.7563317884,3.1669007111,0.0277943683380097,-0.035735616434583894,-0.018936822384138473,-61.09324758842444,-54.64776381175095,-4.136217480268927
1699735586,9.1573320902,1.7419748528,3.1369904286000003,0.013286318930806833,-0.04108068726881653,-0.012828170002158322,-60.61093247588425,-54.662379421221864,-4.399298450745396
1699735586,9.1573320902,1.7419748528,3.1369904286000003,0.013286318930806833,-0.04108068726881653,-0.012828170002158322,-60.62554808535516,-54.2092955276235,-4.340836012861737
1699735586,9.1130648721,1.9633109433,3.158525832,0.015729779883598895,-0.04627304179349966,-0.006414085001079161,-60.61093247588425,-54.64776381175095,-4.092370651856182
1699735586,9.1130648721,1.9633109433,3.158525832,0.015729779883598895,-0.04627304179349966,-0.006414085001079161,-60.654779304296994,-54.82315112540193,-4.574685764396375
1699735586,9.1513500337,1.9178473139,3.1549365981,0.023671027980173093,-0.040622538340168025,-0.010079276430267254,-60.83016661794797,-54.80853551593101,-4.647763811750949
1699735586,9.1513500337,1.9178473139,3.1549365981,0.023671027980173093,-0.040622538340168025,-0.010079276430267254,-60.84478222741888,-54.58930137386729,-3.873136509792458
1699735586,9.108279226899999,1.7934205387,3.2051858726999995,0.04138611988791554,-0.037262779530078935,-0.010842857978014772,-61.005553931598946,-54.73545746857644,-4.370067231803566
1699735586,9.108279226899999,1.7934205387,3.2051858726999995,0.04138611988791554,-0.037262779530078935,-0.010842857978014772,-60.78631978953523,-54.35545162233265,-4.56007015492546
1699735586,9.0891366461,1.6977076347,3.2434710343,0.036193765363232405,-0.04153883619746504,-0.007788531787024695,-61.04940076001169,-55.261619409529374,-4.355451622332652
1699735586,9.0891366461,1.6977076347,3.2434710343,0.036193765363232405,-0.04153883619746504,-0.004581489286485115,-60.53785442852967,-54.54545454545454,-5.042385267465653
1699735586,9.1190469286,1.8556339263000001,3.2817561959000003,0.013286318930806833,-0.05192354524683131,-0.004581489286485115,-61.21017246419176,-55.115463314820225,-4.779304296989184
1699735586,9.1154576947,2.1044874766999997,3.2721849055,0.012064588454410803,-0.0516181126277323,-0.0039706240482871,-60.91786027477346,-54.530838935983624,-4.340836012861737
1699735586,9.1154576947,2.1044874766999997,3.2721849055,0.012064588454410803,-0.0516181126277323,-0.0039706240482871,-60.83016661794797,-54.75007307804736,-3.3469745688395203
1699735586,9.1070828156,1.9262221929999999,3.1633114771999997,0.03145955976719779,-0.04260785036431157,-0.018631389765039467,-61.005553931598946,-55.13007892429115,-3.916983338205203
1699735586,9.1070828156,1.9262221929999999,3.1633114771999997,0.03145955976719779,-0.04260785036431157,-0.018631389765039467,-61.09324758842444,-54.75007307804736,-3.58082432037416
1699735586,9.081958178299999,1.567298803,3.3128628897,0.038637226316024474,-0.04214970143566306,-0.02336559536107409,-61.2540192926045,-54.64776381175095,-4.209295527623502
