timestamp,acc-x,acc-y,acc-z,gyr-x,gyr-y,gyr-z,mag-x,mag-y,mag-z
1699735103,8.8869431364,2.4813570362,2.703889538,0.029779680362153248,-0.05528330405692039,0.006108652381980153,-61.38555977784274,-56.650102309266295,-0.7746273019584917
1699735103,8.9623170483,2.6715864329,2.9539394997,0.03115412714809878,-0.06734789251133119,0.001069014166846527,-60.874013446360706,-56.86933645133002,-1.5638702133878981
1699735103,8.9623170483,2.6715864329,2.9539394997,0.03115412714809878,-0.06734789251133119,0.001069014166846527,-60.874013446360706,-57.556270096463024,-1.2861736334405145
1699735103,9.0161555568,2.6943182475999996,3.086741154,-0.004123340357836604,-0.08964447370555875,-0.024740042147019622,-61.429406606255476,-57.556270096463024,-2.104647763811751
1699735103,9.0161555568,2.6943182475999996,3.086741154,-0.004123340357836604,-0.08964447370555875,-0.024740042147019622,-61.32709733995908,-57.08857059339374,-2.0315697164571764
1699735103,9.1597249128,2.572284295,3.1118657913,-0.08491026810952414,-0.11010845918519226,-0.048258353817643214,-61.26863490207541,-56.927798889213676,-2.2361882490499854
1699735103,9.1597249128,2.572284295,3.1118657913,-0.08491026810952414,-0.11010845918519226,-0.048258353817643214,-60.976322712657115,-57.64396375328851,-2.33849751534639
1699735103,9.1860459614,2.6225335696,2.9730820805000002,-0.1272126858547367,-0.11560624632897441,-0.05192354524683131,-61.458637825197314,-57.410114001753875,-2.0754165448699213
1699735103,9.1860459614,2.6225335696,2.9730820805000002,-0.1272126858547367,-0.11560624632897441,-0.05192354524683131,-61.10786319789535,-57.05933937445191,-2.8061970184156677
1699735103,9.1011007591,2.6177479243999997,2.6273192148,-0.11804970728176646,-0.10613783513690517,-0.04245513405476207,-60.83016661794797,-57.11780181233558,-2.6746565331774335
1699735103,9.1011007591,2.6177479243999997,2.6273192148,-0.11804970728176646,-0.10613783513690517,-0.04245513405476207,-61.356328558900906,-57.351651563870206,-1.4615609470914936
1699735103,9.0628155975,2.4454646972,2.356930261,-0.08674286382411818,-0.10018189906447451,-0.03436116964863836,-61.502484653610054,-57.24934229757381,-1.5492546039169834
1699735103,9.0628155975,2.4454646972,2.356930261,-0.08674286382411818,-0.09987646644537551,-0.02138028333693054,-60.94709149371529,-56.957030108155514,-2.104647763811751
1699735103,9.038887371500001,2.4358934068,2.3353948576,-0.060781091200702526,-0.09987646644537551,-0.02138028333693054,-61.38555977784274,-57.39549839228296,-1.7392575270388775
1699735103,9.038887371500001,2.4358934068,2.3353948576,-0.047494772269895694,-0.10018189906447451,-0.010231992739816757,-61.21017246419176,-57.731657410114,-2.2069570301081556
1699735103,9.0269232585,2.5950161097,2.4311077616,-0.047494772269895694,-0.10018189906447451,-0.010231992739816757,-61.18094124524993,-56.67933352820813,-2.484653610055539
1699735103,9.0269232585,2.7230321187999995,2.5567309481,-0.018173240836390957,-0.09254608358699933,-0.010537425358915765,-61.22478807366267,-57.556270096463024,-2.572347266881029
1699735103,9.037690960199999,2.7230321187999995,2.5567309481,-0.018173240836390957,-0.09254608358699933,-0.010537425358915765,-61.429406606255476,-57.483192049108446,-2.484653610055539
1699735103,9.2183490665,2.6895326024,2.7278177639999996,0.0358883327441334,-0.07009678608322227,-0.009621127501618741,-61.04940076001169,-57.70242619117217,-1.6807950891552177
1699735103,9.2183490665,2.6895326024,2.7278177639999996,0.0358883327441334,-0.07009678608322227,-0.009621127501618741,-60.888629055831636,-57.42472961122479,-2.046185325928091
1699735103,9.3296153174,2.7493531674,2.8151557889,0.05604688560466791,-0.06582072941583615,-0.007788531787024695,-60.77170418006431,-57.044723764981,-1.5931014323297281
1699735103,9.3296153174,2.7493531674,2.8151557889,0.05604688560466791,-0.06582072941583615,-0.007788531787024695,-60.903244665302545,-57.61473253434668,-1.4907921660333234
1699735103,9.1369930981,2.8558337731,2.7912275628999996,0.04459316238845512,-0.07360926120286085,-0.004886921905584123,-61.21017246419176,-57.10318620286466,-1.5200233849751534
1699735103,9.1369930981,2.8558337731,2.7912275628999996,0.04459316238845512,-0.07360926120286085,-0.004886921905584123,-60.874013446360706,-57.30780473545747,-1.7538731365097926
1699735103,9.056833541,2.7720849821,2.5914268758000003,0.031001410838549282,-0.07101308394051928,-0.000916297857297023,-60.976322712657115,-57.29318912598656,-1.5054077755042385
1699735103,9.056833541,2.7720849821,2.5914268758000003,0.031001410838549282,-0.07101308394051928,-0.000916297857297023,-60.903244665302545,-57.71704180064309,-1.5346389944460683
1699735103,9.1932244292,2.5686950610999997,2.3712871966,0.029321531433504737,-0.05314527572322733,0.006261368691529657,-60.58170125694241,-57.32242034492838,-2.148494592224496
1699735103,9.1932244292,2.5686950610999997,2.3712871966,0.029321531433504737,-0.05314527572322733,0.006261368691529657,-61.28325051154633,-57.3370359543993,-1.5931014323297281
1699735103,9.1106720495,2.596212521,2.4023938904,0.038179077387375956,-0.03268129024359382,0.018631389765039467,-61.66325635779012,-57.27857351651564,-2.0169541069862613
1699735103,9.1106720495,2.596212521,2.4023938904,0.038179077387375956,-0.03268129024359382,0.029474247743054238,-61.44402221572639,-57.11780181233558,-1.417714118678749
1699735103,9.1549392676,2.6775684894,2.5519453029,0.061086523819801536,-0.019242255003237483,0.029474247743054238,-62.04326220403391,-57.27857351651564,-1.900029231218942
1699735103,9.1549392676,2.6775684894,2.5519453029,0.07788531787024697,-0.02107485071783153,0.0316122760767473,-61.69248757673195,-57.5270388775212,-1.666179479684303
1699735103,9.2111705987,2.7218357075,2.5938196984,0.07788531787024697,-0.02107485071783153,0.0316122760767473,-61.19555685472085,-57.556270096463024,-2.046185325928091
1699735103,9.2111705987,2.7218357075,2.440679052,0.05619960191421741,-0.040317105721069016,0.0320704250053958,-61.44402221572639,-57.073954983922825,-2.2946506869336454
1699735103,9.0604227749,2.7385854657,2.440679052,0.05619960191421741,-0.040317105721069016,0.0320704250053958,-61.7363344051447,-57.01549254603917,-1.7392575270388775
1699735103,9.0149591455,2.7242285301,2.297109696,0.0160352125026979,-0.061697389057999555,0.03436116964863836,-61.41479099678456,-56.76702718503361,-1.0523238819058756
1699735103,9.0149591455,2.7242285301,2.297109696,0.024740042147019622,-0.05803219762881146,0.0320704250053958,-61.531715872551885,-56.76702718503361,-1.5054077755042385
1699735103,9.1609213241,2.7720849821,2.3784656644,0.024740042147019622,-0.05803219762881146,0.0320704250053958,-61.51710026308097,-57.01549254603917,-1.6807950891552177
1699735103,9.1322074529,2.5938196984,2.5663022385,0.06704245989223219,-0.04153883619746504,0.024892758456569127,-61.47325343466823,-57.49780765857936,-1.826951183864367
1699735103,9.1322074529,2.5938196984,2.5663022385,0.06704245989223219,-0.04153883619746504,0.0320704250053958,-61.312481730488166,-56.89856767027185,-1.636948260742473
1699735103,9.0293160811,2.3868405435,2.6548366747000003,0.0755945732270044,-0.03329215548179183,0.0320704250053958,-61.22478807366267,-56.72318035662087,-0.7600116924875767
1699735103,8.9647098709,2.5268206656,2.6644079651,0.07070765132142026,-0.026878070480712675,0.045662176555301644,-61.82402806197018,-57.17626425021923,-1.0961707103186205
1699735103,8.9647098709,2.5268206656,2.6644079651,0.07070765132142026,-0.026878070480712675,0.045662176555301644,-61.89710610932476,-57.16164864074832,-1.5200233849751534
1699735103,9.0771725331,2.6273192148,2.6297120374,0.059559360724306495,-0.02336559536107409,0.04016438941151951,-61.80941245249927,-57.030108155510085,-1.8123355743934522
1699735103,9.0771725331,2.6273192148,2.6297120374,0.059559360724306495,-0.02336559536107409,0.04016438941151951,-61.85325928091201,-57.26395790704473,-1.4323297281496639
1699735103,9.1812603162,2.5459632464,2.7182464736,0.03390302071998985,-0.029626964052603743,0.024740042147019622,-61.61940952937738,-56.577024261911724,-1.9146448406898566
1699735103,9.1812603162,2.5459632464,2.7182464736,0.03390302071998985,-0.029626964052603743,0.024740042147019622,-61.79479684302835,-56.59163987138264,-1.198479976615025
1699735103,9.1932244292,2.5698914723999997,2.8510481279,0.025961772623415653,-0.029168815123955232,0.022143864884678056,-62.087109032446655,-56.81087401344635,-1.9146448406898566
1699735103,9.1932244292,2.5698914723999997,2.8510481279,0.025961772623415653,-0.029168815123955232,0.02199114857512855,-61.34171294943,-56.82548962291728,-1.4615609470914936
1699735103,9.2410808812,2.6907290137,2.8091737324,0.04550946024575214,-0.017715091907742442,0.02199114857512855,-61.8386436714411,-57.17626425021923,-1.4469453376205788
1699735103,9.2410808812,2.6907290137,2.8091737324,0.029626964052603743,-0.029321531433504737,0.01038470904936626,-60.757088570593396,-57.16164864074832,-1.4323297281496639
1699735103,9.3212404383,2.5351955446999996,2.5902304645,0.029626964052603743,-0.029321531433504737,0.01038470904936626,-61.356328558900906,-56.957030108155514,-1.373867290266004
1699735103,9.3212404383,2.5351955446999996,2.5902304645,-0.00519235452468313,-0.05253441048502932,0.013591751549905842,-61.51710026308097,-57.410114001753875,-1.0084770534931307
1699735103,9.2398844699,2.3521446158,2.5531417142,-0.00519235452468313,-0.05253441048502932,0.013591751549905842,-61.99941537562116,-56.97164571762643,-2.119263373282666
1699735103,9.0173519681,2.4562323989,2.7601208691,-0.003665191429188092,-0.05589416929511841,0.03405573702953935,-61.72171879567377,-56.76702718503361,-1.666179479684303
1699735103,9.0173519681,2.4562323989,2.7601208691,-0.003665191429188092,-0.05589416929511841,0.03405573702953935,-62.028646594563,-56.957030108155514,-2.33849751534639
1699735103,8.931210354500001,2.6428725617,2.8031916759,0.012980886311707827,-0.04321871560250958,0.04184426881656405,-61.51710026308097,-57.27857351651564,-2.046185325928091
1699735103,8.931210354500001,2.6428725617,2.8031916759,0.012980886311707827,-0.04321871560250958,0.04184426881656405,-61.10786319789535,-56.89856767027185,-2.8500438468284126
1699735103,9.0245304359,2.6177479243999997,2.6823541346,-0.005497787143782138,-0.038331793696925465,0.02336559536107409,-61.70710318620286,-56.927798889213676,-2.353113124817305
1699735103,9.0245304359,2.6177479243999997,2.6823541346,-0.005497787143782138,-0.038331793696925465,0.02336559536107409,-61.69248757673195,-57.073954983922825,-1.3300204618532592
1699735103,9.0113699116,2.5890340532,2.5794627628,-0.03023782929080176,-0.04413501345980661,0.002901609881440573,-61.70710318620286,-57.30780473545747,-1.826951183864367
1699735103,9.0113699116,2.5890340532,2.5794627628,-0.03023782929080176,-0.04413501345980661,0.002901609881440573,-61.89710610932476,-57.24934229757381,-1.5200233849751534
1699735103,9.1202433399,2.6309084487,2.548356069,-0.0160352125026979,-0.038789942625573975,-0.004276056667386108,-61.97018415667933,-57.585501315404855,-1.5200233849751534
1699735104,9.1202433399,2.6309084487,2.548356069,-0.0160352125026979,-0.038789942625573975,-0.004276056667386108,-61.8386436714411,-57.483192049108446,-1.856182402806197
1699735104,9.1118684608,2.4753749797,2.5016960283,0.003665191429188092,-0.036193765363232405,-0.008552113334772215,-61.634025138848294,-58.038585209003216,-1.9731072785735166
1699735104,9.1118684608,2.4753749797,2.5016960283,0.003665191429188092,-0.036193765363232405,-0.008552113334772215,-62.2332651271558,-57.030108155510085,-2.1631102016954107
1699735104,9.0879402348,2.2959132847,2.5268206656,-0.009010262263420726,-0.049938233222687756,-0.0033597588100890844,-61.99941537562116,-56.94241449868459,-1.6954106986261326
1699735104,9.0879402348,2.2959132847,2.5268206656,-0.009010262263420726,-0.049938233222687756,-0.0033597588100890844,-61.97018415667933,-56.957030108155514,-2.6308097047646886
1699735104,9.1070828156,2.4263221164,2.6943182475999996,-0.006872233929727673,-0.06093380751025203,0.009315694882519734,-62.04326220403391,-56.97164571762643,-2.177725811166326
1699735104,9.1070828156,2.4263221164,2.6943182475999996,0.010995574287564275,-0.05543602036646989,0.007330382858376184,-61.80941245249927,-57.05933937445191,-2.791581408944753
1699735104,9.1561356789,2.6105694566,2.7314069979,0.010995574287564275,-0.05543602036646989,0.007330382858376184,-61.82402806197018,-57.11780181233558,-2.046185325928091
1699735104,9.1561356789,2.6105694566,2.7314069979,-0.0012217304763960308,-0.05100724738953428,-0.002748893571891069,-62.07249342297574,-56.88395206080094,-2.0169541069862613
1699735104,9.1274218077,2.5507488916,2.5998017549,-0.0012217304763960308,-0.05100724738953428,-0.002748893571891069,-61.76556562408653,-57.30780473545747,-1.7100263080970477
1699735104,9.175278259699999,2.4023938904,2.4514467537,-0.005497787143782138,-0.038942658935123484,-0.004276056667386108,-62.014030985092084,-57.01549254603917,-2.0169541069862613
1699735104,9.175278259699999,2.4023938904,2.4514467537,-0.005497787143782138,-0.038942658935123484,-0.004276056667386108,-61.66325635779012,-56.927798889213676,-1.9438760596316866
1699735104,9.175278259699999,2.2444675988,2.3868405435,0.014049900478554353,-0.03313943917224233,-0.0003054326190990077,-62.16018707980123,-56.82548962291728,-1.4469453376205788
1699735104,9.175278259699999,2.2444675988,2.3868405435,0.014049900478554353,-0.03313943917224233,-0.0003054326190990077,-61.94095293773751,-57.08857059339374,-1.4323297281496639
1699735104,9.1597249128,2.2719850587,2.4801606249,0.06001750965295501,-0.03130684345764829,0.010537425358915765,-61.94095293773751,-57.01549254603917,-1.6954106986261326
1699735104,9.1597249128,2.2719850587,2.4801606249,0.06001750965295501,-0.03130684345764829,0.010537425358915765,-62.16018707980123,-57.234726688102896,-1.5492546039169834
1699735104,8.9802632178,2.3964118339,2.6309084487,0.09330966513474685,-0.036499197982331415,0.01313360262125733,-61.88249049985385,-56.81087401344635,-1.198479976615025
1699735104,8.9802632178,2.3964118339,2.6309084487,0.09330966513474685,-0.036499197982331415,0.01313360262125733,-61.32709733995908,-57.24934229757381,-1.9584916691026015
1699735104,8.931210354500001,2.3581266723,2.7696921595,0.0916297857297023,-0.04169155250701455,-0.00015271630954950385,-61.61940952937738,-57.5270388775212,-1.9584916691026015
1699735104,8.931210354500001,2.3581266723,2.7696921595,0.0916297857297023,-0.04169155250701455,-0.00015271630954950385,-61.76556562408653,-57.27857351651564,-1.3446360713241743
1699735104,9.2039921309,2.2348963083999998,2.8881368781999996,0.059712077033856004,-0.048411070127192715,-0.02183843226557905,-62.10172464191756,-56.70856474714996,-1.7246419175679626
1699735104,9.2039921309,2.2348963083999998,2.8881368781999996,0.059712077033856004,-0.048411070127192715,-0.02183843226557905,-62.17480268927215,-56.94241449868459,-1.3154048523823443
1699735104,9.5425765288,2.2564317118,2.9802605483,0.04092797095926703,-0.05268712679457882,-0.03527746750593539,-61.88249049985385,-56.70856474714996,-1.8415667933352822
1699735104,9.5425765288,2.2564317118,2.9802605483,0.04092797095926703,-0.05268712679457882,-0.03527746750593539,-61.6486407483192,-56.854720841859105,-2.148494592224496
1699735104,9.4911308429,2.3916261887,2.8163522002,0.050549098460885775,-0.03451388595818787,-0.02229658119422756,-62.11634025138848,-57.132417421806494,-1.7100263080970477
1699735104,9.4911308429,2.3916261887,2.8163522002,0.050549098460885775,-0.03451388595818787,-0.02229658119422756,-62.3209587839813,-56.69394913767904,-2.4261911721718796
1699735104,9.345168664300001,2.3928226,2.464607278,0.04016438941151951,-0.016951510359994926,-0.005345070834232635,-61.911721718795675,-56.73779596609179,-1.870798012277112
1699735104,9.345168664300001,2.3928226,2.464607278,0.04016438941151951,-0.016951510359994926,-0.005345070834232635,-62.26249634609763,-57.132417421806494,-1.3884828997369192
1699735104,9.188438784,2.2564317118,2.321037922,0.059406644414756994,0.0006108652381980154,0.020158552860534508,-62.07249342297574,-57.29318912598656,-2.6015784858228588
1699735104,9.188438784,2.2564317118,2.321037922,0.059406644414756994,0.0006108652381980154,0.04276056667386108,-61.88249049985385,-56.8401052323882,-2.060800935399006
1699735104,8.997012975999999,2.3952154226,2.4227328825,0.08903360846736075,0.009621127501618741,0.04276056667386108,-62.028646594563,-57.3370359543993,-1.9438760596316866
1699735104,8.9036928946,2.7218357075,2.5842484079999997,0.10919216132789523,-0.009315694882519734,0.03115412714809878,-62.11634025138848,-56.72318035662087,-1.7246419175679626
1699735104,8.9036928946,2.7218357075,2.5842484079999997,0.10919216132789523,-0.009315694882519734,0.03115412714809878,-62.014030985092084,-56.73779596609179,-1.8123355743934522
1699735104,9.010173500299999,2.7672993369,2.7266213527,0.11728612573401895,-0.02580905631386615,0.001069014166846527,-61.59017831043555,-56.86933645133002,-1.651563870213388
1699735104,9.010173500299999,2.7672993369,2.7266213527,0.11728612573401895,-0.02580905631386615,0.001069014166846527,-61.88249049985385,-56.78164279450453,-1.417714118678749
1699735104,9.0113699116,2.7086751831999996,2.8151557889,0.10201449477906856,-0.03237585762449481,-0.011301006906663283,-62.07249342297574,-56.94241449868459,-2.133878982753581
1699735104,9.0113699116,2.7086751831999996,2.8151557889,0.10201449477906856,-0.03237585762449481,-0.011301006906663283,-61.51710026308097,-57.16164864074832,-2.28003507746273
1699735104,9.1274218077,2.7385854657,2.7290141752999997,0.079412480965742,-0.03405573702953935,-0.0079412480965742,-61.69248757673195,-57.10318620286466,-1.15463314820228
1699735104,9.1274218077,2.7385854657,2.7290141752999997,0.079412480965742,-0.03405573702953935,-0.0079412480965742,-61.984799766150246,-57.3370359543993,-1.4907921660333234
1699735104,9.2135634213,2.7326034091999998,2.7026931267000003,0.08124507668033605,-0.03436116964863836,-0.002901609881440573,-61.60479391990646,-57.26395790704473,-1.5054077755042385
1699735104,9.2135634213,2.7326034091999998,2.7026931267000003,0.08124507668033605,-0.03436116964863836,-0.002901609881440573,-61.79479684302835,-56.854720841859105,-1.6223326512715581
1699735104,8.9766739839,2.656033086,2.7218357075,0.12996157942662775,-0.029626964052603743,0.010995574287564275,-61.60479391990646,-56.82548962291728,-1.4469453376205788
1699735104,8.9766739839,2.656033086,2.7218357075,0.12996157942662775,-0.029626964052603743,0.010995574287564275,-61.69248757673195,-56.81087401344635,-0.950014615609471
1699735104,8.931210354500001,2.6476582069,2.7122644171,0.16401731645616713,-0.012064588454410803,0.027947084647559205,-61.79479684302835,-56.81087401344635,-1.5200233849751534
1699735104,8.931210354500001,2.6476582069,2.7122644171,0.16401731645616713,-0.012064588454410803,0.027947084647559205,-61.51710026308097,-56.91318327974276,-1.5492546039169834
1699735104,9.0520478958,2.6464617955999996,2.7206392962,0.12843441633113273,-0.014508049407202865,0.020158552860534508,-61.75095001461561,-56.63548669979538,-2.148494592224496
1699735104,9.0520478958,2.6464617955999996,2.7206392962,0.12843441633113273,-0.014508049407202865,0.020158552860534508,-61.72171879567377,-57.08857059339374,-1.2715580239695994
1699735104,9.1800639049,2.5531417142,2.787638329,0.09819658704033096,-0.03298672286269283,0.004123340357836604,-62.087109032446655,-57.08857059339374,-2.104647763811751
1699735104,9.1800639049,2.5531417142,2.787638329,0.09819658704033096,-0.03298672286269283,0.004123340357836604,-61.75095001461561,-56.67933352820813,-1.5784858228588132
1699735104,9.3667040677,2.5698914723999997,2.8486553053,0.14187345157148906,-0.028557949885757217,0.010537425358915765,-62.087109032446655,-57.01549254603917,-2.5431160479391988
1699735104,9.3667040677,2.5698914723999997,2.8486553053,0.14187345157148906,-0.028557949885757217,0.010537425358915765,-61.86787489038292,-56.6647179187372,-1.870798012277112
1699735104,9.2638126959,2.6285156261,2.7529424013,0.18020524526841453,-0.018478673455489966,0.020311269170084013,-62.3209587839813,-56.48933060508623,-1.9731072785735166
1699735104,9.2638126959,2.6285156261,2.7529424013,0.14889840181076625,-0.02901609881440573,0.02504547476611863,-61.99941537562116,-56.56240865244081,-0.8038585209003215
1699735104,9.064012008799999,2.4729821571,2.6105694566,0.14889840181076625,-0.02901609881440573,0.02504547476611863,-61.40017538731365,-56.60625548085355,-0.6723180356620871
1699735104,9.064012008799999,2.4729821571,2.6105694566,0.10629055144645466,-0.0439822971502571,0.030543261909900768,-61.5463314820228,-56.854720841859105,-1.7392575270388775
1699735104,9.0735832992,2.3712871966,2.7134608283999997,0.10629055144645466,-0.0439822971502571,0.030543261909900768,-62.62788658287051,-56.54779304296989,-1.607717041800643
1699735104,9.0735832992,2.5866412306,2.8570301844,0.10231992739816757,-0.0438295808407076,0.03390302071998985,-62.028646594563,-56.48933060508623,-2.090032154340836
1699735104,9.0616191862,2.5866412306,2.8570301844,0.10231992739816757,-0.0438295808407076,0.03390302071998985,-62.2332651271558,-56.76702718503361,-1.198479976615025
1699735104,9.0472622506,2.6476582069,2.8749763539,0.08994990632465776,-0.04092797095926703,0.0198531202414355,-62.2332651271558,-56.76702718503361,-1.2130955860859398
1699735104,9.0472622506,2.6476582069,2.8749763539,0.08994990632465776,-0.04092797095926703,0.0198531202414355,-61.89710610932476,-56.63548669979538,-1.198479976615025
1699735104,9.1058864043,2.560320182,2.8211378454,0.0833831050140291,-0.037568212149177944,0.004581489286485115,-61.66325635779012,-56.78164279450453,-1.3446360713241743
1699735104,9.1058864043,2.560320182,2.8211378454,0.0833831050140291,-0.037568212149177944,0.004581489286485115,-61.61940952937738,-56.63548669979538,0.029231218941829874
1699735104,9.0699940653,2.4502503424,2.6548366747000003,0.05436700619962337,-0.049632800603588746,-0.004734205596034618,-62.18941829874306,-56.54779304296989,-0.3069277988892137
1699735104,9.0699940653,2.4502503424,2.6548366747000003,0.05436700619962337,-0.049632800603588746,-0.004734205596034618,-62.11634025138848,-56.255480853551596,-0.33615901783104357
1699735104,8.8570328539,2.4215364712,2.6273192148,-0.00519235452468313,-0.08231409084718257,-0.01756237559819294,-61.8386436714411,-56.533177433498984,-1.140017538731365
1699735104,8.8570328539,2.4215364712,2.6273192148,-0.00519235452468313,-0.08231409084718257,-0.01756237559819294,-62.057877813504824,-56.69394913767904,-1.2861736334405145
1699735104,8.8630149104,2.5710878837,2.9168507494,-0.028863382504856226,-0.10613783513690517,-0.027641652028460195,-62.291727565039466,-56.927798889213676,-1.417714118678749
1699735104,8.8630149104,2.5710878837,2.9168507494,-0.028863382504856226,-0.10613783513690517,-0.027641652028460195,-62.130955860859395,-56.854720841859105,-0.6138555977784274
1699735104,9.0364945489,2.6715864329,3.0329026454999997,-0.02672535417116317,-0.10674870037510319,-0.04596760917440065,-61.75095001461561,-56.56240865244081,-0.6138555977784274
1699735104,9.0364945489,2.6715864329,3.0329026454999997,-0.02672535417116317,-0.10674870037510319,-0.04596760917440065,-61.7363344051447,-56.48933060508623,-1.4030985092078339
1699735104,9.3487578982,2.5268206656,2.7744778047,-0.0795651972752915,-0.10415252311276162,-0.06948592084502425,-61.677871967261034,-56.63548669979538,-1.4469453376205788
1699735104,9.3487578982,2.5268206656,2.7744778047,-0.1273654021642862,-0.10216721108861807,-0.07712173632249944,-61.86787489038292,-56.78164279450453,-0.7892429114294066
1699735104,9.4504528587,2.6344976826,2.464607278,-0.1273654021642862,-0.10216721108861807,-0.07712173632249944,-62.18941829874306,-56.6647179187372,-0.8038585209003215
1699735104,9.4504528587,2.6344976826,2.464607278,-0.11866057251996448,-0.10018189906447451,-0.0678060414399797,-62.07249342297574,-56.91318327974276,-1.2715580239695994
1699735104,9.1573320902,2.6452653843,2.3030917525,-0.11866057251996448,-0.10018189906447451,-0.0678060414399797,-61.79479684302835,-56.927798889213676,-0.9061677871967261
1699735104,9.1573320902,2.4382862294,2.3318056236999998,-0.10842857978014774,-0.10002918275492502,-0.05711589977151443,-62.11634025138848,-56.88395206080094,-1.2715580239695994
1699735104,9.1118684608,2.4382862294,2.3318056236999998,-0.10842857978014774,-0.10002918275492502,-0.05711589977151443,-61.82402806197018,-56.650102309266295,-1.0669394913767904
1699735104,9.200402897,2.5794627628,2.3820548983,-0.09040805525330627,-0.10186177846951905,-0.049480084294039245,-61.59017831043555,-57.030108155510085,-0.5261619409529378
1699735104,9.200402897,2.5794627628,2.3820548983,-0.09040805525330627,-0.10186177846951905,-0.049480084294039245,-62.16018707980123,-57.22011107863197,-1.373867290266004
1699735104,9.219545477799999,2.7302105866,2.3186450994000003,-0.06490443155853913,-0.08643743120501916,-0.05009094953223726,-62.10172464191756,-57.453960830166615,-1.3446360713241743
1699735104,9.219545477799999,2.7302105866,2.3186450994000003,-0.06490443155853913,-0.08643743120501916,-0.05009094953223726,-62.2332651271558,-57.410114001753875,-0.686933645133002
1699735104,9.152546445,2.5220350203999997,2.1966111468,-0.04627304179349966,-0.061850105367549056,-0.038789942625573975,-61.94095293773751,-56.986261327097345,-1.5346389944460683
1699735104,9.152546445,2.5220350203999997,2.1966111468,-0.04627304179349966,-0.061850105367549056,-0.038789942625573975,-61.92633732826659,-56.69394913767904,-1.15463314820228
1699735104,8.864211321700001,2.4490539311,2.177468566,0.005039638215133627,-0.04092797095926703,-0.0003054326190990077,-61.86787489038292,-57.22011107863197,-1.0961707103186205
1699735104,8.864211321700001,2.4490539311,2.177468566,0.005039638215133627,-0.04092797095926703,-0.0003054326190990077,-61.97018415667933,-57.19087985969015,-1.7684887459807075
1699735104,8.841479506999999,2.4969103831,2.4418754632999997,0.05299255941367783,-0.05314527572322733,0.008552113334772215,-61.677871967261034,-57.43934522069571,-0.8477053493130663
1699735104,8.841479506999999,2.4969103831,2.4418754632999997,0.05299255941367783,-0.05314527572322733,0.008552113334772215,-61.66325635779012,-56.927798889213676,-1.7831043554516222
1699735104,9.2937229784,2.7804598612,2.9419753867,0.05085453107998478,-0.08704829644321718,-0.022143864884678056,-61.76556562408653,-57.08857059339374,-0.6430868167202572
1699735104,9.2937229784,2.7804598612,2.9419753867,0.05085453107998478,-0.08704829644321718,-0.022143864884678056,-61.7363344051447,-57.22011107863197,-1.0669394913767904
1699735104,9.4229353988,2.8139593776000003,3.0771698636,-0.01313360262125733,-0.11087204073293978,-0.06597344572538566,-61.89710610932476,-57.30780473545747,-0.6577024261911721
1699735104,9.4229353988,2.8139593776000003,3.0771698636,-0.01313360262125733,-0.11087204073293978,-0.06597344572538566,-61.97018415667933,-57.05933937445191,-0.7161648640748319
1699735104,9.2925265671,2.6213371583000002,2.7912275628999996,-0.07712173632249944,-0.09315694882519734,-0.07147123286916779,-61.75095001461561,-57.30780473545747,-0.5115463314820228
1699735104,9.2925265671,2.6213371583000002,2.7912275628999996,-0.07712173632249944,-0.09315694882519734,-0.07147123286916779,-62.510961707103185,-56.620871090324464,-0.24846536100555394
1699735104,9.3032942688,2.5328027221,2.4215364712,-0.09208793465835081,-0.048258353817643214,-0.0316122760767473,-61.97018415667933,-57.30780473545747,-1.4907921660333234
1699735104,9.3032942688,2.5328027221,2.4215364712,-0.09208793465835081,-0.048258353817643214,-0.0316122760767473,-62.11634025138848,-57.044723764981,-1.0523238819058756
1699735104,9.1932244292,2.440679052,2.2408783649,-0.06475171524898962,-0.03390302071998985,0.0033597588100890844,-62.20403390821397,-56.70856474714996,-1.6223326512715581
1699735104,9.1932244292,2.440679052,2.3126630429,-0.04505131131710363,-0.05345070834232634,0.026114488932965158,-61.634025138848294,-57.20549546916106,-0.6577024261911721
1699735104,8.7409809578,2.3234307446,2.3126630429,-0.04505131131710363,-0.05345070834232634,0.026114488932965158,-61.634025138848294,-56.82548962291728,-0.8330897398421515
1699735105,8.901300072,2.6931218363,2.6273192148,-0.029626964052603743,-0.06841690667817772,0.02107485071783153,-61.75095001461561,-57.24934229757381,-1.2130955860859398
1699735105,8.901300072,2.6931218363,2.6273192148,-0.029626964052603743,-0.06841690667817772,0.02107485071783153,-61.66325635779012,-57.234726688102896,-1.169248757673195
1699735105,9.3894358824,2.9240292172,2.7337998205,-0.005039638215133627,-0.059559360724306495,-0.029321531433504737,-62.27711195556854,-57.073954983922825,-1.1838643671441098
1699735105,9.3894358824,2.9240292172,2.7337998205,-0.005039638215133627,-0.059559360724306495,-0.029321531433504737,-61.7363344051447,-57.32242034492838,-0.8623209587839813
1699735105,9.233902413400001,2.5100709074,2.4430718746,-0.047036623341247176,-0.049785516913138254,-0.06612616203493515,-61.51710026308097,-56.76702718503361,-0.7746273019584917
1699735105,9.233902413400001,2.5100709074,2.4430718746,-0.047036623341247176,-0.049785516913138254,-0.06612616203493515,-61.92633732826659,-57.10318620286466,-1.3884828997369192
1699735105,9.1716890258,2.3856441322,2.1667008643,-0.0557414529855689,-0.028557949885757217,-0.03558290012503439,-61.955568547208415,-56.927798889213676,-1.6807950891552177
1699735105,9.1716890258,2.3856441322,2.1667008643,-0.0557414529855689,-0.028557949885757217,-0.03558290012503439,-61.86787489038292,-57.36626717334112,-1.870798012277112
1699735105,9.4624169717,2.4071795356,2.1822542112,-0.00198531202414355,-0.01634064512179691,0.004734205596034618,-61.429406606255476,-56.86933645133002,-1.3884828997369192
1699735105,9.4624169717,2.4071795356,2.1822542112,-0.00198531202414355,-0.01634064512179691,0.004734205596034618,-61.8386436714411,-57.24934229757381,-1.2423268050277696
1699735105,9.2255275343,2.5316063108,2.4179472373,0.03466660226773737,-0.04596760917440065,0.023671027980173093,-61.99941537562116,-57.234726688102896,-1.4469453376205788
1699735105,9.2255275343,2.5316063108,2.4179472373,0.03466660226773737,-0.04596760917440065,0.023671027980173093,-61.429406606255476,-57.49780765857936,-1.3446360713241743
1699735105,8.930013943199999,2.6524438520999998,2.6703900216,0.04657847441259867,-0.059712077033856004,0.03436116964863836,-61.22478807366267,-57.38088278281205,-1.7538731365097926
1699735105,8.930013943199999,2.6524438520999998,2.6703900216,0.04657847441259867,-0.059712077033856004,0.03436116964863836,-61.88249049985385,-57.26395790704473,-1.870798012277112
1699735105,8.913264185,2.8127629663000002,2.7469603447999997,0.04932736798448974,-0.0436768645311581,0.023518311670623588,-61.955568547208415,-57.19087985969015,-0.5553931598947676
1699735105,8.913264185,2.8127629663000002,2.7469603447999997,0.04932736798448974,-0.0436768645311581,0.023518311670623588,-61.10786319789535,-57.05933937445191,-0.7600116924875767
1699735105,9.054440718399999,2.6751756668,2.5555345367999998,0.04092797095926703,-0.027641652028460195,-0.0039706240482871,-61.8386436714411,-56.78164279450453,-1.2130955860859398
1699735105,9.054440718399999,2.6751756668,2.5555345367999998,0.04092797095926703,-0.027641652028460195,-0.0039706240482871,-61.6486407483192,-57.49780765857936,-1.9731072785735166
1699735105,9.2219383004,2.4346969955,2.4813570362,0.04138611988791554,-0.023671027980173093,-0.01557706357404939,-61.94095293773751,-57.044723764981,-1.0669394913767904
1699735105,9.2219383004,2.4346969955,2.4813570362,0.04138611988791554,-0.023671027980173093,-0.01557706357404939,-61.60479391990646,-56.86933645133002,-1.0669394913767904
1699735105,9.1130648721,2.428714939,2.6105694566,0.057879481319261954,-0.02901609881440573,-0.0030543261909900766,-61.56094709149371,-57.39549839228296,-1.5784858228588132
1699735105,9.1130648721,2.428714939,2.6105694566,0.057879481319261954,-0.02901609881440573,-0.0030543261909900766,-61.61940952937738,-57.132417421806494,-1.5054077755042385
1699735105,8.9958165647,2.5902304645,2.7445675222,0.05665775084286592,-0.038789942625573975,0.008552113334772215,-61.51710026308097,-57.17626425021923,-0.935399006138556
1699735105,8.9958165647,2.5902304645,2.7445675222,0.05665775084286592,-0.038789942625573975,0.008552113334772215,-61.60479391990646,-56.986261327097345,-0.7015492546039169
1699735105,9.0867438235,2.7888347403,2.8151557889,0.023823744289722597,-0.04505131131710363,-0.001069014166846527,-61.80941245249927,-57.132417421806494,-1.2130955860859398
1699735105,9.0867438235,2.7888347403,2.8151557889,-0.023212879051524585,-0.04520402762665313,-0.02275473012287607,-62.014030985092084,-57.24934229757381,-0.7746273019584917
1699735105,9.3595255999,2.7924239742,2.7469603447999997,-0.023212879051524585,-0.04520402762665313,-0.02275473012287607,-62.14557147033031,-56.60625548085355,-0.950014615609471
1699735105,9.3595255999,2.7924239742,2.7469603447999997,-0.04352414822160859,-0.04260785036431157,-0.028099800957108706,-61.429406606255476,-57.351651563870206,-1.0961707103186205
1699735105,9.3391866078,2.51246373,2.5842484079999997,-0.04352414822160859,-0.04260785036431157,-0.028099800957108706,-61.34171294943,-57.17626425021923,-0.7600116924875767
1699735105,9.109475638200001,2.440679052,2.3712871966,-0.009621127501618741,-0.024587325837470118,0.002748893571891069,-61.29786612101724,-56.88395206080094,-1.6954106986261326
1699735105,9.109475638200001,2.440679052,2.3712871966,0.038942658935123484,-0.015729779883598895,0.0316122760767473,-61.458637825197314,-56.86933645133002,-0.6430868167202572
1699735105,8.9898345082,2.5339991334,2.3066809864,0.038942658935123484,-0.015729779883598895,0.0316122760767473,-61.5463314820228,-56.76702718503361,-1.4761765565624088
1699735105,8.9898345082,2.5339991334,2.5172493752,0.05283984310412832,-0.029779680362153248,0.030695978219450273,-61.99941537562116,-56.518561824028055,-0.9792458345513008
1699735105,8.9910309195,2.5950161097,2.5172493752,0.05283984310412832,-0.029779680362153248,0.030695978219450273,-61.634025138848294,-56.86933645133002,-0.7161648640748319
1699735105,8.9994057986,2.7003003040999998,2.7996024420000003,0.029321531433504737,-0.04199698512611356,0.016951510359994926,-61.79479684302835,-56.94241449868459,-1.15463314820228
1699735105,8.9994057986,2.7003003040999998,2.7996024420000003,0.029321531433504737,-0.04199698512611356,0.016951510359994926,-62.364805612394036,-56.78164279450453,-1.636948260742473
1699735105,9.116654106,2.7672993369,2.8809584104000003,-0.006719517620178169,-0.04123340357836603,-0.004734205596034618,-61.955568547208415,-56.89856767027185,-1.373867290266004
1699735105,9.116654106,2.7672993369,2.8809584104000003,-0.006719517620178169,-0.04123340357836603,-0.004734205596034618,-61.78018123355744,-57.46857643963753,-1.7538731365097926
1699735105,9.1597249128,2.6141586905,2.7026931267000003,-0.04902193536539073,-0.04184426881656405,-0.02626720524251466,-61.60479391990646,-57.29318912598656,-1.7977199649225375
1699735105,9.1597249128,2.6141586905,2.7026931267000003,-0.04902193536539073,-0.04184426881656405,-0.02626720524251466,-61.16632563577902,-57.29318912598656,-3.040046769950307
1699735105,9.2410808812,2.4622144554,2.4681965119,-0.07620543846520242,-0.04428772976935611,-0.026878070480712675,-61.44402221572639,-56.94241449868459,-2.0754165448699213
1699735105,9.2410808812,2.4622144554,2.4681965119,-0.07620543846520242,-0.04428772976935611,-0.026878070480712675,-61.41479099678456,-57.30780473545747,-1.666179479684303
1699735105,9.2925265671,2.4681965119,2.3581266723,-0.049632800603588746,-0.04123340357836603,-0.010842857978014772,-61.78018123355744,-57.10318620286466,-1.0084770534931307
1699735105,9.2925265671,2.4681965119,2.3581266723,-0.049632800603588746,-0.04123340357836603,-0.010842857978014772,-61.575562700964625,-57.10318620286466,-1.4030985092078339
1699735105,9.236295236,2.440679052,2.464607278,-0.01069014166846527,-0.04199698512611356,0.003817907738737596,-61.41479099678456,-57.17626425021923,-2.30926629640456
1699735105,9.236295236,2.440679052,2.464607278,-0.01069014166846527,-0.04199698512611356,0.003817907738737596,-61.79479684302835,-56.67933352820813,-1.373867290266004
1699735105,9.095118702599999,2.4179472373,2.6632115538,-0.011301006906663283,-0.048869219055841226,0.014202616788103856,-61.97018415667933,-56.60625548085355,-1.636948260742473
1699735105,9.095118702599999,2.4179472373,2.6632115538,-0.011301006906663283,-0.048869219055841226,0.014202616788103856,-60.888629055831636,-56.88395206080094,-1.9584916691026015
1699735105,8.9216390641,2.5914268758000003,2.8043880872,-0.016646077740895916,-0.05268712679457882,0.019547687622336492,-61.531715872551885,-56.86933645133002,-2.528500438468284
1699735105,8.9216390641,2.5914268758000003,2.8043880872,-0.016646077740895916,-0.05268712679457882,0.019547687622336492,-61.7363344051447,-57.030108155510085,-1.929260450160772
1699735105,8.930013943199999,2.7565316351999996,2.8187450228000004,-0.022907446432425576,-0.05497787143782138,0.000916297857297023,-61.8386436714411,-56.927798889213676,-1.7538731365097926
1699735105,8.930013943199999,2.7565316351999996,2.8187450228000004,-0.022907446432425576,-0.05497787143782138,0.000916297857297023,-61.575562700964625,-57.044723764981,-1.1254019292604502
1699735105,9.0496550732,2.5495524802999996,2.7170500623000002,-0.047952921198544204,-0.058337630247910464,-0.03252857393404432,-61.69248757673195,-56.76702718503361,-1.1838643671441098
1699735105,9.0496550732,2.5495524802999996,2.7170500623000002,-0.047952921198544204,-0.058337630247910464,-0.03252857393404432,-62.087109032446655,-56.854720841859105,-1.5638702133878981
1699735105,9.3009014462,2.309073809,2.6165515131,-0.07101308394051928,-0.05467243881872237,-0.04214970143566306,-62.24788073662671,-57.10318620286466,-1.9438760596316866
1699735105,9.3009014462,2.309073809,2.6165515131,-0.07101308394051928,-0.05467243881872237,-0.04214970143566306,-61.47325343466823,-57.16164864074832,-1.9584916691026015
1699735105,9.309276325299999,2.4837498588,2.4993032057,-0.050396382151336266,-0.0438295808407076,-0.023976460599272102,-61.70710318620286,-57.5270388775212,-1.7100263080970477
1699735105,9.309276325299999,2.4837498588,2.4993032057,-0.050396382151336266,-0.0438295808407076,-0.023976460599272102,-62.14557147033031,-57.234726688102896,-2.090032154340836
1699735105,9.2386880586,2.5339991334,2.3880369548,-0.014660765716752368,-0.036193765363232405,-0.008857545953871221,-61.32709733995908,-57.05933937445191,-2.4408067816427943
1699735105,9.2386880586,2.5339991334,2.3880369548,-0.014660765716752368,-0.036193765363232405,-0.008857545953871221,-62.14557147033031,-57.68781058170126,-2.5138848289973694
1699735105,9.2147598326,2.3940190112999997,2.4095723582,-0.0006108652381980154,-0.040011673101970006,0.001069014166846527,-62.18941829874306,-57.483192049108446,-2.28003507746273
1699735105,9.2147598326,2.3940190112999997,2.4095723582,0.016187928812247405,-0.04932736798448974,0.014660765716752368,-61.94095293773751,-57.38088278281205,-3.49313066354867
1699735105,9.042476605400001,2.4849462701,2.6727828442,0.016187928812247405,-0.04932736798448974,0.014660765716752368,-61.677871967261034,-57.76088862905583,-2.3677287342882196
1699735105,8.9694955161,2.6763720781,2.8187450228000004,0.031001410838549282,-0.047494772269895694,0.017409659288643436,-61.61940952937738,-57.80473545746858,-2.9961999415375624
1699735105,8.9694955161,2.6763720781,2.8187450228000004,0.031001410838549282,-0.047494772269895694,0.017409659288643436,-61.984799766150246,-57.936275942706814,-2.616194095293774
1699735105,9.0879402348,2.7493531674,2.8055844984999996,0.0158824961931484,-0.04169155250701455,-0.006108652381980153,-61.94095293773751,-57.585501315404855,-2.8938906752411575
1699735105,9.0879402348,2.7493531674,2.8055844984999996,0.0158824961931484,-0.04169155250701455,-0.006108652381980153,-62.10172464191756,-58.009353990061385,-3.054662379421222
1699735105,9.2925265671,2.5459632464,2.7349962318,-0.008552113334772215,-0.027336219409361186,-0.02107485071783153,-62.130955860859395,-57.351651563870206,-2.6015784858228588
1699735105,9.2925265671,2.5459632464,2.7349962318,-0.008552113334772215,-0.027336219409361186,-0.02107485071783153,-62.42326805027769,-57.936275942706814,-2.6308097047646886
1699735105,9.308079914,2.3521446158,2.4610180441000002,-0.018784106074588972,-0.010537425358915765,-0.009315694882519734,-62.24788073662671,-57.19087985969015,-2.3823443437591347
1699735105,9.308079914,2.3521446158,2.4610180441000002,-0.018784106074588972,-0.010537425358915765,-0.009315694882519734,-62.014030985092084,-57.410114001753875,-2.8500438468284126
1699735105,9.1692962032,2.4119651808,2.3006989299,0.004428772976935611,-0.00198531202414355,0.01634064512179691,-62.11634025138848,-57.36626717334112,-2.484653610055539
1699735105,9.1692962032,2.4119651808,2.3006989299,0.004428772976935611,-0.00198531202414355,0.01634064512179691,-62.467114878690445,-56.94241449868459,-2.090032154340836
1699735105,9.0855474122,2.5555345367999998,2.3593230836,0.05436700619962337,-0.006872233929727673,0.0316122760767473,-61.86787489038292,-57.05933937445191,-2.835428237357498
1699735105,9.0855474122,2.5555345367999998,2.3593230836,0.05436700619962337,-0.006872233929727673,0.0316122760767473,-62.17480268927215,-57.17626425021923,-3.4054370067231803
1699735105,9.0149591455,2.5698914723999997,2.5148565526000004,0.06841690667817772,-0.024740042147019622,0.029932396671702752,-61.7363344051447,-56.91318327974276,-3.0692779888921367
1699735105,9.0149591455,2.5698914723999997,2.5148565526000004,0.06841690667817772,-0.024740042147019622,0.029932396671702752,-62.3209587839813,-56.986261327097345,-2.133878982753581
1699735105,8.9910309195,2.6895326024,2.6069802227000003,0.06475171524898962,-0.028557949885757217,0.020922134408282025,-61.80941245249927,-56.8401052323882,-2.6746565331774335
1699735105,8.9910309195,2.6895326024,2.6069802227000003,0.06475171524898962,-0.028557949885757217,0.020922134408282025,-62.335574393452205,-57.000876936568254,-2.4992692195264543
1699735105,9.0999043478,2.5698914723999997,2.608176634,0.06582072941583615,-0.017256942979093935,0.008246680715673207,-62.30634317451038,-56.72318035662087,-3.0254311604793918
1699735105,9.0999043478,2.5698914723999997,2.608176634,0.06582072941583615,-0.017256942979093935,0.008246680715673207,-61.60479391990646,-57.26395790704473,-2.5869628763519437
1699735105,9.1872423727,2.4179472373,2.5758735289,0.07269296334556383,-0.012217304763960306,0.000916297857297023,-62.14557147033031,-56.8401052323882,-2.6454253142356037
1699735105,9.1872423727,2.4179472373,2.5758735289,0.07269296334556383,-0.012217304763960306,0.000916297857297023,-62.028646594563,-56.67933352820813,-1.9584916691026015
1699735105,9.1836531388,2.4849462701,2.4323041729,0.08842274322916273,-0.016493361431346415,0.003665191429188092,-61.80941245249927,-56.79625840397544,-1.4907921660333234
1699735105,9.1836531388,2.4849462701,2.4323041729,0.10430523942231112,-0.03252857393404432,0.0032070425005395805,-62.10172464191756,-56.79625840397544,-2.090032154340836
1699735105,9.1477607998,2.4478575198,2.4263221164,0.10430523942231112,-0.03252857393404432,0.0032070425005395805,-62.437883659748614,-57.073954983922825,-2.6015784858228588
1699735105,9.1477607998,2.4478575198,2.4263221164,0.1114829059711378,-0.045662176555301644,0.007483099167925688,-62.67173341128325,-56.81087401344635,-2.28003507746273
1699735105,9.108279226899999,2.4251257050999997,2.6141586905,0.1114829059711378,-0.045662176555301644,0.007483099167925688,-62.408652440806776,-57.32242034492838,-2.3823443437591347
1699735105,9.108279226899999,2.4251257050999997,2.6141586905,0.09376781406339535,-0.05100724738953428,0.012522737383059314,-62.057877813504824,-56.86933645133002,-2.4554223911137094
1699735105,9.1453679772,2.4586252215,2.7242285301,0.09376781406339535,-0.05100724738953428,0.012522737383059314,-61.86787489038292,-57.234726688102896,-2.528500438468284
1699735105,9.1453679772,2.4586252215,2.7242285301,0.0833831050140291,-0.048258353817643214,0.010231992739816757,-62.364805612394036,-56.91318327974276,-2.4700380005846245
1699735105,9.1346002755,2.476571391,2.8139593776000003,0.0833831050140291,-0.048258353817643214,0.010231992739816757,-62.2332651271558,-57.073954983922825,-2.572347266881029
1699735105,9.148957211099999,2.4107687694999997,2.9347969189,0.09315694882519734,-0.0358883327441334,0.003665191429188092,-61.80941245249927,-56.533177433498984,-2.3823443437591347
1699735105,9.148957211099999,2.4107687694999997,2.9347969189,0.09315694882519734,-0.0358883327441334,0.003665191429188092,-61.955568547208415,-57.19087985969015,-1.8415667933352822
1699735105,9.1106720495,2.4514467537,2.9515466771,0.09605855870663792,-0.02229658119422756,0.0033597588100890844,-61.66325635779012,-57.39549839228296,-1.4323297281496639
1699735105,9.1106720495,2.4514467537,2.9515466771,0.09605855870663792,-0.02229658119422756,0.0033597588100890844,-61.955568547208415,-57.453960830166615,-1.4761765565624088
1699735105,9.1513500337,2.5316063108,2.8271199019,0.05406157358052436,-0.021227567027381034,-0.0007635815477475192,-61.8386436714411,-57.11780181233558,-2.2069570301081556
1699735106,9.1513500337,2.5316063108,2.8271199019,0.05406157358052436,-0.021227567027381034,-0.0007635815477475192,-61.502484653610054,-57.29318912598656,-2.3823443437591347
1699735106,9.2578306394,2.5842484079999997,2.7014967154,0.02183843226557905,-0.028405233576207712,-0.012522737383059314,-62.130955860859395,-57.05933937445191,-1.6807950891552177
1699735106,9.2578306394,2.5842484079999997,2.7014967154,0.02183843226557905,-0.028405233576207712,-0.012522737383059314,-61.94095293773751,-57.36626717334112,-2.119263373282666
1699735106,9.2315095908,2.3330020350000003,2.6632115538,0.018478673455489966,-0.0317649923862968,-0.014508049407202865,-61.531715872551885,-57.08857059339374,-2.060800935399006
1699735106,9.2315095908,2.3330020350000003,2.6632115538,0.018478673455489966,-0.0317649923862968,-0.014508049407202865,-61.122478807366264,-57.22011107863197,-2.3677287342882196
1699735106,9.0795653557,2.3605194949,2.6476582069,0.019394971312786988,-0.037415495839628436,0.001832595714594046,-61.78018123355744,-57.20549546916106,-2.002338497515346
1699735106,9.0795653557,2.3605194949,2.6476582069,0.019394971312786988,-0.037415495839628436,0.001832595714594046,-61.7363344051447,-57.000876936568254,-2.2508038585209005
1699735106,9.1441715659,2.6644079651,2.7074787719,0.03466660226773737,-0.0358883327441334,0.010079276430267254,-61.94095293773751,-57.044723764981,-1.7392575270388775
1699735106,9.1441715659,2.6644079651,2.7074787719,0.03466660226773737,-0.0358883327441334,0.010079276430267254,-61.7363344051447,-56.88395206080094,-2.9377375036539024
1699735106,9.1692962032,2.5555345367999998,2.7601208691,0.015424347264499889,-0.04612032548395016,-0.01038470904936626,-62.07249342297574,-56.650102309266295,-2.7038877521192632
1699735106,9.1692962032,2.5555345367999998,2.7601208691,0.015424347264499889,-0.04612032548395016,-0.01038470904936626,-61.56094709149371,-57.030108155510085,-1.900029231218942
1699735106,9.0747797105,2.4119651808,2.8175486115,0.014813482026301871,-0.04321871560250958,-0.011606439525762293,-62.07249342297574,-57.000876936568254,-2.33849751534639
1699735106,9.0747797105,2.4119651808,2.8175486115,0.014813482026301871,-0.04321871560250958,-0.011606439525762293,-62.087109032446655,-56.76702718503361,-1.8123355743934522
1699735106,9.1011007591,2.5926232871,2.7314069979,0.0438295808407076,-0.027947084647559205,0.002138028333693054,-61.7363344051447,-56.91318327974276,-2.060800935399006
1699735106,9.1011007591,2.5926232871,2.7314069979,0.0438295808407076,-0.027947084647559205,0.002138028333693054,-62.20403390821397,-56.533177433498984,-2.6600409237065183
1699735106,9.0496550732,2.6153551018,2.6608187311999996,0.0438295808407076,-0.03145955976719779,-0.0016798794050445422,-61.59017831043555,-56.91318327974276,-1.651563870213388
1699735106,9.0496550732,2.6153551018,2.6608187311999996,-0.002138028333693054,-0.05131268000863329,-0.014508049407202865,-61.56094709149371,-57.11780181233558,-2.5431160479391988
1699735106,9.042476605400001,2.5519453029,2.6189443356999997,-0.002138028333693054,-0.05131268000863329,-0.014508049407202865,-61.575562700964625,-56.76702718503361,-1.8415667933352822
1699735106,9.042476605400001,2.5519453029,2.6189443356999997,-0.00992656012071775,-0.050396382151336266,-0.01679879405044542,-61.75095001461561,-56.79625840397544,-2.060800935399006
1699735106,9.1680997919,2.5698914723999997,2.6536402634000003,-0.00992656012071775,-0.050396382151336266,-0.01679879405044542,-61.72171879567377,-56.89856767027185,-2.104647763811751
1699735106,9.1680997919,2.5698914723999997,2.6273192148,0.011759155835311794,-0.03405573702953935,-0.009315694882519734,-62.291727565039466,-56.88395206080094,-1.8415667933352822
1699735106,9.1680997919,2.5818555854,2.6273192148,0.011759155835311794,-0.03405573702953935,-0.009315694882519734,-61.97018415667933,-56.94241449868459,-2.3677287342882196
1699735106,9.0999043478,2.548356069,2.4717857458,0.00916297857297023,-0.02580905631386615,-0.0024434609527920616,-61.677871967261034,-56.60625548085355,-2.4115755627009645
1699735106,9.0999043478,2.548356069,2.4717857458,0.00916297857297023,-0.02580905631386615,-0.0024434609527920616,-61.458637825197314,-57.36626717334112,-1.7538731365097926
1699735106,9.0879402348,2.4670001006,2.4981067944,0.012522737383059314,-0.029474247743054238,-0.0070249502392771765,-61.487869044139146,-56.957030108155514,-2.3823443437591347
1699735106,9.0879402348,2.4670001006,2.4981067944,0.012522737383059314,-0.029474247743054238,-0.0070249502392771765,-62.10172464191756,-57.24934229757381,-2.616194095293774
1699735106,9.0149591455,2.5040888509,2.6057838114000003,0.021227567027381034,-0.04474587869800463,-0.009621127501618741,-61.86787489038292,-57.000876936568254,-2.1631102016954107
1699735106,9.0149591455,2.5040888509,2.6057838114000003,0.021227567027381034,-0.04474587869800463,-0.009621127501618741,-61.7363344051447,-57.234726688102896,-2.616194095293774
1699735106,9.0305124924,2.7266213527,2.5998017549,0.0277943683380097,-0.05421428989007387,-0.013286318930806833,-61.86787489038292,-57.38088278281205,-1.5054077755042385
1699735106,9.0305124924,2.7266213527,2.5998017549,0.0277943683380097,-0.05421428989007387,-0.013286318930806833,-61.634025138848294,-57.49780765857936,-2.6746565331774335
1699735106,9.0652084201,2.572284295,2.608176634,0.021685715956029545,-0.06276640322484607,-0.031001410838549282,-61.984799766150246,-56.88395206080094,-2.8646594562993277
1699735106,9.0652084201,2.572284295,2.608176634,0.021685715956029545,-0.06276640322484607,-0.031001410838549282,-61.99941537562116,-57.22011107863197,-2.6308097047646886
1699735106,9.1034935817,2.3353948576,2.6033909887999998,0.02183843226557905,-0.06230825429619756,-0.03145955976719779,-61.76556562408653,-56.430868167202576,-2.148494592224496
1699735106,9.1034935817,2.3353948576,2.6033909887999998,0.02183843226557905,-0.06230825429619756,-0.03145955976719779,-61.955568547208415,-57.556270096463024,-1.5784858228588132
1699735106,9.1992064857,2.2193429615,2.6620151425,0.035430183815484885,-0.05497787143782138,-0.010537425358915765,-61.86787489038292,-56.91318327974276,-2.9377375036539024
1699735106,9.1992064857,2.2193429615,2.6620151425,0.035430183815484885,-0.05497787143782138,-0.010537425358915765,-61.82402806197018,-56.81087401344635,-2.2946506869336454
1699735106,9.1549392676,2.5902304645,2.7529424013,0.0833831050140291,-0.04321871560250958,0.012675453692608817,-61.72171879567377,-57.132417421806494,-2.265419467991815
1699735106,9.1549392676,2.5902304645,2.7529424013,0.0833831050140291,-0.04321871560250958,0.012675453692608817,-61.94095293773751,-56.82548962291728,-2.6892721426483486
1699735106,9.1549392676,2.7852455064000003,2.7062823606,0.12003501930591003,-0.027336219409361186,0.012675453692608817,-61.60479391990646,-57.08857059339374,-1.7977199649225375
1699735106,9.1549392676,2.7852455064000003,2.7062823606,0.12003501930591003,-0.027336219409361186,0.012675453692608817,-62.14557147033031,-57.29318912598656,-1.4615609470914936
1699735106,9.2530449942,2.5447668351,2.6691936103000002,0.07910704834664298,-0.03390302071998985,-0.011911872144861299,-61.80941245249927,-57.76088862905583,-2.090032154340836
1699735106,9.2530449942,2.5447668351,2.6691936103000002,0.07910704834664298,-0.03390302071998985,-0.011911872144861299,-62.10172464191756,-57.20549546916106,-2.484653610055539
1699735106,9.1860459614,2.4155544147,2.6368905052,0.040011673101970006,-0.03665191429188092,-0.011453723216212788,-61.86787489038292,-57.38088278281205,-2.148494592224496
1699735106,9.1860459614,2.4155544147,2.6368905052,0.04184426881656405,-0.0358883327441334,0.000916297857297023,-61.37094416837182,-56.86933645133002,-1.9731072785735166
1699735106,9.1190469286,2.4981067944,2.6715864329,0.04184426881656405,-0.0358883327441334,0.000916297857297023,-61.88249049985385,-57.43934522069571,-1.9731072785735166
1699735106,9.1190469286,2.4981067944,2.6715864329,0.05390885727097486,-0.04505131131710363,0.003665191429188092,-62.11634025138848,-57.05933937445191,-1.651563870213388
1699735106,9.109475638200001,2.5926232871,2.7852455064000003,0.05390885727097486,-0.04505131131710363,0.003665191429188092,-62.408652440806776,-56.854720841859105,-2.2069570301081556
1699735106,9.109475638200001,2.5926232871,2.7852455064000003,0.04932736798448974,-0.047189339650796684,-0.0012217304763960308,-61.99941537562116,-56.73779596609179,-1.6807950891552177
1699735106,9.068797654,2.6656043763999997,2.8546373618,0.04932736798448974,-0.047189339650796684,-0.0012217304763960308,-62.18941829874306,-56.927798889213676,-2.28003507746273
1699735106,9.1058864043,2.5591237707,2.9168507494,-0.00015271630954950385,-0.048258353817643214,-0.01511891464540088,-61.88249049985385,-56.54779304296989,-1.6807950891552177
1699735106,9.1058864043,2.5591237707,2.9168507494,-0.00015271630954950385,-0.048258353817643214,-0.01511891464540088,-61.72171879567377,-57.19087985969015,-2.6600409237065183
1699735106,9.1154576947,2.644068973,2.8725835312999997,-0.03924809155422248,-0.04642575810304917,-0.023823744289722597,-61.89710610932476,-57.10318620286466,-2.177725811166326
1699735106,9.1154576947,2.644068973,2.8725835312999997,-0.03924809155422248,-0.04642575810304917,-0.023823744289722597,-61.575562700964625,-56.69394913767904,-1.666179479684303
1699735106,8.9994057986,2.7314069979,2.6715864329,-0.04153883619746504,-0.038637226316024474,-0.024740042147019622,-61.94095293773751,-56.577024261911724,-2.8792750657702424
1699735106,8.9994057986,2.7314069979,2.6715864329,-0.04153883619746504,-0.038637226316024474,-0.024740042147019622,-61.79479684302835,-57.1470330312774,-2.177725811166326
1699735106,8.9575314031,2.7553352239,2.4299113503,-0.0358883327441334,-0.04153883619746504,-0.03527746750593539,-61.99941537562116,-57.044723764981,-2.528500438468284
1699735106,8.9575314031,2.7553352239,2.4299113503,-0.0358883327441334,-0.04153883619746504,-0.03527746750593539,-62.291727565039466,-57.132417421806494,-2.4554223911137094
1699735106,9.224331123,2.3856441322,2.4239292938,-0.05314527572322733,-0.06215553798664806,-0.05238169417547982,-62.10172464191756,-57.044723764981,-2.28003507746273
1699735106,9.224331123,2.3856441322,2.4239292938,-0.05314527572322733,-0.06215553798664806,-0.05238169417547982,-61.955568547208415,-56.957030108155514,-2.0169541069862613
1699735106,9.2171526552,2.3030917525,2.5363919559999997,-0.10613783513690517,-0.08414668656177661,-0.047494772269895694,-61.78018123355744,-57.49780765857936,-2.8500438468284126
1699735106,9.2171526552,2.3030917525,2.5363919559999997,-0.10613783513690517,-0.08414668656177661,-0.047494772269895694,-61.51710026308097,-57.000876936568254,-2.39695995323005
1699735106,8.9359959997,2.7541388126,2.5890340532,-0.09529497715889039,-0.08170322560898456,-0.025656340004316644,-62.10172464191756,-57.05933937445191,-2.6015784858228588
1699735106,8.9359959997,2.7541388126,2.5890340532,-0.09529497715889039,-0.08170322560898456,-0.025656340004316644,-61.47325343466823,-57.32242034492838,-1.7831043554516222
1699735106,9.0496550732,2.7457639335,2.6021945774999997,-0.037110063220529434,-0.06291911953439558,-0.03130684345764829,-61.51710026308097,-57.26395790704473,-1.7684887459807075
1699735106,9.0496550732,2.7457639335,2.6021945774999997,-0.037110063220529434,-0.06291911953439558,-0.03130684345764829,-61.531715872551885,-57.64396375328851,-2.265419467991815
1699735106,9.233902413400001,2.3832513096,2.5902304645,-0.029932396671702752,-0.06291911953439558,-0.0517708289372818,-61.41479099678456,-57.43934522069571,-2.557731657410114
1699735106,9.233902413400001,2.3832513096,2.5902304645,-0.029932396671702752,-0.06291911953439558,-0.0517708289372818,-61.89710610932476,-57.17626425021923,-2.5431160479391988
1699735106,9.131011041599999,2.3246271559,2.5196421978,-0.0755945732270044,-0.07834346679889546,-0.0436768645311581,-61.984799766150246,-56.577024261911724,-1.9146448406898566
1699735106,9.131011041599999,2.3246271559,2.5196421978,-0.07467827536970736,-0.07666358739385093,-0.026114488932965158,-61.89710610932476,-56.650102309266295,-2.484653610055539
1699735106,9.0975115252,2.656033086,2.4083759468999997,-0.07467827536970736,-0.07666358739385093,-0.026114488932965158,-62.10172464191756,-56.89856767027185,-3.332358959368606
1699735106,9.0975115252,2.656033086,2.4083759468999997,-0.038331793696925465,-0.06963863715457375,-0.027641652028460195,-62.16018707980123,-57.61473253434668,-1.900029231218942
1699735106,9.2434737038,2.6763720781,2.4191436486,-0.038331793696925465,-0.06963863715457375,-0.027641652028460195,-62.364805612394036,-57.32242034492838,-1.7246419175679626
1699735106,9.2434737038,2.6763720781,2.5351955446999996,-0.0016798794050445422,-0.06429356632034111,-0.03313943917224233,-61.5463314820228,-57.19087985969015,-1.6807950891552177
1699735106,9.3009014462,2.5902304645,2.5351955446999996,-0.0016798794050445422,-0.06429356632034111,-0.03313943917224233,-61.85325928091201,-57.70242619117217,-1.636948260742473
1699735106,9.284151688,2.4538395763,2.6368905052,0.039706240482871,-0.04474587869800463,-0.02550362369476714,-62.26249634609763,-57.42472961122479,-2.0315697164571764
1699735106,9.284151688,2.4538395763,2.6368905052,0.039706240482871,-0.04474587869800463,-0.02550362369476714,-61.92633732826659,-57.073954983922825,-2.0169541069862613
1699735106,9.0987079365,2.4717857458,2.5375883673,0.05711589977151443,-0.02626720524251466,-0.002138028333693054,-62.18941829874306,-57.29318912598656,-2.2508038585209005
1699735106,9.0987079365,2.4717857458,2.5375883673,0.05711589977151443,-0.02626720524251466,-0.002138028333693054,-62.130955860859395,-57.43934522069571,-1.607717041800643
1699735106,9.0125663229,2.6309084487,2.3365912689,0.03787364476827695,-0.03390302071998985,0.004734205596034618,-61.40017538731365,-57.76088862905583,-1.607717041800643
1699735106,9.0125663229,2.6309084487,2.3365912689,0.03787364476827695,-0.03390302071998985,0.004734205596034618,-61.955568547208415,-57.36626717334112,-1.826951183864367
1699735106,9.0532443071,2.6584259086,2.4670001006,0.03268129024359382,-0.049632800603588746,-0.00519235452468313,-61.86787489038292,-56.94241449868459,-1.651563870213388
1699735106,9.0532443071,2.6584259086,2.4670001006,0.03268129024359382,-0.049632800603588746,-0.00519235452468313,-62.04326220403391,-57.51242326805027,-1.1838643671441098
1699735106,9.0520478958,2.6105694566,2.7984060307000003,0.050549098460885775,-0.05253441048502932,-0.009315694882519734,-61.911721718795675,-57.76088862905583,-2.2215726395790703
1699735106,9.0520478958,2.6105694566,2.7984060307000003,0.050549098460885775,-0.05253441048502932,-0.009315694882519734,-61.984799766150246,-57.10318620286466,-2.133878982753581
1699735106,9.0400837828,2.7972096194,2.8905297008,0.08200865822808356,-0.03497203488683638,-0.005650503453331642,-62.554808535515924,-57.351651563870206,-1.885413621748027
1699735106,9.0400837828,2.7972096194,2.8905297008,0.08200865822808356,-0.03497203488683638,-0.005650503453331642,-62.540192926045016,-57.61473253434668,-2.2069570301081556
1699735106,9.1549392676,2.7194428849,2.6739792555000004,0.08399397025222712,-0.0160352125026979,-0.008246680715673207,-62.48173048816136,-57.351651563870206,-2.4554223911137094
1699735106,9.1549392676,2.7194428849,2.6739792555000004,0.08399397025222712,-0.0160352125026979,-0.008246680715673207,-61.82402806197018,-57.30780473545747,-2.0169541069862613
1699735106,9.2530449942,2.4933211492,2.5052852621999997,0.04276056667386108,-0.020158552860534508,-0.00992656012071775,-62.18941829874306,-57.000876936568254,-2.6892721426483486
1699735106,9.2530449942,2.4933211492,2.5052852621999997,0.04276056667386108,-0.020158552860534508,-0.00992656012071775,-61.76556562408653,-57.16164864074832,-2.39695995323005
1699735106,9.2614198733,2.5040888509,2.5770699402,0.044898595007554123,-0.01832595714594046,0.008704829644321718,-61.41479099678456,-57.38088278281205,-2.39695995323005
1699735106,9.2614198733,2.5040888509,2.5770699402,0.044898595007554123,-0.01832595714594046,0.008704829644321718,-61.47325343466823,-57.20549546916106,-1.9584916691026015
1699735106,9.1465643885,2.4873390927,2.6715864329,0.057879481319261954,-0.018478673455489966,0.02504547476611863,-61.911721718795675,-56.97164571762643,-2.33849751534639
1699735106,9.1465643885,2.4873390927,2.6715864329,0.057879481319261954,-0.018478673455489966,0.02504547476611863,-61.86787489038292,-57.044723764981,-2.090032154340836
1699735106,9.006584266399999,2.6883361911000003,2.8199414341,0.06246097060574707,-0.02153299964648004,0.030390545600351263,-62.16018707980123,-57.000876936568254,-2.2361882490499854
1699735106,9.006584266399999,2.6883361911000003,2.8199414341,0.06246097060574707,-0.02153299964648004,0.020158552860534508,-62.17480268927215,-56.76702718503361,-2.5138848289973694
1699735106,8.9946201534,2.7469603447999997,2.8366911923,0.04214970143566306,-0.019242255003237483,0.020158552860534508,-62.11634025138848,-57.20549546916106,-1.651563870213388
1699735106,8.9946201534,2.7469603447999997,2.8366911923,0.012064588454410803,-0.014202616788103856,0.008704829644321718,-62.5255773165741,-56.88395206080094,-2.2069570301081556
1699735107,9.0269232585,2.7314069979,2.6883361911000003,0.012064588454410803,-0.014202616788103856,0.008704829644321718,-61.70710318620286,-57.42472961122479,-2.133878982753581
1699735107,9.0269232585,2.7314069979,2.6883361911000003,0.020922134408282025,0.0033597588100890844,-0.0004581489286485115,-62.48173048816136,-56.927798889213676,-0.9938614440222158
1699735107,9.1848495501,2.6967110702,2.5555345367999998,0.020922134408282025,0.0033597588100890844,-0.0004581489286485115,-62.16018707980123,-56.73779596609179,-1.7100263080970477
1699735107,9.1848495501,2.6967110702,2.5555345367999998,0.02428189321837111,0.005497787143782138,-0.005345070834232635,-62.24788073662671,-56.76702718503361,-1.666179479684303
1699735107,9.296115801,2.3521446158,2.5746771176,0.02428189321837111,0.005497787143782138,-0.005345070834232635,-62.17480268927215,-57.19087985969015,-1.5200233849751534
1699735107,9.1477607998,2.4981067944,2.5471596577,0.028557949885757217,0.0006108652381980154,0.01832595714594046,-62.014030985092084,-57.585501315404855,-3.010815551008477
1699735107,9.1477607998,2.4981067944,2.5471596577,0.028557949885757217,0.0006108652381980154,0.01832595714594046,-61.92633732826659,-57.19087985969015,-3.288512130955861
1699735107,9.1298146303,2.5268206656,2.4514467537,0.030695978219450273,-0.00519235452468313,0.03313943917224233,-61.70710318620286,-57.000876936568254,-2.6015784858228588
1699735107,9.1298146303,2.5268206656,2.4514467537,0.030695978219450273,-0.00519235452468313,0.03313943917224233,-62.30634317451038,-56.73779596609179,-2.1631102016954107
1699735107,9.0305124924,2.5938196984,2.5974089322999996,0.02871066619530672,-0.0198531202414355,0.037720928458727446,-62.467114878690445,-57.000876936568254,-2.557731657410114
1699735107,9.0305124924,2.5938196984,2.5974089322999996,0.02871066619530672,-0.0198531202414355,0.037720928458727446,-62.057877813504824,-56.91318327974276,-3.1277404267757962
1699735107,8.9934237421,2.7026931267000003,2.8223342567,0.03344487179134134,-0.015729779883598895,0.03344487179134134,-61.92633732826659,-56.97164571762643,-2.30926629640456
1699735107,8.9934237421,2.7026931267000003,2.8223342567,0.03344487179134134,-0.015729779883598895,0.03344487179134134,-61.79479684302835,-56.97164571762643,-2.8938906752411575
1699735107,9.0520478958,2.6763720781,2.8594230069999997,0.01679879405044542,-0.003817907738737596,0.013591751549905842,-61.92633732826659,-57.030108155510085,-2.747734580532008
1699735107,9.0520478958,2.6763720781,2.8594230069999997,0.01679879405044542,-0.003817907738737596,0.013591751549905842,-62.35019000292312,-56.70856474714996,-2.6308097047646886
1699735107,9.207581364800001,2.5064816735,2.7481567560999998,0.0007635815477475192,0.006261368691529657,-0.001069014166846527,-62.59865536392868,-56.89856767027185,-2.4554223911137094
1699735107,9.207581364800001,2.5064816735,2.7481567560999998,0.0007635815477475192,0.006261368691529657,-0.001069014166846527,-62.14557147033031,-56.76702718503361,-2.9085062847120726
1699735107,9.2051885422,2.560320182,2.6596223199,-0.005650503453331642,0.008246680715673207,0.001832595714594046,-62.14557147033031,-56.78164279450453,-2.8500438468284126
1699735107,9.2051885422,2.560320182,2.6596223199,-0.005650503453331642,0.008246680715673207,0.001832595714594046,-62.04326220403391,-57.044723764981,-2.7769657994738384
1699735107,9.108279226899999,2.691925425,2.6392833278,-0.003665191429188092,-0.004123340357836604,-0.0013744467859455344,-62.087109032446655,-56.81087401344635,-2.791581408944753
1699735107,9.108279226899999,2.691925425,2.6392833278,-0.003665191429188092,-0.004123340357836604,-0.0013744467859455344,-62.291727565039466,-56.81087401344635,-3.0692779888921367
1699735107,9.0520478958,2.7290141752999997,2.6093730453,-0.004123340357836604,-0.014813482026301871,-0.005345070834232635,-61.984799766150246,-56.986261327097345,-2.981584332066647
1699735107,9.0520478958,2.7290141752999997,2.6093730453,-0.004123340357836604,-0.014813482026301871,-0.005345070834232635,-61.89710610932476,-56.957030108155514,-2.9085062847120726
1699735107,9.0723868879,2.6632115538,2.4514467537,-0.03375030441044035,-0.014508049407202865,-0.002901609881440573,-61.99941537562116,-56.854720841859105,-1.9146448406898566
1699735107,9.0723868879,2.6632115538,2.4514467537,-0.03375030441044035,-0.014508049407202865,-0.002901609881440573,-62.10172464191756,-56.86933645133002,-2.7331189710610935
1699735107,9.2171526552,2.5459632464,2.4119651808,-0.05207626155638081,-0.009315694882519734,-0.005345070834232635,-61.89710610932476,-56.752411575562704,-2.7769657994738384
1699735107,9.2171526552,2.5459632464,2.4119651808,-0.05207626155638081,-0.009315694882519734,-0.005345070834232635,-62.014030985092084,-56.752411575562704,-3.259280912014031
1699735107,9.3332045513,2.3605194949,2.5914268758000003,-0.009010262263420726,0.0,-0.004886921905584123,-61.80941245249927,-56.91318327974276,-3.317743349897691
1699735107,9.3332045513,2.3605194949,2.5914268758000003,-0.009010262263420726,0.0070249502392771765,0.01832595714594046,-61.66325635779012,-56.59163987138264,-2.820812627886583
1699735107,9.153742856300001,2.4107687694999997,2.7589244578,0.04276056667386108,0.0070249502392771765,0.01832595714594046,-61.79479684302835,-56.38702133878982,-3.653902367728734
1699735107,9.153742856300001,2.4107687694999997,2.7589244578,0.06627887834448466,0.01313360262125733,0.0358883327441334,-61.38555977784274,-56.32855890090617,-3.010815551008477
1699735107,9.019744790699999,2.7433711108999996,2.6991038927999997,0.06627887834448466,0.01313360262125733,0.0358883327441334,-62.04326220403391,-56.29932768196434,-2.8646594562993277
1699735107,9.019744790699999,2.7433711108999996,2.6991038927999997,0.06887505560682623,0.02153299964648004,0.0277943683380097,-61.8386436714411,-56.89856767027185,-3.49313066354867
1699735107,9.0317089037,2.6129622792,2.7433711108999996,0.06887505560682623,0.02153299964648004,0.0277943683380097,-62.087109032446655,-56.41625255773166,-2.9231218941829873
1699735107,9.0317089037,2.6129622792,2.7433711108999996,0.06246097060574707,0.028252517266658207,0.013286318930806833,-61.575562700964625,-56.41625255773166,-3.4638994446068403
1699735107,9.1393859207,2.3509482045,2.8869404668999996,0.06246097060574707,0.028252517266658207,0.013286318930806833,-61.28325051154633,-56.6647179187372,-2.8938906752411575
1699735107,9.095118702599999,2.3976082452,2.9611179675,0.059406644414756994,0.025961772623415653,0.01114829059711378,-61.22478807366267,-56.82548962291728,-5.042385267465653
1699735107,9.095118702599999,2.3976082452,2.9611179675,0.059406644414756994,0.025961772623415653,0.01114829059711378,-61.79479684302835,-56.957030108155514,-4.574685764396375
1699735107,8.9347995884,2.5148565526000004,2.9718856692,0.0636827010821431,0.009773843811168246,0.0079412480965742,-61.99941537562116,-56.6647179187372,-4.238526746565332
1699735107,8.9347995884,2.5148565526000004,2.9718856692,0.0636827010821431,0.009773843811168246,0.0079412480965742,-62.408652440806776,-57.11780181233558,-3.7854428529669684
1699735107,9.0257268472,2.3641087288000002,3.0819555088,0.045662176555301644,-0.017867808217291947,-0.0012217304763960308,-62.10172464191756,-56.67933352820813,-3.741596024554224
1699735107,9.0257268472,2.3641087288000002,3.0819555088,0.045662176555301644,-0.017867808217291947,-0.0012217304763960308,-61.51710026308097,-57.30780473545747,-3.536977491961415
1699735107,9.0352981376,2.3868405435,3.3116664784,0.029474247743054238,-0.04810563750809371,-0.00916297857297023,-62.2332651271558,-56.97164571762643,-4.136217480268927
1699735107,9.0352981376,2.3868405435,3.3116664784,0.029474247743054238,-0.04810563750809371,-0.00916297857297023,-62.057877813504824,-56.82548962291728,-3.6392867582578194
1699735107,8.9324067658,2.4239292938,3.5353953915,0.026878070480712675,-0.058948495486108476,-0.012370021073509811,-62.14557147033031,-56.73779596609179,-2.33849751534639
1699735107,8.9324067658,2.4239292938,3.5353953915,0.026878070480712675,-0.058948495486108476,-0.012370021073509811,-61.8386436714411,-56.8401052323882,-2.8938906752411575
1699735107,8.9874416856,2.428714939,3.5198420446,-0.0012217304763960308,-0.061086523819801536,-0.022602013813326566,-61.97018415667933,-56.82548962291728,-3.916983338205203
1699735107,8.9874416856,2.428714939,3.5198420446,-0.0012217304763960308,-0.061086523819801536,-0.022602013813326566,-61.99941537562116,-57.08857059339374,-3.536977491961415
1699735107,8.997012975999999,2.344966148,3.3200413575,-0.031001410838549282,-0.07131851655961828,-0.040011673101970006,-61.80941245249927,-57.11780181233558,-3.741596024554224
1699735107,8.997012975999999,2.344966148,3.3200413575,-0.031001410838549282,-0.07131851655961828,-0.040011673101970006,-61.94095293773751,-56.927798889213676,-3.5662087109032443
1699735107,8.7708912403,2.3844477209,3.1788648241,-0.0798706298943905,-0.10567968620825664,-0.04306599929296008,-61.61940952937738,-56.89856767027185,-2.8061970184156677
1699735107,8.7708912403,2.3844477209,3.1788648241,-0.0798706298943905,-0.10567968620825664,-0.04306599929296008,-62.057877813504824,-57.044723764981,-3.010815551008477
1699735107,8.6883388606,2.6093730453,3.2626136151000003,-0.10873401239924674,-0.1310305935934743,-0.04444044607890562,-61.677871967261034,-56.474714995615315,-3.5662087109032443
1699735107,8.6883388606,2.6093730453,3.2626136151000003,-0.10873401239924674,-0.1310305935934743,-0.04444044607890562,-61.8386436714411,-56.59163987138264,-3.5662087109032443
1699735107,8.8115692245,2.6141586905,3.4013973259,-0.12583823906879116,-0.14599679192932566,-0.0638354173916926,-61.47325343466823,-56.56240865244081,-3.536977491961415
1699735107,8.8115692245,2.6141586905,3.4013973259,-0.12583823906879116,-0.14599679192932566,-0.0638354173916926,-61.38555977784274,-57.000876936568254,-2.7769657994738384
1699735107,8.8941216042,2.5591237707,3.385843979,-0.15271630954950383,-0.14614950823887515,-0.0755945732270044,-61.23940368313359,-57.044723764981,-3.712364805612394
1699735107,8.8941216042,2.5591237707,3.385843979,-0.15271630954950383,-0.14614950823887515,-0.0755945732270044,-60.976322712657115,-56.89856767027185,-2.5431160479391988
1699735107,9.121439751199999,2.6859433685,3.1537401868,-0.20525072003453315,-0.12965614680752877,-0.08246680715673206,-61.29786612101724,-57.044723764981,-2.9377375036539024
1699735107,9.121439751199999,2.6859433685,3.1537401868,-0.20525072003453315,-0.12965614680752877,-0.09453139561114288,-61.76556562408653,-57.132417421806494,-3.0838935983630518
1699735107,9.391828705,2.5806591741,2.7744778047,-0.2426662158741616,-0.11377365061438036,-0.09453139561114288,-61.16632563577902,-57.24934229757381,-2.981584332066647
1699735107,9.391828705,2.5806591741,2.7744778047,-0.2583959957577605,-0.11850785621041497,-0.07742716894159844,-60.78631978953523,-57.3370359543993,-3.040046769950307
1699735107,9.274580397600001,2.4813570362,2.5088744961000002,-0.2583959957577605,-0.11850785621041497,-0.07742716894159844,-61.8386436714411,-57.54165448699211,-3.610055539315989
1699735107,9.274580397600001,2.4813570362,2.5088744961000002,-0.2307543437293003,-0.1195768703772615,-0.03558290012503439,-61.502484653610054,-57.39549839228296,-3.6246711487869043
1699735107,9.0867438235,2.8331019584000003,2.4502503424,-0.2307543437293003,-0.1195768703772615,-0.03558290012503439,-61.89710610932476,-57.044723764981,-3.478515054077755
1699735107,9.0867438235,2.8331019584000003,2.5268206656,-0.15317445847815234,-0.09422596299204386,-0.016187928812247405,-61.955568547208415,-57.483192049108446,-2.484653610055539
1699735107,9.0113699116,2.9060830476999997,2.5268206656,-0.15317445847815234,-0.09422596299204386,-0.016187928812247405,-61.38555977784274,-57.39549839228296,-7.147033031277404
1699735107,9.081958178299999,2.6129622792,2.440679052,-0.12629638799743967,-0.07040221870232127,-0.017256942979093935,-61.634025138848294,-57.556270096463024,-4.311604793919907
1699735107,9.081958178299999,2.6129622792,2.440679052,-0.12629638799743967,-0.07040221870232127,-0.017256942979093935,-61.72171879567377,-57.26395790704473,-2.6746565331774335
1699735107,9.0783689444,2.5280170769,2.2121644937,-0.12049316823455852,-0.05451972250917286,-0.01710422666954443,-61.09324758842444,-57.17626425021923,-3.6246711487869043
1699735107,9.0783689444,2.5280170769,2.2121644937,-0.12049316823455852,-0.05451972250917286,-0.01710422666954443,-61.37094416837182,-57.39549839228296,-3.1423560362467113
1699735107,9.0795653557,2.6309084487,2.0638094925,-0.04428772976935611,-0.02275473012287607,-0.0070249502392771765,-61.92633732826659,-57.26395790704473,-3.4200526161940954
1699735107,9.0795653557,2.6309084487,2.0638094925,-0.04428772976935611,-0.02275473012287607,-0.0070249502392771765,-61.531715872551885,-57.585501315404855,-3.376205787781351
1699735107,9.2458665264,2.4825534475,2.1487546948,0.05100724738953428,-0.0024434609527920616,-0.005803219762881146,-61.82402806197018,-57.54165448699211,-3.2008184741303713
1699735107,9.2458665264,2.4825534475,2.1487546948,0.05100724738953428,-0.0024434609527920616,-0.005803219762881146,-61.429406606255476,-57.61473253434668,-2.484653610055539
1699735107,9.3894358824,2.3222343333,2.3844477209,0.10140362954087054,-0.006261368691529657,0.0033597588100890844,-61.75095001461561,-57.43934522069571,-3.4638994446068403
1699735107,9.3894358824,2.3222343333,2.3844477209,0.10140362954087054,-0.006261368691529657,0.0033597588100890844,-61.61940952937738,-57.36626717334112,-3.756211634025139
1699735107,9.2913301558,2.5447668351,2.4418754632999997,0.09529497715889039,-0.026878070480712675,0.020158552860534508,-61.32709733995908,-57.453960830166615,-3.303127740426776
1699735107,9.2913301558,2.5447668351,2.4418754632999997,0.09529497715889039,-0.026878070480712675,0.020158552860534508,-61.47325343466823,-57.453960830166615,-3.0838935983630518
1699735107,9.1633141467,2.6309084487,2.4000010678,0.09529497715889039,-0.03512475119638588,0.019089538693687978,-61.034785150540785,-57.42472961122479,-2.5431160479391988
1699735107,9.1633141467,2.6309084487,2.4000010678,0.09529497715889039,-0.03512475119638588,0.019089538693687978,-61.575562700964625,-57.61473253434668,-2.966968722595732
1699735107,9.1908316066,2.3018953412000003,2.4933211492,0.10919216132789523,-0.030085112981252254,0.01313360262125733,-60.976322712657115,-57.54165448699211,-3.098509207833967
1699735107,9.1908316066,2.3018953412000003,2.4933211492,0.10919216132789523,-0.030085112981252254,0.01313360262125733,-61.88249049985385,-57.36626717334112,-3.3615901783104354
1699735107,9.1393859207,2.0398812665,2.7230321187999995,0.11010845918519226,-0.04108068726881653,0.020922134408282025,-61.458637825197314,-57.46857643963753,-2.572347266881029
1699735107,9.1393859207,2.0398812665,2.7230321187999995,0.11010845918519226,-0.04108068726881653,0.020922134408282025,-61.955568547208415,-57.24934229757381,-3.5223618824905
1699735107,9.056833541,2.3413769141,3.0400811133000003,0.13316862192716733,-0.04428772976935611,0.04092797095926703,-61.28325051154633,-57.32242034492838,-2.9231218941829873
1699735107,9.056833541,2.3413769141,3.0400811133000003,0.13316862192716733,-0.04428772976935611,0.04092797095926703,-61.44402221572639,-57.20549546916106,-2.148494592224496
1699735107,9.0676012427,2.6883361911000003,3.3762726886,0.15332717478770186,-0.05375614096142535,0.024740042147019622,-61.76556562408653,-57.351651563870206,-2.4700380005846245
1699735107,9.0676012427,2.6883361911000003,3.3762726886,0.15332717478770186,-0.05375614096142535,0.024740042147019622,-61.5463314820228,-57.36626717334112,-2.4700380005846245
1699735107,9.0281196698,2.5698914723999997,3.3571301077999998,0.09865473596897947,-0.07269296334556383,-0.002596177262341565,-60.976322712657115,-57.132417421806494,-3.390821397252265
1699735107,9.0281196698,2.5698914723999997,3.3571301077999998,0.09865473596897947,-0.07269296334556383,-0.002596177262341565,-61.28325051154633,-56.72318035662087,-2.528500438468284
1699735107,9.0795653557,2.5986053435999996,3.0879375653000003,0.03115412714809878,-0.05711589977151443,-0.0007635815477475192,-61.634025138848294,-57.1470330312774,-3.1862028646594562
1699735107,9.0795653557,2.5986053435999996,3.0879375653000003,0.03481931857728687,-0.026878070480712675,0.005803219762881146,-61.72171879567377,-57.46857643963753,-2.9523531131248175
1699735107,9.0975115252,2.4622144554,2.8019952646,0.03481931857728687,-0.026878070480712675,0.005803219762881146,-61.85325928091201,-57.54165448699211,-3.3615901783104354
1699735107,9.0975115252,2.4622144554,2.8019952646,0.05635231822376691,-0.014813482026301871,0.0158824961931484,-61.66325635779012,-57.05933937445191,-3.259280912014031
1699735107,9.1142612834,2.2719850587,2.8283163132,0.05635231822376691,-0.014813482026301871,0.0158824961931484,-61.429406606255476,-57.5270388775212,-2.820812627886583
1699735107,9.1142612834,2.2719850587,3.1549365981,0.05360342465187585,-0.03940080786377199,0.019089538693687978,-61.29786612101724,-57.29318912598656,-2.966968722595732
1699735107,8.9742811613,2.3485553819,3.1549365981,0.05360342465187585,-0.03940080786377199,0.019089538693687978,-61.955568547208415,-57.30780473545747,-3.2446653025431162
1699735107,8.8127656358,2.4610180441000002,3.4636107135,-0.01114829059711378,-0.07757988525114795,-0.012064588454410803,-61.26863490207541,-57.29318912598656,-2.9085062847120726
1699735108,8.8127656358,2.4610180441000002,3.4636107135,-0.01114829059711378,-0.07757988525114795,-0.012064588454410803,-61.56094709149371,-57.936275942706814,-3.6831335866705643
1699735108,8.9024964833,2.7361926431000003,3.505485109,-0.09697485656393494,-0.10018189906447451,-0.04673119072214818,-61.575562700964625,-57.54165448699211,-2.6600409237065183
1699735108,8.9024964833,2.7361926431000003,3.505485109,-0.09697485656393494,-0.10018189906447451,-0.04673119072214818,-61.487869044139146,-57.30780473545747,-3.697749196141479
1699735108,8.9647098709,2.8785655878,3.2638100264,-0.16539176324211266,-0.10506882097005864,-0.056505034533316414,-61.82402806197018,-57.95089155217773,-2.2361882490499854
1699735108,8.9647098709,2.8785655878,3.2638100264,-0.16539176324211266,-0.10506882097005864,-0.056505034533316414,-61.7363344051447,-57.483192049108446,-2.966968722595732
1699735108,8.748159425599999,2.5339991334,3.014956476,-0.22922718063380523,-0.1195768703772615,-0.06536258048718764,-61.356328558900906,-57.67319497223035,-2.557731657410114
1699735108,8.748159425599999,2.5339991334,3.014956476,-0.22922718063380523,-0.1195768703772615,-0.06536258048718764,-61.356328558900906,-57.60011692487576,-3.317743349897691
1699735108,8.7924266437,2.6847469572,3.062812928,-0.23304508837254284,-0.1113301896615883,-0.06597344572538566,-61.97018415667933,-57.43934522069571,-3.2446653025431162
1699735108,8.7924266437,2.6847469572,3.062812928,-0.23304508837254284,-0.1113301896615883,-0.06597344572538566,-61.38555977784274,-57.89242911429406,-3.8439052908506284
1699735108,9.162117735399999,2.9012974024999996,2.8821548217,-0.23014347849110228,-0.08231409084718257,-0.09728028918303396,-61.79479684302835,-57.43934522069571,-2.966968722595732
1699735108,9.162117735399999,2.9012974024999996,2.8821548217,-0.23014347849110228,-0.08231409084718257,-0.09728028918303396,-61.44402221572639,-57.92166033323589,-2.9961999415375624
1699735108,9.2925265671,2.6141586905,2.3676979627,-0.2919935838586513,-0.08445211918087563,-0.12660182061653869,-61.5463314820228,-57.80473545746858,-2.8938906752411575
1699735108,9.2925265671,2.6141586905,2.3676979627,-0.2919935838586513,-0.08445211918087563,-0.12660182061653869,-61.677871967261034,-57.8193510669395,-2.981584332066647
1699735108,9.5042913672,2.2947168733999996,2.0997018315,-0.3265074698168392,-0.10674870037510319,-0.10399980680321212,-61.92633732826659,-57.49780765857936,-3.507746273019585
1699735108,9.5042913672,2.2947168733999996,2.0997018315,-0.3265074698168392,-0.10674870037510319,-0.10399980680321212,-61.92633732826659,-57.5270388775212,-3.317743349897691
1699735108,9.3020978575,2.4502503424,2.0111673952999998,-0.26038130778190405,-0.10965031025654375,-0.0478002048889947,-61.7363344051447,-57.731657410114,-3.610055539315989
1699735108,9.3020978575,2.4502503424,2.0111673952999998,-0.26038130778190405,-0.10965031025654375,-0.0478002048889947,-62.014030985092084,-57.71704180064309,-2.9523531131248175
1699735108,9.0137627342,2.5663022385,2.0195422744,-0.15790866407418697,-0.10644326775600417,-0.01756237559819294,-61.7363344051447,-57.74627301958491,-3.390821397252265
1699735108,9.0137627342,2.5663022385,2.0195422744,-0.15790866407418697,-0.10644326775600417,-0.01756237559819294,-61.44402221572639,-57.54165448699211,-3.58082432037416
1699735108,9.020941202,2.3988046565,2.1810577999,-0.07254024703601432,-0.09697485656393494,-0.00198531202414355,-61.575562700964625,-57.64396375328851,-4.033908213972523
1699735108,9.020941202,2.3988046565,2.1810577999,-0.07254024703601432,-0.09697485656393494,-0.00198531202414355,-61.32709733995908,-57.044723764981,-3.098509207833967
1699735108,9.010173500299999,2.5495524802999996,2.4083759468999997,-0.001069014166846527,-0.07360926120286085,0.012217304763960306,-61.034785150540785,-56.986261327097345,-3.376205787781351
1699735108,9.010173500299999,2.5495524802999996,2.4083759468999997,-0.001069014166846527,-0.07360926120286085,0.012217304763960306,-61.6486407483192,-57.11780181233558,-3.58082432037416
1699735108,9.1202433399,2.7732813934,2.6344976826,0.06246097060574707,-0.039706240482871,0.002748893571891069,-61.487869044139146,-57.43934522069571,-2.820812627886583
1699735108,9.1202433399,2.7732813934,2.6344976826,0.06246097060574707,-0.039706240482871,0.002748893571891069,-61.89710610932476,-57.351651563870206,-3.303127740426776
1699735108,9.3379901965,2.5316063108,2.787638329,0.06307183584394509,-0.02107485071783153,-0.027183503099811684,-61.66325635779012,-57.51242326805027,-3.1862028646594562
1699735108,9.3379901965,2.5316063108,2.4837498588,0.009773843811168246,-0.02229658119422756,-0.025198191075668133,-61.29786612101724,-57.57088570593394,-3.7269804150833092
1699735108,9.5294160045,2.2325034857999997,2.4837498588,0.009773843811168246,-0.02229658119422756,-0.025198191075668133,-61.487869044139146,-57.74627301958491,-2.8938906752411575
1699735108,9.4528456813,2.2600209457,2.165504453,0.025198191075668133,-0.027336219409361186,0.014660765716752368,-61.69248757673195,-57.410114001753875,-3.215434083601286
1699735108,9.4528456813,2.2600209457,2.165504453,0.025198191075668133,-0.027336219409361186,0.014660765716752368,-61.89710610932476,-57.29318912598656,-2.820812627886583
1699735108,9.175278259699999,2.3832513096,2.3796620756999998,0.13775011121365247,-0.022449297503777062,0.061391956438900545,-61.38555977784274,-57.044723764981,-2.9231218941829873
1699735108,9.175278259699999,2.3832513096,2.3796620756999998,0.13775011121365247,-0.022449297503777062,0.061391956438900545,-61.44402221572639,-57.68781058170126,-3.098509207833967
1699735108,9.0616191862,2.4394826406999996,2.9072794589999997,0.18906279122228575,-0.024587325837470118,0.08261952346628157,-61.34171294943,-57.08857059339374,-2.8646594562993277
1699735108,9.0616191862,2.4394826406999996,2.9072794589999997,0.18906279122228575,-0.024587325837470118,0.08261952346628157,-61.76556562408653,-57.1470330312774,-2.9523531131248175
1699735108,9.080761767,2.6656043763999997,3.1884361145,0.14263703311923656,-0.03344487179134134,0.07330382858376185,-60.932475884244376,-57.22011107863197,-2.8792750657702424
1699735108,9.080761767,2.6656043763999997,3.1884361145,0.14263703311923656,-0.03344487179134134,0.07330382858376185,-61.356328558900906,-57.3370359543993,-2.528500438468284
1699735108,9.0281196698,2.8031916759,3.1334011947,0.10888672870879623,-0.023671027980173093,0.04291328298341058,-61.312481730488166,-57.05933937445191,-3.171587255188541
1699735108,9.0281196698,2.8031916759,3.1334011947,0.10888672870879623,-0.023671027980173093,0.04291328298341058,-61.531715872551885,-57.1470330312774,-2.6892721426483486
1699735108,9.1334038642,2.6237299809,2.8055844984999996,0.09621127501618743,-0.004734205596034618,0.01511891464540088,-61.66325635779012,-57.43934522069571,-2.7331189710610935
1699735108,9.1334038642,2.6237299809,2.8055844984999996,0.09621127501618743,-0.004734205596034618,0.01511891464540088,-62.07249342297574,-57.77550423852674,-3.6392867582578194
1699735108,9.0676012427,2.4382862294,2.4813570362,0.08964447370555875,-0.007635815477475192,0.00519235452468313,-61.89710610932476,-58.009353990061385,-3.697749196141479
1699735108,9.0676012427,2.4382862294,2.4813570362,0.08964447370555875,-0.007635815477475192,0.00519235452468313,-61.66325635779012,-57.20549546916106,-2.966968722595732
1699735108,8.9862452743,2.5160529638999996,2.3904297774,0.09865473596897947,-0.01435533309765336,0.02138028333693054,-61.29786612101724,-56.752411575562704,-2.981584332066647
1699735108,8.9862452743,2.5160529638999996,2.3904297774,0.09865473596897947,-0.01435533309765336,0.02138028333693054,-61.32709733995908,-57.19087985969015,-3.273896521484946
1699735108,9.0711904766,2.4813570362,2.4023938904,0.15057828121581077,-0.007635815477475192,0.03940080786377199,-61.502484653610054,-57.483192049108446,-2.616194095293774
1699735108,9.0711904766,2.4813570362,2.4023938904,0.15057828121581077,-0.007635815477475192,0.03940080786377199,-61.078631978953524,-57.36626717334112,-3.1277404267757962
1699735108,9.1011007591,2.2839491717,2.608176634,0.21807889003669145,0.005345070834232635,0.05345070834232634,-61.7363344051447,-57.79011984799766,-2.5138848289973694
1699735108,9.1011007591,2.2839491717,2.608176634,0.21807889003669145,0.005345070834232635,0.05345070834232634,-62.24788073662671,-57.453960830166615,-3.390821397252265
1699735108,9.2099741874,2.4346969955,2.9264220398,0.21868975527488949,0.013591751549905842,0.062002821677098564,-61.911721718795675,-57.29318912598656,-3.858520900321544
1699735108,9.2099741874,2.4346969955,2.9264220398,0.21868975527488949,0.013591751549905842,0.062002821677098564,-62.17480268927215,-57.32242034492838,-3.390821397252265
1699735108,9.2027957196,2.8091737324,3.0185457098999997,0.1837177203880531,0.012064588454410803,0.04902193536539073,-61.60479391990646,-57.030108155510085,-3.3615901783104354
1699735108,9.2027957196,2.8091737324,3.0185457098999997,0.1837177203880531,0.012064588454410803,0.04902193536539073,-61.61940952937738,-56.986261327097345,-3.2008184741303713
1699735108,9.236295236,2.5914268758000003,2.7385854657,0.15729779883598893,0.01435533309765336,0.023823744289722597,-61.66325635779012,-57.20549546916106,-2.8646594562993277
1699735108,9.236295236,2.5914268758000003,2.7385854657,0.15729779883598893,0.01435533309765336,0.023823744289722597,-62.087109032446655,-56.8401052323882,-2.5138848289973694
1699735108,9.3140619705,2.2073788485,2.51246373,0.159130394550583,0.0277943683380097,0.03924809155422248,-61.59017831043555,-56.854720841859105,-3.1277404267757962
1699735108,9.3140619705,2.2073788485,2.51246373,0.159130394550583,0.0277943683380097,0.03924809155422248,-61.51710026308097,-56.752411575562704,-3.0692779888921367
1699735108,9.4731846734,2.1451654609,2.4562323989,0.18555031610264716,0.03512475119638588,0.07910704834664298,-61.6486407483192,-56.70856474714996,-3.6392867582578194
1699735108,9.4731846734,2.1451654609,2.4562323989,0.22831088277650824,0.027641652028460195,0.10064004799312304,-61.88249049985385,-56.94241449868459,-3.55159310143233
1699735108,9.272187575,2.560320182,2.5555345367999998,0.22831088277650824,0.027641652028460195,0.10064004799312304,-62.364805612394036,-56.73779596609179,-2.7769657994738384
1699735108,8.8809610799,2.7625136916999997,2.6703900216,0.2796235627851415,0.02275473012287607,0.09590584239708841,-61.86787489038292,-56.957030108155514,-2.4700380005846245
1699735108,8.8809610799,2.7625136916999997,2.6703900216,0.2796235627851415,0.02275473012287607,0.09590584239708841,-62.56942414498684,-57.000876936568254,-3.507746273019585
1699735108,8.6464644651,2.4227328825,2.7828526838,0.2861903640957702,0.02138028333693054,0.08032877882303902,-62.16018707980123,-56.6647179187372,-2.5431160479391988
1699735108,8.6464644651,2.4227328825,2.7828526838,0.2861903640957702,0.02138028333693054,0.08032877882303902,-62.35019000292312,-56.59163987138264,-2.5138848289973694
1699735108,8.6213398278,2.0566310246999997,3.0819555088,0.2309070600388498,0.004886921905584123,0.0678060414399797,-61.955568547208415,-56.81087401344635,-2.2069570301081556
1699735108,8.6213398278,2.0566310246999997,3.0819555088,0.2309070600388498,0.004886921905584123,0.0678060414399797,-62.335574393452205,-56.60625548085355,-2.6454253142356037
1699735108,8.7637127725,2.3736800192,3.6071800695,0.16142113919382553,-0.03695734691097993,0.03268129024359382,-61.69248757673195,-56.60625548085355,-2.8061970184156677
1699735108,8.7637127725,2.3736800192,3.6071800695,0.16142113919382553,-0.03695734691097993,0.03268129024359382,-61.37094416837182,-57.234726688102896,-1.900029231218942
1699735108,8.9635134596,2.6356940939,3.8117664018,0.07483099167925687,-0.08277223977583108,-0.03405573702953935,-61.487869044139146,-56.503946214557146,-2.28003507746273
1699735108,8.9635134596,2.6356940939,3.8117664018,0.07483099167925687,-0.08277223977583108,-0.03405573702953935,-61.86787489038292,-56.752411575562704,-3.770827243496054
1699735108,9.0532443071,2.3497517932000003,3.4731820039,-0.01634064512179691,-0.09330966513474685,-0.08063421144213803,-61.85325928091201,-56.56240865244081,-3.1131248173048816
1699735108,9.0532443071,2.3497517932000003,3.4731820039,-0.01634064512179691,-0.09330966513474685,-0.08063421144213803,-62.04326220403391,-56.76702718503361,-3.171587255188541
1699735108,9.2781696315,2.1990039694,2.9395825641,-0.1036943741841131,-0.061850105367549056,-0.0678060414399797,-61.94095293773751,-56.48933060508623,-3.0692779888921367
1699735108,9.2781696315,2.1990039694,2.9395825641,-0.1036943741841131,-0.061850105367549056,-0.0678060414399797,-62.07249342297574,-56.78164279450453,-2.39695995323005
1699735108,9.4528456813,2.4119651808,2.6644079651,-0.12431107597329612,-0.0398589567924205,-0.038637226316024474,-61.8386436714411,-56.79625840397544,-2.1631102016954107
1699735108,9.4528456813,2.4119651808,2.6644079651,-0.12431107597329612,-0.0398589567924205,-0.038637226316024474,-61.94095293773751,-56.8401052323882,-2.4992692195264543
1699735108,9.3607220112,2.4454646972,2.6524438520999998,-0.11560624632897441,-0.04321871560250958,-0.03375030441044035,-61.429406606255476,-56.89856767027185,-3.230049693072201
1699735108,9.3607220112,2.4454646972,2.6524438520999998,-0.11560624632897441,-0.04321871560250958,-0.03375030441044035,-61.38555977784274,-56.79625840397544,-2.557731657410114
1699735108,9.1513500337,2.3904297774,2.5818555854,-0.11346821799528134,-0.05360342465187585,-0.03466660226773737,-61.47325343466823,-57.20549546916106,-2.7038877521192632
1699735108,9.1513500337,2.3904297774,2.5818555854,-0.11346821799528134,-0.05360342465187585,-0.03466660226773737,-62.028646594563,-57.073954983922825,-3.2446653025431162
1699735108,9.000602209899998,2.5758735289,2.4957139718,-0.09636399132573692,-0.0636827010821431,-0.03405573702953935,-61.8386436714411,-56.81087401344635,-2.9231218941829873
1699735108,9.000602209899998,2.5758735289,2.4957139718,-0.09636399132573692,-0.0636827010821431,-0.03405573702953935,-61.078631978953524,-57.1470330312774,-2.9231218941829873
1699735108,8.9096749511,2.5363919559999997,2.5926232871,-0.09926560120717749,-0.08124507668033605,-0.0438295808407076,-61.41479099678456,-56.63548669979538,-3.230049693072201
1699735108,8.9096749511,2.5363919559999997,2.5926232871,-0.09926560120717749,-0.08124507668033605,-0.0438295808407076,-62.437883659748614,-57.36626717334112,-3.230049693072201
1699735108,8.8689969669,2.3820548983,2.7768706272999997,-0.11270463644753383,-0.10476338835095964,-0.05085453107998478,-61.5463314820228,-57.044723764981,-3.1569716457176265
1699735108,8.8689969669,2.3820548983,2.7768706272999997,-0.11270463644753383,-0.10476338835095964,-0.05085453107998478,-61.69248757673195,-57.16164864074832,-2.7769657994738384
1699735108,8.8713897895,2.6165515131,2.8187450228000004,-0.07101308394051928,-0.08124507668033605,-0.038026361077826455,-61.634025138848294,-57.22011107863197,-2.6015784858228588
1699735108,8.8713897895,2.6165515131,2.8187450228000004,-0.07101308394051928,-0.08124507668033605,-0.038026361077826455,-61.85325928091201,-56.752411575562704,-3.3469745688395203
1699735108,9.038887371500001,2.5375883673,2.7278177639999996,-0.061086523819801536,-0.06551529679673715,-0.05192354524683131,-61.56094709149371,-56.82548962291728,-3.0692779888921367
1699735108,9.038887371500001,2.5375883673,2.7278177639999996,-0.061086523819801536,-0.06765332513043021,-0.06276640322484607,-61.502484653610054,-57.1470330312774,-3.288512130955861
1699735108,9.2578306394,2.2911276395,2.7026931267000003,-0.08659014751456867,-0.06765332513043021,-0.06276640322484607,-61.8386436714411,-57.10318620286466,-2.8792750657702424
1699735108,9.3583291886,2.4311077616,2.7936203855,-0.04184426881656405,-0.04337143191205909,-0.037568212149177944,-61.89710610932476,-57.16164864074832,-2.9085062847120726
1699735108,9.3583291886,2.4311077616,2.7936203855,-0.04184426881656405,-0.04337143191205909,-0.037568212149177944,-61.66325635779012,-56.752411575562704,-2.5869628763519437
1699735108,9.274580397600001,2.4837498588,2.715853651,0.011911872144861299,-0.02504547476611863,-0.01832595714594046,-62.10172464191756,-56.82548962291728,-3.0692779888921367
1699735108,9.274580397600001,2.4837498588,2.715853651,0.011911872144861299,-0.02504547476611863,-0.01832595714594046,-61.79479684302835,-56.97164571762643,-3.2446653025431162
1699735108,9.1262253964,2.4586252215,2.5686950610999997,-0.004123340357836604,-0.04169155250701455,-0.01389718416900485,-61.911721718795675,-57.30780473545747,-3.536977491961415
1699735108,9.1262253964,2.4586252215,2.5686950610999997,-0.004123340357836604,-0.04169155250701455,-0.01389718416900485,-61.38555977784274,-57.22011107863197,-3.273896521484946
1699735108,9.0843510009,2.4921247379,2.6967110702,-0.026572637861613665,-0.05589416929511841,-0.01389718416900485,-62.07249342297574,-57.27857351651564,-2.8061970184156677
1699735108,9.0843510009,2.4921247379,2.6967110702,-0.026572637861613665,-0.05589416929511841,-0.01389718416900485,-61.6486407483192,-56.88395206080094,-3.303127740426776
1699735109,9.0891366461,2.4777678023000003,2.931207685,-0.027336219409361186,-0.047647488579445195,-0.021227567027381034,-61.26863490207541,-57.17626425021923,-3.916983338205203
1699735109,9.0891366461,2.4777678023000003,2.931207685,-0.027336219409361186,-0.047647488579445195,-0.021227567027381034,-61.72171879567377,-57.26395790704473,-3.536977491961415
1699735109,9.1381895094,2.3413769141,3.0329026454999997,-0.0032070425005395805,-0.04230241774521256,-0.030085112981252254,-61.79479684302835,-57.05933937445191,-3.317743349897691
1699735109,9.1381895094,2.3413769141,3.0329026454999997,-0.0032070425005395805,-0.04230241774521256,-0.030085112981252254,-62.37942122186495,-57.30780473545747,-3.990061385559778
1699735109,8.97308475,2.5184457865,3.0185457098999997,0.012980886311707827,-0.0398589567924205,-0.024587325837470118,-62.14557147033031,-57.3370359543993,-3.5223618824905
1699735109,8.97308475,2.5184457865,3.0185457098999997,0.012980886311707827,-0.0398589567924205,-0.024587325837470118,-62.18941829874306,-57.49780765857936,-3.040046769950307
1699735109,8.9898345082,2.7026931267000003,2.775674216,-0.000916297857297023,-0.04291328298341058,-0.037262779530078935,-61.531715872551885,-57.585501315404855,-3.5223618824905
1699735109,8.9898345082,2.7026931267000003,2.775674216,-0.000916297857297023,-0.04291328298341058,-0.037262779530078935,-61.356328558900906,-57.76088862905583,-3.2008184741303713
1699735109,9.1980100744,2.2755742926,2.6105694566,-0.05345070834232634,-0.06536258048718764,-0.06765332513043021,-61.677871967261034,-57.731657410114,-3.2446653025431162
1699735109,9.1980100744,2.2755742926,2.6105694566,-0.05345070834232634,-0.06536258048718764,-0.06765332513043021,-61.94095293773751,-57.68781058170126,-3.1277404267757962
1699735109,9.1980100744,2.1595223965,2.7278177639999996,-0.07360926120286085,-0.07147123286916779,-0.05390885727097486,-61.911721718795675,-57.20549546916106,-3.2008184741303713
1699735109,9.1980100744,2.1595223965,2.7278177639999996,-0.07360926120286085,-0.07147123286916779,-0.05390885727097486,-62.10172464191756,-57.073954983922825,-3.4200526161940954
1699735109,9.1800639049,2.4299113503,2.8558337731,-0.028405233576207712,-0.044898595007554123,-0.019700403931885994,-62.057877813504824,-57.10318620286466,-2.6308097047646886
1699735109,9.1800639049,2.4299113503,2.8558337731,-0.028405233576207712,-0.044898595007554123,-0.019700403931885994,-62.2332651271558,-57.3370359543993,-3.4054370067231803
1699735109,9.1585285015,2.4514467537,2.8630122409,0.011911872144861299,-0.026114488932965158,-0.007483099167925688,-62.291727565039466,-57.1470330312774,-3.376205787781351
1699735109,9.1585285015,2.4514467537,2.8630122409,0.011911872144861299,-0.026114488932965158,-0.007483099167925688,-61.94095293773751,-57.77550423852674,-3.1277404267757962
1699735109,9.2350988247,2.3700907853,2.8163522002,0.008552113334772215,-0.03222314131494531,-0.0079412480965742,-61.634025138848294,-57.453960830166615,-2.2215726395790703
1699735109,9.2350988247,2.3700907853,2.8163522002,0.008552113334772215,-0.03222314131494531,-0.0079412480965742,-61.82402806197018,-57.08857059339374,-3.230049693072201
1699735109,9.1561356789,2.6835505459,2.8558337731,0.02183843226557905,-0.03268129024359382,-0.000916297857297023,-62.24788073662671,-57.17626425021923,-3.55159310143233
1699735109,9.1561356789,2.6835505459,2.8558337731,0.02183843226557905,-0.03268129024359382,-0.000916297857297023,-61.32709733995908,-57.29318912598656,-3.449283835135925
1699735109,8.9599242257,2.8773691765,2.8151557889,0.04046982203061852,-0.030085112981252254,-0.0160352125026979,-61.75095001461561,-56.91318327974276,-3.054662379421222
1699735109,8.9599242257,2.8773691765,2.8151557889,0.01038470904936626,-0.036804630601430424,-0.035430183815484885,-62.27711195556854,-57.01549254603917,-3.230049693072201
1699735109,8.97308475,2.3928226,2.6787649007,0.01038470904936626,-0.036804630601430424,-0.035430183815484885,-62.10172464191756,-56.94241449868459,-2.981584332066647
1699735109,9.152546445,2.2887348169,2.6428725617,-0.017715091907742442,-0.037568212149177944,-0.026878070480712675,-62.5255773165741,-57.351651563870206,-3.6246711487869043
1699735109,9.152546445,2.2887348169,2.6428725617,-0.017715091907742442,-0.037568212149177944,-0.026878070480712675,-62.11634025138848,-57.483192049108446,-3.098509207833967
1699735109,9.1908316066,2.440679052,2.572284295,0.007330382858376184,-0.038026361077826455,-0.017867808217291947,-62.408652440806776,-57.30780473545747,-3.960830166617948
1699735109,9.1908316066,2.440679052,2.572284295,0.007330382858376184,-0.038026361077826455,-0.017867808217291947,-61.97018415667933,-57.11780181233558,-3.1569716457176265
1699735109,9.1011007591,2.4263221164,2.7206392962,0.04581489286485115,-0.037415495839628436,-0.009315694882519734,-61.911721718795675,-57.1470330312774,-3.6831335866705643
1699735109,9.1011007591,2.4263221164,2.7206392962,0.04581489286485115,-0.037415495839628436,-0.009315694882519734,-61.356328558900906,-57.26395790704473,-3.1277404267757962
1699735109,9.0723868879,2.6225335696,2.823530668,0.07666358739385093,-0.03512475119638588,0.005345070834232635,-61.85325928091201,-57.60011692487576,-3.6831335866705643
1699735109,9.0723868879,2.6225335696,2.823530668,0.07666358739385093,-0.03512475119638588,0.005345070834232635,-61.34171294943,-57.030108155510085,-3.273896521484946
1699735109,9.0915294687,2.7888347403,2.9336005076,0.08964447370555875,-0.03252857393404432,0.0035124751196385882,-61.23940368313359,-57.29318912598656,-3.332358959368606
1699735109,9.0915294687,2.7888347403,2.9336005076,0.08964447370555875,-0.03252857393404432,0.0035124751196385882,-61.70710318620286,-57.20549546916106,-2.9231218941829873
1699735109,9.0149591455,2.6727828442,3.0113672421,0.09254608358699933,-0.028405233576207712,-0.010537425358915765,-61.38555977784274,-57.49780765857936,-3.3469745688395203
1699735109,9.0149591455,2.6727828442,3.0113672421,0.09254608358699933,-0.028405233576207712,-0.010537425358915765,-61.94095293773751,-57.36626717334112,-3.4638994446068403
1699735109,8.983852451699999,2.4610180441000002,2.9635107901000004,0.06643159465403417,-0.0317649923862968,-0.011606439525762293,-61.7363344051447,-57.1470330312774,-3.741596024554224
1699735109,8.983852451699999,2.4610180441000002,2.9635107901000004,0.06643159465403417,-0.0317649923862968,-0.011606439525762293,-61.34171294943,-57.57088570593394,-3.741596024554224
1699735109,9.0125663229,2.560320182,2.87138712,0.0517708289372818,-0.030543261909900768,-0.0032070425005395805,-61.21017246419176,-57.16164864074832,-3.770827243496054
1699735109,9.0125663229,2.560320182,2.87138712,0.0517708289372818,-0.030543261909900768,-0.0032070425005395805,-60.99093832212803,-57.24934229757381,-3.2446653025431162
1699735109,9.0879402348,2.5579273594000003,2.8390840148999996,0.048869219055841226,-0.03466660226773737,-0.01069014166846527,-61.32709733995908,-57.234726688102896,-3.449283835135925
1699735109,9.0879402348,2.5579273594000003,2.8390840148999996,0.048869219055841226,-0.03466660226773737,-0.01069014166846527,-61.37094416837182,-57.42472961122479,-3.712364805612394
1699735109,9.1202433399,2.5507488916,2.9970103065,0.04413501345980661,-0.038179077387375956,-0.013744467859455345,-61.82402806197018,-57.38088278281205,-3.8877521192633733
1699735109,9.1202433399,2.5507488916,2.9970103065,0.04413501345980661,-0.038179077387375956,-0.013744467859455345,-61.70710318620286,-57.39549839228296,-3.653902367728734
1699735109,9.096315113900001,2.7122644171,3.0735806297,0.049632800603588746,-0.03558290012503439,-0.0160352125026979,-61.59017831043555,-57.32242034492838,-3.697749196141479
1699735109,9.096315113900001,2.7122644171,3.0735806297,0.049632800603588746,-0.03558290012503439,-0.0160352125026979,-61.502484653610054,-57.030108155510085,-3.288512130955861
1699735109,8.9694955161,2.6249263922,2.9156543381000004,0.04016438941151951,-0.0438295808407076,-0.025198191075668133,-61.22478807366267,-57.351651563870206,-3.376205787781351
1699735109,8.9694955161,2.6249263922,2.9156543381000004,0.04016438941151951,-0.0438295808407076,-0.025198191075668133,-61.32709733995908,-57.483192049108446,-2.8938906752411575
1699735109,8.9192462415,2.5339991334,2.7302105866,0.0024434609527920616,-0.061391956438900545,-0.027641652028460195,-61.59017831043555,-57.43934522069571,-3.317743349897691
1699735109,8.9192462415,2.5339991334,2.7302105866,0.0024434609527920616,-0.061391956438900545,-0.022602013813326566,-61.28325051154633,-57.11780181233558,-2.6454253142356037
1699735109,8.9659062822,2.6177479243999997,2.6632115538,-0.010842857978014772,-0.06918048822592524,-0.022602013813326566,-61.356328558900906,-56.94241449868459,-2.9377375036539024
1699735109,8.9659062822,2.6177479243999997,2.6632115538,0.006414085001079161,-0.06856962298772722,-0.024129176908821607,-61.44402221572639,-57.46857643963753,-3.3615901783104354
1699735109,9.1573320902,2.4729821571,2.8271199019,0.006414085001079161,-0.06856962298772722,-0.024129176908821607,-61.92633732826659,-57.17626425021923,-2.9961999415375624
1699735109,9.1573320902,2.4729821571,2.8271199019,0.035430183815484885,-0.05406157358052436,-0.009468411192069237,-61.69248757673195,-57.08857059339374,-2.8061970184156677
1699735109,9.1896351953,2.4897319153,3.0699913958000002,0.035430183815484885,-0.05406157358052436,-0.009468411192069237,-62.14557147033031,-57.410114001753875,-3.1569716457176265
1699735109,9.1896351953,2.4897319153,3.0089744195,0.05375614096142535,-0.03695734691097993,0.0007635815477475192,-61.78018123355744,-57.483192049108446,-2.6308097047646886
1699735109,9.116654106,2.7014967154,3.0089744195,0.05375614096142535,-0.03695734691097993,0.0007635815477475192,-61.502484653610054,-57.51242326805027,-2.7185033615901784
1699735109,8.9886380969,2.6380869165,2.7062823606,0.04123340357836603,-0.03497203488683638,-0.005039638215133627,-61.86787489038292,-57.073954983922825,-2.8646594562993277
1699735109,8.9886380969,2.6380869165,2.7062823606,0.04123340357836603,-0.03497203488683638,-0.005039638215133627,-62.11634025138848,-57.36626717334112,-2.002338497515346
1699735109,8.9958165647,2.4741785684,2.5292134882000004,0.00916297857297023,-0.04612032548395016,-0.01038470904936626,-62.130955860859395,-57.51242326805027,-1.7977199649225375
1699735109,8.9958165647,2.4741785684,2.5292134882000004,0.00916297857297023,-0.04612032548395016,-0.01038470904936626,-61.531715872551885,-57.36626717334112,-2.8938906752411575
1699735109,9.1142612834,2.4179472373,2.7936203855,0.008093964406123703,-0.05543602036646989,-0.006108652381980153,-62.087109032446655,-57.39549839228296,-1.9146448406898566
1699735109,9.1142612834,2.4179472373,2.7936203855,0.008093964406123703,-0.05543602036646989,-0.006108652381980153,-61.61940952937738,-57.5270388775212,-2.981584332066647
1699735109,9.1716890258,2.6309084487,3.1381868399,0.04153883619746504,-0.050396382151336266,0.001832595714594046,-61.92633732826659,-57.410114001753875,-2.3238819058754747
1699735109,9.1716890258,2.6309084487,3.1381868399,0.04153883619746504,-0.050396382151336266,0.001832595714594046,-60.99093832212803,-57.64396375328851,-2.133878982753581
1699735109,9.0987079365,2.6189443356999997,3.11066938,0.04123340357836603,-0.04810563750809371,-0.00198531202414355,-61.5463314820228,-57.234726688102896,-2.119263373282666
1699735109,9.0987079365,2.6189443356999997,3.11066938,0.04123340357836603,-0.04810563750809371,-0.00198531202414355,-61.575562700964625,-57.044723764981,-2.3238819058754747
1699735109,8.975477572600001,2.6512474407999997,2.8319055471,0.002748893571891069,-0.049632800603588746,-0.001069014166846527,-61.78018123355744,-57.29318912598656,-3.010815551008477
1699735109,8.975477572600001,2.6512474407999997,2.8319055471,0.002748893571891069,-0.049632800603588746,-0.001069014166846527,-61.72171879567377,-57.24934229757381,-2.9231218941829873
1699735109,8.9934237421,2.6368905052,2.656033086,-0.007635815477475192,-0.049174651674940235,-0.0039706240482871,-61.22478807366267,-57.410114001753875,-2.119263373282666
1699735109,8.9934237421,2.6368905052,2.656033086,-0.007635815477475192,-0.049174651674940235,-0.0039706240482871,-61.2540192926045,-57.32242034492838,-2.0315697164571764
1699735109,9.1334038642,2.4215364712,2.6608187311999996,-0.0015271630954950383,-0.049938233222687756,-0.012828170002158322,-61.21017246419176,-57.46857643963753,-2.7038877521192632
1699735109,9.1334038642,2.4215364712,2.6608187311999996,-0.0015271630954950383,-0.049938233222687756,-0.012828170002158322,-61.13709441683718,-57.27857351651564,-2.791581408944753
1699735109,9.1692962032,2.2995025186,2.8019952646,-0.00992656012071775,-0.05726861608106394,-0.001832595714594046,-61.5463314820228,-57.556270096463024,-3.2008184741303713
1699735109,9.1692962032,2.2995025186,2.8019952646,-0.00992656012071775,-0.05726861608106394,-0.001832595714594046,-61.29786612101724,-57.410114001753875,-2.835428237357498
1699735109,9.0987079365,2.6356940939,2.931207685,0.005955936072430649,-0.0478002048889947,0.020922134408282025,-61.5463314820228,-57.51242326805027,-2.8938906752411575
1699735109,9.0987079365,2.6356940939,2.931207685,0.005955936072430649,-0.0478002048889947,0.020922134408282025,-61.59017831043555,-56.8401052323882,-3.054662379421222
1699735109,9.2027957196,2.7146572396999997,2.9036902251,0.02580905631386615,-0.027947084647559205,0.022907446432425576,-61.8386436714411,-57.5270388775212,-2.6746565331774335
1699735109,9.2027957196,2.7146572396999997,2.9036902251,0.02580905631386615,-0.027947084647559205,0.022907446432425576,-61.69248757673195,-57.351651563870206,-2.8061970184156677
1699735109,9.1992064857,2.5028924396,2.8247270792999997,0.019089538693687978,-0.02901609881440573,0.01557706357404939,-60.9617071031862,-57.27857351651564,-2.4700380005846245
1699735109,9.1992064857,2.5028924396,2.8247270792999997,0.019089538693687978,-0.02901609881440573,0.02183843226557905,-61.429406606255476,-57.3370359543993,-2.4700380005846245
1699735109,8.9659062822,2.6392833278,2.8199414341,0.01679879405044542,-0.030695978219450273,0.02183843226557905,-61.72171879567377,-57.42472961122479,-2.820812627886583
1699735109,8.9659062822,2.6392833278,2.8199414341,-0.0030543261909900766,-0.04214970143566306,0.012064588454410803,-60.9617071031862,-57.68781058170126,-2.820812627886583
1699735109,8.889335959,2.5938196984,2.7194428849,-0.0030543261909900766,-0.04214970143566306,0.012064588454410803,-61.47325343466823,-57.36626717334112,-2.8938906752411575
1699735109,8.889335959,2.5938196984,2.7194428849,-0.02901609881440573,-0.058795779176558975,-0.00198531202414355,-61.70710318620286,-57.46857643963753,-2.981584332066647
1699735109,8.949156524,2.5387847786,2.6428725617,-0.02901609881440573,-0.058795779176558975,-0.00198531202414355,-61.72171879567377,-57.11780181233558,-3.3615901783104354
1699735109,8.949156524,2.5387847786,2.6428725617,-0.03283400655314333,-0.06688974358268268,-0.010231992739816757,-61.8386436714411,-56.854720841859105,-3.4200526161940954
1699735109,9.044869428,2.5363919559999997,2.6464617955999996,-0.03283400655314333,-0.06688974358268268,-0.010231992739816757,-61.429406606255476,-57.43934522069571,-3.7854428529669684
1699735109,9.1381895094,2.6141586905,2.7481567560999998,0.002138028333693054,-0.057879481319261954,-0.009773843811168246,-62.014030985092084,-57.453960830166615,-2.835428237357498
1699735109,9.1381895094,2.6141586905,2.7481567560999998,0.002138028333693054,-0.057879481319261954,-0.009773843811168246,-61.94095293773751,-57.351651563870206,-3.1862028646594562
1699735109,9.2434737038,2.6512474407999997,2.7924239742,0.04153883619746504,-0.04169155250701455,-0.010079276430267254,-62.14557147033031,-57.585501315404855,-3.303127740426776
1699735109,9.2434737038,2.6512474407999997,2.7924239742,0.04153883619746504,-0.04169155250701455,-0.010079276430267254,-61.66325635779012,-57.65857936275943,-2.6015784858228588
1699735109,9.2219383004,2.4442682859,2.787638329,0.03466660226773737,-0.03955352417332149,-0.01114829059711378,-61.502484653610054,-57.39549839228296,-3.010815551008477
1699735109,9.2219383004,2.4442682859,2.787638329,0.03466660226773737,-0.03955352417332149,-0.01114829059711378,-62.087109032446655,-57.3370359543993,-3.0254311604793918
1699735109,9.108279226899999,2.3928226,2.739781877,0.006261368691529657,-0.04657847441259867,0.011759155835311794,-61.531715872551885,-57.10318620286466,-2.747734580532008
1699735109,9.108279226899999,2.3928226,2.739781877,0.006261368691529657,-0.04657847441259867,0.011759155835311794,-62.087109032446655,-56.986261327097345,-3.1862028646594562
1699735109,8.9718883387,2.7457639335,2.6524438520999998,0.017409659288643436,-0.050549098460885775,0.028405233576207712,-61.66325635779012,-57.19087985969015,-2.6892721426483486
1699735109,8.9718883387,2.7457639335,2.6524438520999998,0.017409659288643436,-0.050549098460885775,0.028405233576207712,-61.82402806197018,-57.29318912598656,-2.7038877521192632
1699735109,8.9994057986,2.6596223199,2.7302105866,0.05451972250917286,-0.04046982203061852,0.018936822384138473,-61.7363344051447,-57.000876936568254,-2.9085062847120726
1699735110,8.9994057986,2.6596223199,2.7302105866,0.05451972250917286,-0.04046982203061852,0.018936822384138473,-61.70710318620286,-57.132417421806494,-2.4261911721718796
1699735110,9.038887371500001,2.4430718746,2.8666014748,0.04627304179349966,-0.03481931857728687,0.00992656012071775,-61.56094709149371,-57.8193510669395,-3.1862028646594562
1699735110,9.038887371500001,2.4430718746,2.8666014748,0.04627304179349966,-0.03481931857728687,0.00992656012071775,-61.80941245249927,-57.351651563870206,-3.2008184741303713
1699735110,9.0676012427,2.5615165933,2.787638329,0.022602013813326566,-0.02871066619530672,0.011606439525762293,-61.88249049985385,-57.74627301958491,-3.171587255188541
1699735110,9.0676012427,2.5615165933,2.787638329,0.022602013813326566,-0.02871066619530672,0.011606439525762293,-61.86787489038292,-57.044723764981,-2.7769657994738384
1699735110,9.131011041599999,2.5328027221,2.6189443356999997,0.012828170002158322,-0.02871066619530672,0.005345070834232635,-62.057877813504824,-57.483192049108446,-2.7185033615901784
1699735110,9.131011041599999,2.5328027221,2.6189443356999997,0.012828170002158322,-0.02871066619530672,0.005345070834232635,-62.2332651271558,-56.88395206080094,-3.8292896813797133
1699735110,9.068797654,2.452643165,2.6991038927999997,0.036041049053682904,-0.035430183815484885,0.0030543261909900766,-62.2332651271558,-56.88395206080094,-3.1423560362467113
1699735110,9.068797654,2.452643165,2.6991038927999997,0.036041049053682904,-0.035430183815484885,0.0030543261909900766,-62.291727565039466,-56.89856767027185,-3.536977491961415
1699735110,9.0364945489,2.416750826,2.8630122409,0.06475171524898962,-0.040317105721069016,0.009468411192069237,-62.057877813504824,-56.8401052323882,-3.6392867582578194
1699735110,9.0364945489,2.416750826,2.8630122409,0.06475171524898962,-0.040317105721069016,0.009468411192069237,-61.97018415667933,-57.1470330312774,-3.317743349897691
1699735110,8.9802632178,2.5986053435999996,2.9587251449000003,0.059101211795657985,-0.04871650274629172,0.009773843811168246,-62.42326805027769,-57.01549254603917,-3.507746273019585
1699735110,8.9802632178,2.5986053435999996,2.9587251449000003,0.059101211795657985,-0.04871650274629172,-0.010231992739816757,-62.087109032446655,-56.67933352820813,-3.8877521192633733
1699735110,9.0532443071,2.6632115538,2.9048866364,0.022143864884678056,-0.06154467274845005,-0.010231992739816757,-62.18941829874306,-57.05933937445191,-4.0777550423852675
1699735110,9.0532443071,2.6632115538,2.9048866364,-0.01710422666954443,-0.07269296334556383,-0.028557949885757217,-61.8386436714411,-56.88395206080094,-3.712364805612394
1699735110,9.121439751199999,2.4358934068,2.8689942974,-0.01710422666954443,-0.07269296334556383,-0.028557949885757217,-61.72171879567377,-56.986261327097345,-2.8938906752411575
1699735110,9.121439751199999,2.4358934068,2.8689942974,0.000916297857297023,-0.057879481319261954,-0.014966198335851376,-61.88249049985385,-57.49780765857936,-3.653902367728734
1699735110,9.1381895094,2.4299113503,2.8893332895,0.000916297857297023,-0.057879481319261954,-0.014966198335851376,-62.467114878690445,-57.27857351651564,-3.4054370067231803
1699735110,9.1381895094,2.4299113503,2.8893332895,0.030848694528999777,-0.036499197982331415,-0.0015271630954950383,-61.89710610932476,-57.132417421806494,-3.58082432037416
1699735110,9.236295236,2.4454646972,2.7732813934,0.030848694528999777,-0.036499197982331415,-0.0015271630954950383,-61.94095293773751,-57.46857643963753,-3.449283835135925
1699735110,9.2757768089,2.2767707039,2.7062823606,0.04550946024575214,-0.026114488932965158,0.0007635815477475192,-61.82402806197018,-57.01549254603917,-3.4638994446068403
1699735110,9.2757768089,2.2767707039,2.7062823606,0.04550946024575214,-0.026114488932965158,0.0007635815477475192,-62.087109032446655,-57.54165448699211,-4.165448699210757
1699735110,9.165706969299999,2.261217357,2.7230321187999995,0.03924809155422248,-0.026572637861613665,0.019394971312786988,-62.014030985092084,-57.39549839228296,-3.712364805612394
1699735110,9.165706969299999,2.261217357,2.7230321187999995,0.03924809155422248,-0.026572637861613665,0.019394971312786988,-61.94095293773751,-57.234726688102896,-3.1862028646594562
1699735110,8.9455672901,2.7541388126,2.7529424013,0.02871066619530672,-0.038026361077826455,0.03313943917224233,-61.531715872551885,-57.27857351651564,-7.395498392282958
1699735110,8.9455672901,2.7541388126,2.7529424013,0.02871066619530672,-0.038026361077826455,0.03313943917224233,-61.61940952937738,-57.24934229757381,-3.6831335866705643
1699735110,9.0783689444,2.7960132080999998,2.7840490951,0.04306599929296008,-0.04352414822160859,0.005345070834232635,-62.20403390821397,-57.46857643963753,-3.2008184741303713
1699735110,9.0783689444,2.7960132080999998,2.7840490951,0.04306599929296008,-0.04352414822160859,0.005345070834232635,-62.18941829874306,-57.43934522069571,-3.9023677287342884
1699735110,9.1896351953,2.2887348169,2.8953153460000003,0.04169155250701455,-0.04871650274629172,-0.018173240836390957,-61.76556562408653,-57.19087985969015,-3.390821397252265
1699735110,9.1896351953,2.2887348169,2.8953153460000003,0.04169155250701455,-0.04871650274629172,-0.018173240836390957,-61.72171879567377,-57.965507161648645,-3.1277404267757962
1699735110,9.1070828156,2.2911276395,2.9228328059,0.037262779530078935,-0.038026361077826455,0.00916297857297023,-61.78018123355744,-57.87781350482315,-3.2008184741303713
1699735110,9.1070828156,2.2911276395,2.9228328059,0.037262779530078935,-0.038026361077826455,0.00916297857297023,-61.97018415667933,-57.073954983922825,-3.536977491961415
1699735110,9.0281196698,2.6273192148,2.7948167968,0.061697389057999555,-0.02153299964648004,0.028557949885757217,-61.97018415667933,-57.30780473545747,-2.5869628763519437
