timestamp,acc-x,acc-y,acc-z,gyr-x,gyr-y,gyr-z,mag-x,mag-y,mag-z
1699735369,9.140582332,2.0315063874,3.0029923629999997,0.0006108652381980154,-0.04810563750809371,-0.009468411192069237,-62.83250511546331,-53.17158725518855,-1.3300204618532592
1699735369,9.140582332,2.0315063874,3.0029923629999997,0.0006108652381980154,-0.04810563750809371,-0.009468411192069237,-62.93481438175972,-53.580824320374155,-1.2569424144986847
1699735369,9.1429751546,2.0279171535,3.0245277664,-0.005650503453331642,-0.05100724738953428,-0.012828170002158322,-62.64250219234142,-53.18620286465946,-0.7015492546039169
1699735369,9.1429751546,2.0279171535,3.0245277664,-0.005650503453331642,-0.05100724738953428,-0.012828170002158322,-62.467114878690445,-53.610055539315994,-1.198479976615025
1699735369,9.1070828156,2.0207386857,3.098705267,0.01038470904936626,-0.049174651674940235,-0.009621127501618741,-63.0078924291143,-53.59543992984508,-0.24846536100555394
1699735369,9.1070828156,2.0207386857,3.098705267,0.01038470904936626,-0.049174651674940235,-0.009621127501618741,-62.65711780181233,-53.84390529085062,-0.6577024261911721
1699735369,9.1142612834,2.0087745727,3.0879375653000003,0.024129176908821607,-0.0436768645311581,-0.006414085001079161,-62.70096463022507,-53.77082724349606,-1.0084770534931307
1699735369,9.1142612834,2.0087745727,3.0879375653000003,0.024129176908821607,-0.0436768645311581,-0.006414085001079161,-62.291727565039466,-53.39082139725227,-0.7307804735457468
1699735369,9.1908316066,2.0231315083,3.0496524037,0.014813482026301871,-0.04673119072214818,-0.009010262263420726,-62.80327389652148,-53.71236480561239,-0.2630809704764689
1699735369,9.1908316066,2.0231315083,3.0496524037,0.018784106074588972,-0.0517708289372818,-0.0070249502392771765,-62.788658287050566,-53.85852090032154,0.1607717041800643
1699735369,9.1944208405,2.0650059038,3.0412775246,0.018784106074588972,-0.0517708289372818,-0.0070249502392771765,-62.540192926045016,-53.63928675825782,-0.5261619409529378
1699735369,9.1944208405,2.0650059038,3.0412775246,0.022143864884678056,-0.05451972250917286,-0.006261368691529657,-62.97866121017246,-53.5223618824905,-0.7161648640748319
1699735369,9.1346002755,2.0350956213,3.0029923629999997,0.022143864884678056,-0.05451972250917286,-0.006261368691529657,-63.24174218064893,-54.019292604501615,-0.8038585209003215
1699735369,9.1585285015,1.9956140484,3.1728827676,0.039706240482871,-0.059559360724306495,-0.004276056667386108,-62.890967553346975,-53.536977491961416,-0.6138555977784274
1699735369,9.1585285015,1.9956140484,3.1728827676,0.039706240482871,-0.059559360724306495,-0.004276056667386108,-62.58403975445776,-53.82928968137971,-0.8038585209003215
1699735369,9.1669033806,2.0255243308999997,3.2398818003999996,0.03787364476827695,-0.06215553798664806,-0.002901609881440573,-62.467114878690445,-53.56620871090324,-1.3446360713241743
1699735369,9.1669033806,2.0255243308999997,3.2398818003999996,0.03787364476827695,-0.06215553798664806,-0.002901609881440573,-62.20403390821397,-53.75621163402514,-1.4615609470914936
1699735369,9.1238325738,2.0685951377,3.2578279699,0.019089538693687978,-0.06704245989223219,-0.0079412480965742,-62.87635194387606,-53.82928968137971,-1.198479976615025
1699735369,9.1238325738,2.0685951377,3.2578279699,0.019089538693687978,-0.06704245989223219,-0.0079412480965742,-62.94942999123063,-53.683133586670564,-0.7600116924875767
1699735369,9.0460658393,2.0709879603,3.1884361145,0.006108652381980153,-0.0632245521534946,-0.009468411192069237,-62.75942706810874,-53.65390236772873,-1.7392575270388775
1699735369,9.0460658393,2.0709879603,3.1884361145,0.006108652381980153,-0.0632245521534946,-0.009468411192069237,-63.25635779011984,-53.90236772873429,-0.964630225080386
1699735369,9.095118702599999,2.0446669117,3.2171499857,-0.004276056667386108,-0.05528330405692039,-0.007788531787024695,-62.80327389652148,-53.93159894767612,-0.7746273019584917
1699735369,9.095118702599999,2.0446669117,3.2171499857,-0.004276056667386108,-0.05528330405692039,-0.007788531787024695,-62.408652440806776,-53.916983338205206,-0.8477053493130663
1699735369,9.162117735399999,2.0781664281,3.1956145822999997,-0.01435533309765336,-0.05207626155638081,-0.011759155835311794,-63.022508038585215,-53.59543992984508,-0.3215434083601286
1699735369,9.162117735399999,2.0781664281,3.1956145822999997,-0.01435533309765336,-0.05207626155638081,-0.011759155835311794,-62.437883659748614,-53.785442852966966,-0.1607717041800643
1699735369,9.0711904766,1.9836499354,3.0747770410000004,-0.048869219055841226,-0.05803219762881146,-0.01389718416900485,-62.554808535515924,-53.960830166617946,-0.8038585209003215
1699735369,9.0711904766,1.9836499354,3.0747770410000004,-0.048869219055841226,-0.05803219762881146,-0.01389718416900485,-62.80327389652148,-53.8146740719088,-0.7307804735457468
1699735369,9.0831545896,2.0267207422,3.0544380489000003,-0.059864793343405505,-0.06979135346412325,-0.00519235452468313,-62.64250219234142,-54.2092955276235,-0.4969307220111079
1699735369,9.0831545896,2.0267207422,3.0544380489000003,-0.059864793343405505,-0.06979135346412325,-0.00519235452468313,-62.788658287050566,-53.90236772873429,-0.467699503069278
1699735369,9.0628155975,2.285145583,3.0185457098999997,-0.04092797095926703,-0.0681114740590787,-0.006566801310628665,-62.613270973399594,-53.72698041508331,-1.2715580239695994
1699735369,9.0628155975,2.285145583,3.0185457098999997,-0.03115412714809878,-0.058643062867009474,-0.02626720524251466,-62.73019584916691,-53.80005846243788,-0.8915521777258111
1699735369,9.0532443071,2.1308085253,2.9108686929000003,-0.03115412714809878,-0.058643062867009474,-0.02626720524251466,-63.110201695410694,-53.63928675825782,-0.8769365682548963
1699735369,9.1142612834,1.9740786449999999,2.8486553053,-0.049632800603588746,-0.05253441048502932,-0.04046982203061852,-62.715580239696,-53.42005261619409,-0.9207833966676411
1699735369,9.1142612834,1.9740786449999999,2.8486553053,-0.049632800603588746,-0.05253441048502932,-0.04046982203061852,-62.77404267757966,-53.66851797719965,-0.5992399883075125
1699735369,9.1716890258,2.0542382021,2.7433711108999996,-0.030390545600351263,-0.038331793696925465,-0.026878070480712675,-62.56942414498684,-53.82928968137971,-1.3300204618532592
1699735369,9.1716890258,2.0542382021,2.7433711108999996,-0.029168815123955232,-0.04276056667386108,-0.02229658119422756,-62.467114878690445,-53.34697456883952,-1.1107863197895351
1699735369,9.242277292499999,1.9357934834,2.6237299809,-0.029168815123955232,-0.04276056667386108,-0.02229658119422756,-62.39403683133587,-53.99006138555977,-0.8915521777258111
1699735369,9.1573320902,2.0757736055,2.7672993369,-0.0004581489286485115,-0.06276640322484607,-0.005650503453331642,-62.62788658287051,-53.82928968137971,-0.7453960830166617
1699735369,9.1573320902,2.0757736055,2.7672993369,0.04871650274629172,-0.061850105367549056,0.015271630954950384,-62.087109032446655,-53.82928968137971,-1.0815551008477053
1699735369,9.1274218077,2.1738793321000003,2.9036902251,0.04871650274629172,-0.061850105367549056,0.015271630954950384,-62.130955860859395,-53.99006138555977,-1.3884828997369192
1699735369,9.1453679772,2.2229321954,2.9036902251,0.06765332513043021,-0.05131268000863329,0.012980886311707827,-62.554808535515924,-53.74159602455423,-0.9938614440222158
1699735369,9.1453679772,2.2229321954,2.9036902251,0.06765332513043021,-0.05131268000863329,0.012980886311707827,-62.75942706810874,-53.84390529085062,-2.104647763811751
1699735369,9.164510558,2.0673987264,2.9958138952,0.06719517620178168,-0.046883907031697675,0.0022907446432425577,-62.94942999123063,-53.80005846243788,-0.42385267465653315
1699735369,9.164510558,2.0673987264,2.9958138952,0.06719517620178168,-0.046883907031697675,0.0022907446432425577,-63.022508038585215,-53.47851505407776,-1.169248757673195
1699735369,9.1369930981,2.1008982428,3.0675985732,0.04413501345980661,-0.04352414822160859,-0.000916297857297023,-62.93481438175972,-54.106986261327094,-1.3884828997369192
1699735369,9.1369930981,2.1008982428,3.0675985732,0.04413501345980661,-0.04352414822160859,-0.000916297857297023,-63.0078924291143,-53.62467114878691,-0.6723180356620871
1699735369,9.140582332,2.0303099761,3.0675985732,0.05390885727097486,-0.036041049053682904,-0.002596177262341565,-62.58403975445776,-53.97544577608886,-1.3446360713241743
1699735369,9.140582332,2.0303099761,3.0675985732,0.04260785036431157,-0.04352414822160859,-0.002596177262341565,-62.45249926921953,-53.887752119263375,-1.0815551008477053
1699735369,9.0747797105,1.9298114269,3.0281170003,0.04260785036431157,-0.04352414822160859,-0.002596177262341565,-62.83250511546331,-53.85852090032154,-0.029231218941829874
1699735369,9.0747797105,1.9298114269,3.0281170003,0.03405573702953935,-0.05421428989007387,0.0035124751196385882,-62.80327389652148,-53.93159894767612,-0.9207833966676411
1699735369,9.0580299523,2.0638094925,3.0053851856000002,0.03405573702953935,-0.05421428989007387,0.0035124751196385882,-62.97866121017246,-53.5223618824905,-0.8184741303712365
1699735369,9.0580299523,2.0638094925,3.0269205889999995,0.0158824961931484,-0.058337630247910464,-0.002748893571891069,-62.087109032446655,-54.0046769950307,-1.4469453376205788
1699735369,9.1633141467,2.0626130812,3.0269205889999995,0.0158824961931484,-0.058337630247910464,-0.002748893571891069,-62.64250219234142,-54.106986261327094,-1.2569424144986847
1699735369,9.1680997919,1.8975083218,3.1764720014999996,0.011911872144861299,-0.059101211795657985,-0.009315694882519734,-62.49634609763227,-54.019292604501615,-0.5846243788365975
1699735369,9.1680997919,1.8975083218,3.1764720014999996,0.011911872144861299,-0.059101211795657985,-0.009315694882519734,-62.64250219234142,-53.75621163402514,-1.6807950891552177
1699735369,9.1381895094,1.9633109433,3.242274623,0.024129176908821607,-0.04444044607890562,0.0007635815477475192,-62.408652440806776,-54.063139432914355,-1.15463314820228
1699735369,9.1381895094,1.9633109433,3.242274623,0.024129176908821607,-0.04444044607890562,0.0007635815477475192,-62.67173341128325,-54.106986261327094,-0.482315112540193
1699735369,9.1704926145,2.0745771942,3.0915267992,0.02550362369476714,-0.03023782929080176,0.0013744467859455344,-62.510961707103185,-53.97544577608886,-1.2277111955568547
1699735369,9.1704926145,2.0745771942,3.0915267992,0.02550362369476714,-0.03023782929080176,0.0013744467859455344,-62.93481438175972,-53.82928968137971,-1.140017538731365
1699735369,9.236295236,1.9704894111,2.9802605483,0.0160352125026979,-0.03466660226773737,-0.00992656012071775,-62.75942706810874,-53.887752119263375,-1.636948260742473
1699735369,9.236295236,1.9704894111,2.9802605483,0.0160352125026979,-0.03466660226773737,-0.00992656012071775,-62.67173341128325,-54.0046769950307,-1.0377082724349607
1699735369,9.2087777761,1.9345970721,2.9874390161,-0.00015271630954950385,-0.05192354524683131,-0.013439035240356337,-63.19789535223619,-53.887752119263375,-0.964630225080386
1699735369,9.2087777761,1.9345970721,2.9874390161,-0.00015271630954950385,-0.05192354524683131,-0.013439035240356337,-62.64250219234142,-53.785442852966966,-1.0230926629640456
1699735369,9.1848495501,1.9752750562999999,3.1154550251999997,0.006566801310628665,-0.062002821677098564,-0.009468411192069237,-62.510961707103185,-54.15083308973985,-0.8038585209003215
1699735369,9.1848495501,1.9752750562999999,3.1154550251999997,0.006566801310628665,-0.062002821677098564,-0.009468411192069237,-62.73019584916691,-53.8146740719088,-0.482315112540193
1699735369,9.1872423727,1.9788642901999998,3.1405796625,0.009315694882519734,-0.058948495486108476,-0.00992656012071775,-63.35866705641625,-53.93159894767612,-1.9438760596316866
1699735369,9.1872423727,1.9788642901999998,3.1405796625,0.009315694882519734,-0.058948495486108476,-0.009315694882519734,-62.67173341128325,-54.04852382344344,-1.5638702133878981
1699735369,9.0879402348,1.8819549749,2.9886354273999998,0.006108652381980153,-0.05253441048502932,-0.009315694882519734,-62.49634609763227,-53.42005261619409,-0.6577024261911721
1699735369,9.0879402348,1.8819549749,2.9886354273999998,0.01389718416900485,-0.049938233222687756,0.0016798794050445422,-62.77404267757966,-53.44928383513593,-1.4469453376205788
1699735369,9.038887371500001,1.9477575963999998,2.9288148624,0.01389718416900485,-0.049938233222687756,0.0016798794050445422,-62.49634609763227,-53.580824320374155,-0.5992399883075125
1699735369,9.038887371500001,1.9477575963999998,3.0197421212,0.04810563750809371,-0.047342055960346185,0.005345070834232635,-62.437883659748614,-53.77082724349606,-0.6577024261911721
1699735369,9.0939222913,2.0207386857,3.0197421212,0.04810563750809371,-0.047342055960346185,0.005345070834232635,-62.715580239696,-53.69774919614147,-1.4323297281496639
1699735369,9.1369930981,2.0303099761,3.0783662749,0.05803219762881146,-0.04627304179349966,-0.0013744467859455344,-63.0078924291143,-53.083893598363055,-1.0377082724349607
1699735369,9.1369930981,2.0303099761,3.0783662749,0.05803219762881146,-0.04627304179349966,-0.0013744467859455344,-63.09558608593978,-53.43466822566501,-1.6954106986261326
1699735369,9.2709911637,1.9657037659,3.0975088557,0.02153299964648004,-0.05619960191421741,-0.01313360262125733,-62.24788073662671,-54.019292604501615,-0.7453960830166617
1699735369,9.2709911637,1.9657037659,3.0975088557,0.02153299964648004,-0.05619960191421741,-0.01313360262125733,-62.56942414498684,-53.37620578778135,-0.6577024261911721
1699735369,9.2817588654,1.9716858223999998,3.1537401868,0.027183503099811684,-0.05528330405692039,-0.005345070834232635,-62.437883659748614,-53.77082724349606,-1.2423268050277696
1699735369,9.2817588654,1.9716858223999998,3.1537401868,0.027183503099811684,-0.05528330405692039,-0.005345070834232635,-62.93481438175972,-53.8146740719088,-0.950014615609471
1699735369,9.152546445,2.0315063874,3.0089744195,0.03695734691097993,-0.04046982203061852,0.009010262263420726,-62.80327389652148,-53.361590178310436,-0.482315112540193
1699735369,9.152546445,2.0315063874,3.0089744195,0.03695734691097993,-0.04046982203061852,0.009010262263420726,-62.59865536392868,-53.75621163402514,-0.24846536100555394
1699735369,9.0436730167,2.0231315083,2.9467610319,0.047342055960346185,-0.036041049053682904,0.006108652381980153,-62.27711195556854,-53.44928383513593,-0.6138555977784274
1699735369,9.0436730167,2.0231315083,2.9467610319,0.047342055960346185,-0.036041049053682904,0.006108652381980153,-62.64250219234142,-53.39082139725227,-0.6284712072493424
1699735369,9.0652084201,1.9645073545999998,3.0664021618999997,0.04413501345980661,-0.04321871560250958,-0.002901609881440573,-62.56942414498684,-53.90236772873429,-0.7600116924875767
1699735369,9.0652084201,1.9645073545999998,3.0664021618999997,0.04413501345980661,-0.04321871560250958,-0.002901609881440573,-62.335574393452205,-54.22391113709442,-1.9731072785735166
1699735369,9.1477607998,2.0386848552,3.2362925665,0.017256942979093935,-0.05711589977151443,-0.004886921905584123,-62.27711195556854,-53.71236480561239,-0.6723180356620871
1699735369,9.1477607998,2.0386848552,3.2362925665,0.017256942979093935,-0.05711589977151443,-0.004886921905584123,-62.408652440806776,-53.887752119263375,-1.169248757673195
1699735369,9.140582332,2.1427726383,3.1369904286000003,-0.012980886311707827,-0.061086523819801536,-0.0039706240482871,-62.993276819643384,-54.41391406021631,-1.15463314820228
1699735369,9.140582332,2.1427726383,3.1369904286000003,-0.012980886311707827,-0.061086523819801536,-0.0039706240482871,-63.168664133294364,-53.610055539315994,-1.0377082724349607
1699735369,9.1429751546,2.081755662,2.9012974024999996,-0.03955352417332149,-0.058948495486108476,-0.011759155835311794,-62.67173341128325,-53.84390529085062,-1.2423268050277696
1699735369,9.1429751546,2.081755662,2.9012974024999996,-0.03955352417332149,-0.058948495486108476,-0.011759155835311794,-62.83250511546331,-54.32622040339082,-1.15463314820228
1699735370,9.1334038642,1.9537396529,2.7672993369,-0.024587325837470118,-0.05451972250917286,-0.01511891464540088,-62.77404267757966,-53.69774919614147,-0.45308389359836304
1699735370,9.1334038642,1.9537396529,2.7672993369,-0.024587325837470118,-0.05451972250917286,-0.01511891464540088,-63.2125109617071,-53.960830166617946,-0.8915521777258111
1699735370,9.0699940653,2.0255243308999997,2.8965117573,0.02076941809873252,-0.04657847441259867,-0.002748893571891069,-62.39403683133587,-54.0046769950307,-1.0815551008477053
1699735370,9.0699940653,2.0255243308999997,2.8965117573,0.02076941809873252,-0.0478002048889947,-0.006719517620178169,-62.130955860859395,-54.0046769950307,-0.6430868167202572
1699735370,9.0999043478,2.1332013479,3.0963124444,0.05070181477043527,-0.0478002048889947,-0.006719517620178169,-62.26249634609763,-53.99006138555977,-1.7100263080970477
1699735370,9.1968136631,2.0781664281,3.1058837348,0.030543261909900768,-0.056505034533316414,-0.025198191075668133,-62.64250219234142,-53.74159602455423,-0.38000584624378836
1699735370,9.1968136631,2.0781664281,3.1058837348,0.030543261909900768,-0.056505034533316414,-0.025198191075668133,-62.890967553346975,-54.03390821397252,-1.0523238819058756
1699735370,9.232706002099999,1.9633109433,2.9898318387,-0.019547687622336492,-0.06887505560682623,-0.03497203488683638,-62.70096463022507,-53.5223618824905,-0.8477053493130663
1699735370,9.232706002099999,1.9633109433,2.9898318387,-0.019547687622336492,-0.06887505560682623,-0.03497203488683638,-62.788658287050566,-54.03390821397252,-0.7307804735457468
1699735370,9.0867438235,2.0494525569,2.9539394997,-0.04108068726881653,-0.07269296334556383,-0.020922134408282025,-62.49634609763227,-54.19467991815259,-0.7453960830166617
1699735370,9.0867438235,2.0494525569,2.9539394997,-0.04108068726881653,-0.07269296334556383,-0.020922134408282025,-62.58403975445776,-54.25314235603624,-1.198479976615025
1699735370,9.096315113900001,2.141576227,2.9934210726,-0.0316122760767473,-0.06017022596250451,-0.014508049407202865,-62.67173341128325,-53.90236772873429,-2.528500438468284
1699735370,9.096315113900001,2.141576227,2.9934210726,-0.0316122760767473,-0.06017022596250451,-0.014508049407202865,-62.24788073662671,-54.23852674656533,-0.950014615609471
1699735370,9.1561356789,2.1200408236,2.9611179675,-0.02199114857512855,-0.04352414822160859,-0.028252517266658207,-62.291727565039466,-54.18006430868167,-0.6284712072493424
1699735370,9.1561356789,2.1200408236,2.9611179675,-0.02199114857512855,-0.04352414822160859,-0.028252517266658207,-62.56942414498684,-54.106986261327094,-1.0961707103186205
1699735370,9.2386880586,1.8891334427000002,2.9324040963,-0.010995574287564275,-0.03390302071998985,-0.04138611988791554,-62.42326805027769,-53.85852090032154,-1.2715580239695994
1699735370,9.2386880586,1.8891334427000002,2.9324040963,-0.010995574287564275,-0.03390302071998985,-0.04138611988791554,-62.45249926921953,-54.12160187079801,-1.0084770534931307
1699735370,9.2147598326,1.9417755399,2.9276184511,-0.028252517266658207,-0.04337143191205909,-0.028099800957108706,-63.28558900906168,-54.15083308973985,-0.9792458345513008
1699735370,9.2147598326,1.9417755399,2.9276184511,-0.028252517266658207,-0.04337143191205909,-0.028099800957108706,-62.59865536392868,-53.99006138555977,-1.0523238819058756
1699735370,9.1980100744,2.1475582835,2.9383861528,-0.036499197982331415,-0.057879481319261954,-0.014508049407202865,-62.2332651271558,-53.65390236772873,-1.6954106986261326
1699735370,9.1980100744,2.1475582835,2.9383861528,-0.036499197982331415,-0.057879481319261954,-0.014508049407202865,-62.48173048816136,-53.62467114878691,-1.7246419175679626
1699735370,9.165706969299999,2.0973090089,2.8534409504999996,-0.03222314131494531,-0.06047565858160352,-0.015271630954950384,-62.5255773165741,-54.41391406021631,-1.4469453376205788
1699735370,9.165706969299999,2.0973090089,2.8534409504999996,-0.03222314131494531,-0.06047565858160352,-0.015271630954950384,-61.94095293773751,-53.84390529085062,-1.6954106986261326
1699735370,9.1381895094,2.0063817501,2.9060830476999997,0.004123340357836604,-0.05742133239061344,-0.01313360262125733,-62.94942999123063,-53.65390236772873,-1.1838643671441098
1699735370,9.1381895094,2.0063817501,2.9060830476999997,0.004123340357836604,-0.05742133239061344,-0.01313360262125733,-62.788658287050566,-53.610055539315994,-1.3300204618532592
1699735370,9.038887371500001,1.9944176371,3.0532416376,0.04428772976935611,-0.05375614096142535,-0.006108652381980153,-62.715580239696,-54.0046769950307,-0.964630225080386
1699735370,9.038887371500001,1.9944176371,3.0532416376,0.04428772976935611,-0.05375614096142535,-0.006108652381980153,-62.510961707103185,-53.97544577608886,-0.5700087693656825
1699735370,9.037690960199999,2.0662023151,2.9982067177999996,0.029168815123955232,-0.047952921198544204,-0.004581489286485115,-63.066354866997955,-54.22391113709442,-0.9792458345513008
1699735370,9.037690960199999,2.0662023151,2.9982067177999996,0.003665191429188092,-0.049480084294039245,-0.01679879405044542,-61.92633732826659,-54.560070154925455,-1.2569424144986847
1699735370,9.1346002755,2.1607188078,2.9012974024999996,0.003665191429188092,-0.049480084294039245,-0.01679879405044542,-62.26249634609763,-53.94621455714703,-1.5784858228588132
1699735370,9.1346002755,2.1607188078,2.9012974024999996,-0.009010262263420726,-0.05619960191421741,-0.02901609881440573,-62.788658287050566,-53.94621455714703,-0.9792458345513008
1699735370,9.273383986299999,2.0733807828999997,2.8342983697,-0.009010262263420726,-0.05619960191421741,-0.02901609881440573,-62.73019584916691,-54.106986261327094,-1.4907921660333234
1699735370,9.273383986299999,1.9130616687,2.9072794589999997,-0.00198531202414355,-0.0632245521534946,-0.02183843226557905,-62.62788658287051,-53.90236772873429,-1.7246419175679626
1699735370,9.290133744499999,1.9130616687,2.9072794589999997,-0.00198531202414355,-0.0632245521534946,-0.02183843226557905,-61.8386436714411,-54.136217480268925,-2.046185325928091
1699735370,9.1417787433,2.0255243308999997,2.9706892578999997,0.010231992739816757,-0.05742133239061344,0.001832595714594046,-62.59865536392868,-54.5016077170418,-1.3300204618532592
1699735370,9.1417787433,2.0255243308999997,2.9706892578999997,0.010231992739816757,-0.05742133239061344,0.001832595714594046,-62.291727565039466,-54.15083308973985,-1.7246419175679626
1699735370,9.0975115252,2.1367905818,2.9563323222999998,0.0358883327441334,-0.04260785036431157,0.009468411192069237,-62.35019000292312,-53.361590178310436,-1.4615609470914936
1699735370,9.0975115252,2.1367905818,2.9563323222999998,0.0358883327441334,-0.04260785036431157,0.009468411192069237,-62.364805612394036,-53.90236772873429,-1.8415667933352822
1699735370,9.1465643885,2.0015961049,2.8905297008,0.04459316238845512,-0.036499197982331415,-0.00198531202414355,-62.27711195556854,-54.0046769950307,-1.3300204618532592
1699735370,9.1465643885,2.0015961049,2.8905297008,0.04459316238845512,-0.036499197982331415,-0.00198531202414355,-63.13943291435253,-53.916983338205206,-0.8038585209003215
1699735370,9.1393859207,2.0303099761,2.8857440556,0.027183503099811684,-0.04306599929296008,-0.006414085001079161,-62.5255773165741,-53.94621455714703,-1.8123355743934522
1699735370,9.1393859207,2.0303099761,2.8857440556,0.027183503099811684,-0.04306599929296008,-0.006414085001079161,-62.920198772288806,-54.03390821397252,-1.3007892429114294
1699735370,9.1501536224,2.0949161863,3.0053851856000002,0.006108652381980153,-0.057574048700162944,-0.012675453692608817,-62.993276819643384,-53.87313650979246,-0.9938614440222158
1699735370,9.1501536224,2.0949161863,3.0053851856000002,0.006108652381980153,-0.057574048700162944,-0.012675453692608817,-62.83250511546331,-54.04852382344344,-1.5346389944460683
1699735370,9.1118684608,2.081755662,3.1573294206999996,0.005650503453331642,-0.058490346557459966,-0.014966198335851376,-62.77404267757966,-53.66851797719965,-2.2215726395790703
1699735370,9.1118684608,2.081755662,3.1573294206999996,0.005650503453331642,-0.058490346557459966,-0.014966198335851376,-62.74481145863783,-53.87313650979246,-1.666179479684303
1699735370,9.0496550732,1.9944176371,3.2015966388,0.03390302071998985,-0.04214970143566306,-0.0004581489286485115,-62.35019000292312,-54.04852382344344,-1.7831043554516222
1699735370,9.0496550732,1.9944176371,3.2015966388,0.03390302071998985,-0.04214970143566306,-0.0004581489286485115,-62.70096463022507,-53.75621163402514,-2.4115755627009645
1699735370,9.121439751199999,2.0853448959,3.0747770410000004,0.048869219055841226,-0.030848694528999777,0.008552113334772215,-62.97866121017246,-53.59543992984508,-1.5784858228588132
1699735370,9.121439751199999,2.0853448959,3.0747770410000004,0.048869219055841226,-0.030848694528999777,0.008552113334772215,-62.86173633440515,-53.960830166617946,-1.1254019292604502
1699735370,9.2398844699,1.9920248145,2.8953153460000003,0.027947084647559205,-0.04077525464971753,-0.008704829644321718,-63.110201695410694,-53.887752119263375,-0.7015492546039169
1699735370,9.2398844699,1.9920248145,2.8953153460000003,-0.01069014166846527,-0.06047565858160352,-0.016187928812247405,-62.67173341128325,-53.84390529085062,-1.3007892429114294
1699735370,9.176474671,1.9896319919,2.9395825641,-0.01069014166846527,-0.06047565858160352,-0.016187928812247405,-62.75942706810874,-53.916983338205206,-1.7831043554516222
1699735370,9.176474671,1.9896319919,2.9395825641,0.002748893571891069,-0.05406157358052436,-0.009621127501618741,-62.59865536392868,-53.99006138555977,-1.4323297281496639
1699735370,9.1908316066,2.1188444122999996,3.11066938,0.002748893571891069,-0.05406157358052436,-0.009621127501618741,-63.08097047646887,-54.04852382344344,-1.0669394913767904
1699735370,9.1908316066,2.1188444122999996,3.1070801461,0.0317649923862968,-0.037262779530078935,-0.007788531787024695,-62.890967553346975,-54.0046769950307,-0.467699503069278
1699735370,9.2315095908,2.0075781614,3.1070801461,0.0317649923862968,-0.037262779530078935,-0.007788531787024695,-62.65711780181233,-53.71236480561239,-0.8330897398421515
1699735370,9.1441715659,1.9334006607999998,3.0293134116,0.03298672286269283,-0.038789942625573975,-0.0012217304763960308,-63.08097047646887,-54.340836012861736,-1.0961707103186205
1699735370,9.1441715659,1.9334006607999998,3.0293134116,0.03298672286269283,-0.038789942625573975,-0.0012217304763960308,-63.037123648056124,-54.472376498099976,-0.8769365682548963
1699735370,9.1130648721,2.045863323,3.0101708308,0.011759155835311794,-0.049785516913138254,0.004428772976935611,-62.49634609763227,-54.019292604501615,-0.964630225080386
1699735370,9.1130648721,2.045863323,3.0101708308,0.011759155835311794,-0.049785516913138254,0.004428772976935611,-63.24174218064893,-54.25314235603624,-1.15463314820228
1699735370,9.1776710823,2.1188444122999996,2.9515466771,-0.00198531202414355,-0.047342055960346185,-0.001069014166846527,-62.70096463022507,-54.32622040339082,-1.5638702133878981
1699735370,9.1776710823,2.1188444122999996,2.9515466771,-0.00198531202414355,-0.047342055960346185,-0.001069014166846527,-62.5255773165741,-54.04852382344344,-1.636948260742473
1699735370,9.1334038642,2.0231315083,2.9527430884,-0.0007635815477475192,-0.04505131131710363,-0.010842857978014772,-62.70096463022507,-53.960830166617946,-1.826951183864367
1699735370,9.1334038642,2.0231315083,2.9527430884,-0.0007635815477475192,-0.04505131131710363,-0.010842857978014772,-63.2125109617071,-54.25314235603624,-0.950014615609471
1699735370,9.0723868879,1.9429719511999999,3.0604201053999995,0.016646077740895916,-0.044898595007554123,-0.006719517620178169,-62.94942999123063,-54.063139432914355,-1.651563870213388
1699735370,9.0723868879,1.9429719511999999,3.0604201053999995,0.016646077740895916,-0.044898595007554123,-0.006719517620178169,-62.97866121017246,-54.136217480268925,-1.15463314820228
1699735370,9.0771725331,2.0159530405,3.0329026454999997,0.014049900478554353,-0.04673119072214818,-0.0015271630954950383,-62.87635194387606,-53.75621163402514,-0.5700087693656825
1699735370,9.0771725331,2.0159530405,3.0329026454999997,0.014049900478554353,-0.04673119072214818,-0.0015271630954950383,-62.993276819643384,-54.03390821397252,-0.9792458345513008
1699735370,9.1920280179,2.0925233637,2.8797619991,0.009010262263420726,-0.05238169417547982,-0.006108652381980153,-62.540192926045016,-54.384682841274476,-1.5054077755042385
1699735370,9.1920280179,2.0925233637,2.8797619991,0.009010262263420726,-0.05238169417547982,-0.006108652381980153,-62.130955860859395,-53.99006138555977,-1.1254019292604502
1699735370,9.272187575,2.0590238472999998,2.8677978860999995,0.014966198335851376,-0.057574048700162944,-0.012828170002158322,-62.920198772288806,-54.18006430868167,-1.0523238819058756
1699735370,9.272187575,2.0590238472999998,2.8677978860999995,0.014966198335851376,-0.057574048700162944,-0.012828170002158322,-63.066354866997955,-54.16544869921076,-1.5492546039169834
1699735370,9.1896351953,2.0015961049,3.0544380489000003,0.02748893571891069,-0.058795779176558975,-0.00717766654882668,-62.920198772288806,-54.31160479391991,-1.4469453376205788
1699735370,9.1896351953,2.0015961049,3.0544380489000003,0.02748893571891069,-0.048258353817643214,0.005955936072430649,-62.993276819643384,-53.87313650979246,-0.6577024261911721
1699735370,9.0783689444,2.0374884439,3.1369904286000003,0.04138611988791554,-0.048258353817643214,0.005955936072430649,-62.964045600701546,-53.77082724349606,-1.4761765565624088
1699735370,9.0783689444,2.0374884439,3.1369904286000003,0.022143864884678056,-0.04169155250701455,0.002748893571891069,-63.31482022800351,-54.32622040339082,-0.7746273019584917
1699735370,9.0676012427,2.093719775,2.9874390161,0.022143864884678056,-0.04169155250701455,0.002748893571891069,-62.97866121017246,-54.22391113709442,-0.9938614440222158
1699735370,9.0676012427,2.093719775,2.9874390161,-0.002901609881440573,-0.04520402762665313,-0.012370021073509811,-62.87635194387606,-54.296989184449,-1.0815551008477053
1699735370,9.1896351953,2.0554346134,2.8773691765,-0.002901609881440573,-0.04520402762665313,-0.012370021073509811,-62.613270973399594,-53.960830166617946,-1.4615609470914936
1699735370,9.1896351953,2.0554346134,2.8869404668999996,-0.0198531202414355,-0.05604688560466791,-0.023976460599272102,-63.15404852382345,-54.09237065185618,-0.8038585209003215
1699735370,9.2350988247,1.9310078382,2.8869404668999996,-0.0198531202414355,-0.05604688560466791,-0.023976460599272102,-62.686349020754164,-54.58930137386729,-1.6223326512715581
1699735370,9.1633141467,2.0063817501,3.0233313551,-0.014202616788103856,-0.05482515512827187,-0.01114829059711378,-62.64250219234142,-54.19467991815259,-2.0315697164571764
1699735370,9.1633141467,2.0063817501,3.0233313551,-0.014202616788103856,-0.05482515512827187,-0.01114829059711378,-62.59865536392868,-54.282373574978074,-1.4030985092078339
1699735370,9.0975115252,2.1643080417,3.0340990568,-0.002901609881440573,-0.04153883619746504,-0.0022907446432425577,-63.12481730488161,-54.136217480268925,-1.0230926629640456
1699735370,9.0975115252,2.1643080417,3.0340990568,-0.002901609881440573,-0.04153883619746504,-0.0022907446432425577,-62.58403975445776,-54.42852966968723,-1.3446360713241743
1699735370,9.1369930981,2.0889341298,2.9156543381000004,0.010842857978014772,-0.03115412714809878,-0.006261368691529657,-63.15404852382345,-54.03390821397252,-1.5784858228588132
1699735370,9.1369930981,2.0889341298,2.9156543381000004,0.010842857978014772,-0.03115412714809878,-0.006261368691529657,-63.09558608593978,-53.683133586670564,-1.5492546039169834
1699735370,9.2147598326,1.8807585636,2.7864419177,0.00198531202414355,-0.03268129024359382,-0.010842857978014772,-62.93481438175972,-53.87313650979246,-1.1838643671441098
1699735370,9.2147598326,1.8807585636,2.7864419177,0.00198531202414355,-0.03268129024359382,-0.010842857978014772,-62.93481438175972,-53.42005261619409,-1.0377082724349607
1699735370,9.1357966868,1.9597217094,2.8378876036,0.021685715956029545,-0.038484510006474966,0.0033597588100890844,-62.74481145863783,-53.90236772873429,-1.1838643671441098
1699735370,9.1357966868,1.9597217094,2.8378876036,0.021685715956029545,-0.038484510006474966,0.0033597588100890844,-63.168664133294364,-53.916983338205206,-1.3592516807950892
1699735370,9.068797654,2.1511475174,2.8450660714,0.044898595007554123,-0.03665191429188092,0.012064588454410803,-62.73019584916691,-53.85852090032154,-1.198479976615025
1699735370,9.068797654,2.1511475174,2.8450660714,0.044898595007554123,-0.03665191429188092,0.012064588454410803,-62.964045600701546,-53.59543992984508,-0.9792458345513008
1699735370,9.1585285015,2.0985054202,2.9730820805000002,0.04428772976935611,-0.04138611988791554,-0.0032070425005395805,-63.168664133294364,-53.84390529085062,-0.964630225080386
1699735370,9.1585285015,2.0985054202,2.9730820805000002,0.04428772976935611,-0.04138611988791554,-0.0032070425005395805,-63.037123648056124,-53.71236480561239,-1.4469453376205788
1699735370,9.2255275343,1.9082760235,3.0245277664,0.028557949885757217,-0.049938233222687756,-0.014049900478554353,-62.964045600701546,-53.69774919614147,-1.6954106986261326
1699735370,9.2255275343,1.9082760235,3.0245277664,0.028557949885757217,-0.049938233222687756,-0.014049900478554353,-62.58403975445776,-54.16544869921076,-0.5261619409529378
1699735371,9.1130648721,2.021935097,3.0771698636,0.021227567027381034,-0.05375614096142535,-0.002748893571891069,-62.90558316281789,-54.106986261327094,-1.5638702133878981
1699735371,9.1130648721,2.021935097,3.0771698636,0.021227567027381034,-0.05375614096142535,-0.002748893571891069,-62.964045600701546,-53.785442852966966,-1.3592516807950892
1699735371,9.0795653557,2.0961125976,3.0544380489000003,0.011759155835311794,-0.050549098460885775,0.0006108652381980154,-63.05173925752704,-54.019292604501615,-0.8623209587839813
1699735371,9.0987079365,2.0626130812,2.9443682093000003,-0.0007635815477475192,-0.0438295808407076,-0.010995574287564275,-62.715580239696,-54.12160187079801,-0.935399006138556
1699735371,9.0987079365,2.0626130812,2.9443682093000003,-0.0007635815477475192,-0.0438295808407076,-0.010995574287564275,-62.613270973399594,-53.77082724349606,-1.0669394913767904
1699735371,9.1513500337,1.9345970721,2.9300112737000004,0.014508049407202865,-0.038179077387375956,-0.01679879405044542,-62.77404267757966,-54.03390821397252,-0.9207833966676411
1699735371,9.1513500337,1.9345970721,2.9300112737000004,0.014508049407202865,-0.038179077387375956,-0.01679879405044542,-62.73019584916691,-54.063139432914355,-0.6430868167202572
1699735371,9.2398844699,1.9082760235,2.99102825,0.0035124751196385882,-0.04352414822160859,-0.01832595714594046,-62.715580239696,-54.39929845074539,-1.6223326512715581
1699735371,9.2398844699,1.9082760235,2.99102825,0.0035124751196385882,-0.04352414822160859,-0.01832595714594046,-62.890967553346975,-54.03390821397252,-0.5846243788365975
1699735371,9.2386880586,2.093719775,3.0891339766000003,0.005955936072430649,-0.0478002048889947,-0.013591751549905842,-62.74481145863783,-53.84390529085062,-1.5931014323297281
1699735371,9.2386880586,2.093719775,3.0891339766000003,0.005955936072430649,-0.0478002048889947,-0.013591751549905842,-62.964045600701546,-54.19467991815259,-0.7015492546039169
1699735371,9.2506521716,2.0147566292,3.0951160330999996,0.03268129024359382,-0.03497203488683638,-0.010537425358915765,-62.73019584916691,-54.18006430868167,-1.607717041800643
1699735371,9.2506521716,2.0147566292,3.0951160330999996,0.03268129024359382,-0.03497203488683638,-0.010537425358915765,-62.437883659748614,-53.66851797719965,-1.2130955860859398
1699735371,9.220741889100001,1.8927226765999998,3.0113672421,0.026114488932965158,-0.03237585762449481,-0.009468411192069237,-62.49634609763227,-53.93159894767612,-1.3007892429114294
1699735371,9.220741889100001,1.8927226765999998,3.0113672421,0.026114488932965158,-0.03237585762449481,-0.009468411192069237,-62.65711780181233,-53.536977491961416,-0.9792458345513008
1699735371,9.108279226899999,1.9345970721,2.9778677257000004,0.0013744467859455344,-0.04260785036431157,-0.0006108652381980154,-62.14557147033031,-53.97544577608886,-1.0669394913767904
1699735371,9.108279226899999,1.9345970721,2.9778677257000004,0.0013744467859455344,-0.04260785036431157,-0.0006108652381980154,-62.554808535515924,-53.77082724349606,-0.950014615609471
1699735371,9.0293160811,2.1272192914,2.9730820805000002,-0.004123340357836604,-0.04276056667386108,0.007635815477475192,-62.890967553346975,-53.75621163402514,-1.3154048523823443
1699735371,9.0293160811,2.1272192914,2.9730820805000002,-0.004123340357836604,-0.04276056667386108,0.007635815477475192,-62.73019584916691,-53.84390529085062,-0.7453960830166617
1699735371,9.095118702599999,2.1248264688,3.014956476,0.01435533309765336,-0.036193765363232405,-0.002138028333693054,-62.890967553346975,-54.26775796550716,-1.7246419175679626
1699735371,9.095118702599999,2.1248264688,3.014956476,0.01435533309765336,-0.035430183815484885,-0.01679879405044542,-63.022508038585215,-53.960830166617946,-1.666179479684303
1699735371,9.1824567275,1.9286150156,3.0352954681,0.020463985479633514,-0.035430183815484885,-0.01679879405044542,-62.97866121017246,-54.19467991815259,-1.7392575270388775
1699735371,9.1824567275,1.9286150156,3.0352954681,-0.000916297857297023,-0.044898595007554123,-0.01756237559819294,-62.964045600701546,-53.85852090032154,-1.0523238819058756
1699735371,9.1848495501,1.9166509025999998,2.9850461935,-0.000916297857297023,-0.044898595007554123,-0.01756237559819294,-62.75942706810874,-54.443145279158145,-1.4761765565624088
1699735371,9.1848495501,1.9166509025999998,2.9850461935,0.010537425358915765,-0.039706240482871,-0.004734205596034618,-62.49634609763227,-53.97544577608886,-1.4615609470914936
1699735371,9.095118702599999,2.1403798157,2.8965117573,0.010537425358915765,-0.039706240482871,-0.004734205596034618,-62.62788658287051,-54.03390821397252,-1.0815551008477053
1699735371,9.095118702599999,2.1403798157,2.8965117573,0.012522737383059314,-0.039095375244672985,-0.013286318930806833,-62.364805612394036,-53.63928675825782,-2.33849751534639
1699735371,9.1704926145,2.0841484846,2.8091737324,0.012522737383059314,-0.039095375244672985,-0.013286318930806833,-62.18941829874306,-54.35545162233265,-2.0754165448699213
1699735371,9.1704926145,2.0841484846,2.8905297008,0.008246680715673207,-0.05253441048502932,-0.02550362369476714,-62.58403975445776,-54.106986261327094,-1.7392575270388775
1699735371,9.1716890258,1.8963119105000001,2.8905297008,0.008246680715673207,-0.05253441048502932,-0.02550362369476714,-63.40251388482899,-54.282373574978074,-1.3592516807950892
1699735371,9.1369930981,1.9010975557,2.9862426048,0.009315694882519734,-0.058948495486108476,-0.014508049407202865,-62.86173633440515,-54.22391113709442,-1.169248757673195
1699735371,9.1369930981,1.9010975557,2.9862426048,0.009315694882519734,-0.058948495486108476,-0.014508049407202865,-62.94942999123063,-54.15083308973985,-1.3007892429114294
1699735371,9.1429751546,2.1930219129,3.0305098229,0.024892758456569127,-0.059864793343405505,-0.002901609881440573,-62.49634609763227,-53.785442852966966,-0.964630225080386
1699735371,9.1429751546,2.1930219129,3.0305098229,0.024892758456569127,-0.059864793343405505,-0.002901609881440573,-62.93481438175972,-53.960830166617946,-0.7600116924875767
1699735371,9.2578306394,2.1224336462,3.0089744195,0.04428772976935611,-0.049480084294039245,-0.01557706357404939,-62.8178895059924,-54.45776088862906,-0.7015492546039169
1699735371,9.2578306394,2.1224336462,3.0089744195,0.04428772976935611,-0.049480084294039245,-0.01557706357404939,-62.70096463022507,-54.530838935983624,-1.5346389944460683
1699735371,9.3032942688,1.8101702968999998,3.1010980895999998,0.03481931857728687,-0.049938233222687756,-0.023212879051524585,-62.613270973399594,-54.136217480268925,-1.885413621748027
1699735371,9.3032942688,1.8101702968999998,3.1010980895999998,0.03481931857728687,-0.049938233222687756,-0.023212879051524585,-62.920198772288806,-54.31160479391991,-1.0377082724349607
1699735371,9.1812603162,1.9429719511999999,3.2386853891,0.045356743936202634,-0.04199698512611356,0.007330382858376184,-62.58403975445776,-54.136217480268925,-2.104647763811751
1699735371,9.1812603162,1.9429719511999999,3.2386853891,0.045356743936202634,-0.04199698512611356,0.007330382858376184,-62.890967553346975,-54.22391113709442,-1.2569424144986847
1699735371,9.1250289851,2.1726829208,3.1130622026,0.04596760917440065,-0.02153299964648004,0.027947084647559205,-62.788658287050566,-54.12160187079801,-1.2569424144986847
1699735371,9.1250289851,2.1726829208,3.1130622026,0.04596760917440065,-0.02153299964648004,0.027947084647559205,-62.335574393452205,-54.443145279158145,-0.8184741303712365
1699735371,9.0879402348,2.0805592507,2.9419753867,0.023212879051524585,-0.022143864884678056,0.014508049407202865,-62.27711195556854,-53.82928968137971,-1.2423268050277696
1699735371,9.0879402348,2.0805592507,2.9419753867,0.023212879051524585,-0.022143864884678056,0.014508049407202865,-62.788658287050566,-54.18006430868167,-1.417714118678749
1699735371,9.0580299523,1.9573288867999998,3.1082765574000004,0.01038470904936626,-0.03298672286269283,0.005803219762881146,-62.964045600701546,-54.07775504238527,-1.929260450160772
1699735371,9.0580299523,1.9573288867999998,3.1082765574000004,0.01038470904936626,-0.03298672286269283,0.005803219762881146,-62.67173341128325,-54.2092955276235,-1.15463314820228
1699735371,8.983852451699999,2.1786649773,3.1680971224,-0.010079276430267254,-0.0398589567924205,0.006261368691529657,-62.62788658287051,-54.0046769950307,-1.0815551008477053
1699735371,8.983852451699999,2.1786649773,3.1680971224,-0.010079276430267254,-0.0398589567924205,0.006261368691529657,-62.80327389652148,-53.94621455714703,-1.169248757673195
1699735371,8.998209387300001,2.2145573163,2.9922246613000003,-0.038789942625573975,-0.04321871560250958,-0.013286318930806833,-62.18941829874306,-54.39929845074539,-1.826951183864367
1699735371,8.998209387300001,2.2145573163,2.9922246613000003,-0.038789942625573975,-0.04321871560250958,-0.013286318930806833,-62.80327389652148,-54.25314235603624,-1.2569424144986847
1699735371,9.0580299523,1.9752750562999999,2.8893332895,-0.058337630247910464,-0.05711589977151443,-0.03390302071998985,-62.45249926921953,-54.39929845074539,-1.6954106986261326
1699735371,9.0580299523,1.9752750562999999,2.8893332895,-0.058337630247910464,-0.05711589977151443,-0.03390302071998985,-62.613270973399594,-54.25314235603624,-1.4469453376205788
1699735371,9.1393859207,2.0781664281,2.979064137,-0.03497203488683638,-0.06337726846304409,-0.028557949885757217,-62.80327389652148,-54.15083308973985,-0.964630225080386
1699735371,9.1393859207,2.0781664281,2.979064137,0.007635815477475192,-0.05314527572322733,-0.025656340004316644,-62.335574393452205,-53.99006138555977,-1.3884828997369192
1699735371,9.2219383004,2.1188444122999996,2.9838497821999996,0.007635815477475192,-0.05314527572322733,-0.025656340004316644,-62.86173633440515,-54.384682841274476,-0.7746273019584917
1699735371,9.2219383004,2.1188444122999996,2.9838497821999996,0.0,-0.049938233222687756,-0.029779680362153248,-63.168664133294364,-54.282373574978074,-2.0169541069862613
1699735371,9.236295236,1.8580267489000002,2.8989045799,0.0,-0.049938233222687756,-0.029779680362153248,-62.715580239696,-54.12160187079801,-1.0961707103186205
1699735371,9.236295236,1.8580267489000002,2.8989045799,0.0032070425005395805,-0.04642575810304917,-0.012675453692608817,-62.90558316281789,-53.77082724349606,-2.0169541069862613
1699735371,9.1597249128,1.9118652574,2.9730820805000002,0.0032070425005395805,-0.04642575810304917,-0.012675453692608817,-62.42326805027769,-53.960830166617946,-0.686933645133002
1699735371,9.1800639049,2.1714865095,2.9419753867,0.029474247743054238,-0.03298672286269283,0.0070249502392771765,-62.613270973399594,-53.93159894767612,-0.9207833966676411
1699735371,9.1800639049,2.1714865095,2.9419753867,0.029474247743054238,-0.03298672286269283,0.0070249502392771765,-62.8178895059924,-53.93159894767612,-1.4761765565624088
1699735371,9.2147598326,2.0793628394,2.8247270792999997,0.02626720524251466,-0.03466660226773737,-0.004886921905584123,-62.80327389652148,-53.97544577608886,-1.5492546039169834
1699735371,9.2147598326,2.0793628394,2.8247270792999997,0.02626720524251466,-0.03466660226773737,-0.004886921905584123,-63.19789535223619,-53.99006138555977,-1.4615609470914936
1699735371,9.2159562439,1.8436698133,2.9096722816000002,0.010842857978014772,-0.04657847441259867,-0.016187928812247405,-63.13943291435253,-53.99006138555977,-2.33849751534639
1699735371,9.2159562439,1.8436698133,2.9096722816000002,0.010842857978014772,-0.04657847441259867,-0.016187928812247405,-62.890967553346975,-53.56620871090324,-2.39695995323005
1699735371,9.1992064857,2.0195422744,3.1202406704,0.027641652028460195,-0.045356743936202634,0.0024434609527920616,-62.75942706810874,-54.2092955276235,-1.7831043554516222
1699735371,9.1992064857,2.0195422744,3.1202406704,0.027641652028460195,-0.045356743936202634,0.0024434609527920616,-62.993276819643384,-53.916983338205206,-1.3592516807950892
1699735371,9.096315113900001,2.1822542112,3.134597606,0.047647488579445195,-0.0319177086958463,0.0160352125026979,-62.686349020754164,-54.340836012861736,-2.148494592224496
1699735371,9.096315113900001,2.1822542112,3.134597606,0.047647488579445195,-0.0319177086958463,0.0160352125026979,-62.920198772288806,-53.580824320374155,-1.373867290266004
1699735371,9.0867438235,2.0662023151,3.0317062341999996,0.025656340004316644,-0.0320704250053958,0.0033597588100890844,-63.25635779011984,-53.80005846243788,-1.9146448406898566
1699735371,9.0867438235,2.0662023151,3.0317062341999996,0.025656340004316644,-0.0320704250053958,0.0033597588100890844,-62.77404267757966,-53.610055539315994,-1.870798012277112
1699735371,9.0723868879,1.9286150156,3.0735806297,0.026572637861613665,-0.038484510006474966,-0.005650503453331642,-62.86173633440515,-53.59543992984508,-2.148494592224496
1699735371,9.0723868879,1.9286150156,3.0735806297,0.026572637861613665,-0.038484510006474966,-0.005650503453331642,-62.83250511546331,-53.63928675825782,-2.33849751534639
1699735371,9.0711904766,2.0362920326,3.0508488149999997,0.023823744289722597,-0.0439822971502571,-0.000916297857297023,-63.037123648056124,-54.23852674656533,-1.6223326512715581
1699735371,9.0711904766,2.0362920326,3.0508488149999997,0.023823744289722597,-0.0439822971502571,-0.000916297857297023,-62.920198772288806,-53.94621455714703,-1.7684887459807075
1699735371,9.1130648721,2.1571295739000003,2.9874390161,0.01710422666954443,-0.0438295808407076,-0.0024434609527920616,-63.066354866997955,-54.31160479391991,-1.373867290266004
1699735371,9.1130648721,2.1571295739000003,2.9874390161,0.01710422666954443,-0.0438295808407076,-0.0024434609527920616,-62.890967553346975,-53.99006138555977,-1.0961707103186205
1699735371,9.1549392676,1.9680965885,3.0077780082,0.0003054326190990077,-0.050243665841786765,-0.01710422666954443,-63.12481730488161,-53.84390529085062,-2.7038877521192632
1699735371,9.1549392676,1.9680965885,3.0077780082,0.0003054326190990077,-0.050243665841786765,-0.01710422666954443,-62.83250511546331,-53.84390529085062,-1.4469453376205788
1699735371,9.128618219,1.9704894111,3.062812928,0.008704829644321718,-0.049632800603588746,-0.012217304763960306,-63.0078924291143,-54.2092955276235,-1.7831043554516222
1699735371,9.128618219,1.9704894111,3.062812928,0.008704829644321718,-0.049632800603588746,-0.012217304763960306,-62.93481438175972,-53.75621163402514,-2.557731657410114
1699735371,9.109475638200001,2.0781664281,3.0424739359,0.02504547476611863,-0.04306599929296008,-0.0003054326190990077,-63.19789535223619,-53.72698041508331,-2.0754165448699213
1699735371,9.109475638200001,2.0781664281,3.0424739359,0.02504547476611863,-0.04306599929296008,-0.0003054326190990077,-63.18327974276527,-54.09237065185618,-1.7392575270388775
1699735371,9.1441715659,2.0961125976,3.0556344602,0.037262779530078935,-0.04321871560250958,-0.0039706240482871,-62.70096463022507,-53.66851797719965,-1.7392575270388775
1699735371,9.1441715659,2.0961125976,3.0556344602,0.03375030441044035,-0.04260785036431157,-0.014660765716752368,-62.56942414498684,-53.47851505407776,-1.2569424144986847
1699735371,9.2219383004,1.9884355805999998,3.0412775246,0.03375030441044035,-0.04260785036431157,-0.014660765716752368,-62.94942999123063,-53.77082724349606,-1.636948260742473
1699735371,9.2219383004,1.9884355805999998,3.0412775246,0.008246680715673207,-0.04581489286485115,-0.012980886311707827,-63.28558900906168,-53.90236772873429,-1.5784858228588132
1699735371,9.290133744499999,1.8939190879,3.0687949845,0.008246680715673207,-0.04581489286485115,-0.012980886311707827,-63.28558900906168,-54.0046769950307,-1.856182402806197
1699735371,9.290133744499999,1.8939190879,3.0687949845,-0.002901609881440573,-0.047647488579445195,0.005955936072430649,-63.2125109617071,-53.960830166617946,-1.3446360713241743
1699735371,9.224331123,2.0015961049,3.0807590974999997,-0.002901609881440573,-0.047647488579445195,0.005955936072430649,-63.3002046185326,-53.71236480561239,-2.2069570301081556
1699735371,9.224331123,2.0015961049,3.0807590974999997,0.017715091907742442,-0.03955352417332149,0.0160352125026979,-62.86173633440515,-53.47851505407776,-1.4761765565624088
1699735371,9.0604227749,2.081755662,3.038884702,0.017715091907742442,-0.03955352417332149,0.0160352125026979,-63.022508038585215,-53.580824320374155,-2.3238819058754747
1699735371,9.0604227749,2.081755662,3.0281170003,0.037262779530078935,-0.03665191429188092,0.01114829059711378,-62.510961707103185,-53.71236480561239,-1.417714118678749
1699735371,9.0113699116,1.9908284031999999,3.0281170003,0.037262779530078935,-0.03665191429188092,0.01114829059711378,-62.84712072493422,-53.63928675825782,-1.3592516807950892
1699735371,9.042476605400001,2.0961125976,3.0711878071,0.0319177086958463,-0.038942658935123484,0.006566801310628665,-62.890967553346975,-53.8146740719088,-1.4030985092078339
1699735371,9.042476605400001,2.0961125976,3.0711878071,0.0319177086958463,-0.038942658935123484,0.006566801310628665,-63.27097339959076,-53.580824320374155,-1.5492546039169834
1699735371,9.1429751546,2.1164515897,3.0735806297,0.006719517620178169,-0.04214970143566306,-0.007483099167925688,-63.24174218064893,-54.0046769950307,-2.3823443437591347
1699735371,9.1429751546,2.1164515897,3.0735806297,0.006719517620178169,-0.04214970143566306,-0.007483099167925688,-63.19789535223619,-53.84390529085062,-1.3884828997369192
1699735372,9.1980100744,1.9944176371,3.0065815969000003,-0.01710422666954443,-0.04291328298341058,-0.02107485071783153,-63.68021046477638,-53.82928968137971,-0.8623209587839813
1699735372,9.1980100744,1.9944176371,3.0065815969000003,-0.01710422666954443,-0.04291328298341058,-0.02107485071783153,-63.19789535223619,-53.610055539315994,-1.3154048523823443
1699735372,9.233902413400001,1.8891334427000002,2.9742784918,0.0006108652381980154,-0.04108068726881653,-0.016646077740895916,-63.31482022800351,-53.56620871090324,-0.233849751534639
1699735372,9.233902413400001,1.8891334427000002,2.9742784918,0.0006108652381980154,-0.04108068726881653,-0.016646077740895916,-62.56942414498684,-53.683133586670564,-1.4761765565624088
1699735372,9.1334038642,1.9357934834,2.9682964353,0.02138028333693054,-0.04260785036431157,0.0,-62.73019584916691,-54.019292604501615,-1.6223326512715581
1699735372,9.1334038642,1.9357934834,2.9682964353,0.02138028333693054,-0.04260785036431157,0.0,-62.87635194387606,-53.580824320374155,-0.6723180356620871
1699735372,9.121439751199999,2.069791549,2.9467610319,0.02153299964648004,-0.047189339650796684,0.008552113334772215,-62.64250219234142,-53.62467114878691,-1.2861736334405145
1699735372,9.121439751199999,2.069791549,2.9467610319,0.02153299964648004,-0.047189339650796684,0.008552113334772215,-62.97866121017246,-53.77082724349606,-1.1107863197895351
1699735372,9.188438784,2.0853448959,2.8977081686,-0.005039638215133627,-0.05268712679457882,-0.002901609881440573,-62.73019584916691,-53.80005846243788,-1.4469453376205788
1699735372,9.188438784,2.0853448959,2.8977081686,-0.005039638215133627,-0.05268712679457882,-0.002901609881440573,-62.613270973399594,-54.019292604501615,-1.0084770534931307
1699735372,9.1800639049,2.0123638066000002,2.9324040963,0.003665191429188092,-0.05482515512827187,-0.01114829059711378,-62.3209587839813,-53.49313066354867,-0.8184741303712365
1699735372,9.1800639049,2.0123638066000002,2.9324040963,0.003665191429188092,-0.05482515512827187,-0.01114829059711378,-63.18327974276527,-54.04852382344344,-0.8184741303712365
1699735372,9.0855474122,1.9489540077,3.1310083721,0.026878070480712675,-0.05070181477043527,-0.003817907738737596,-63.18327974276527,-54.136217480268925,-1.4907921660333234
1699735372,9.0855474122,1.9489540077,3.1310083721,0.026878070480712675,-0.05070181477043527,-0.003817907738737596,-63.168664133294364,-54.2092955276235,-1.7538731365097926
1699735372,9.0341017263,2.0410776778,3.1669007111,0.030543261909900768,-0.039095375244672985,0.004276056667386108,-63.022508038585215,-53.683133586670564,-1.6223326512715581
1699735372,9.0341017263,2.0410776778,3.1669007111,0.030543261909900768,-0.039095375244672985,0.004276056667386108,-62.93481438175972,-54.03390821397252,-0.6723180356620871
1699735372,9.1346002755,2.0638094925,2.9958138952,0.021227567027381034,-0.029779680362153248,-0.0033597588100890844,-62.64250219234142,-53.84390529085062,-1.7100263080970477
1699735372,9.1346002755,2.0638094925,2.9958138952,0.021227567027381034,-0.029779680362153248,-0.0033597588100890844,-62.83250511546331,-53.82928968137971,-1.4761765565624088
1699735372,9.2590270507,1.9489540077,2.7996024420000003,0.01114829059711378,-0.03375030441044035,-0.015424347264499889,-62.73019584916691,-53.87313650979246,-0.6284712072493424
1699735372,9.2590270507,1.9489540077,2.7996024420000003,0.01114829059711378,-0.03375030441044035,-0.015424347264499889,-63.2125109617071,-54.063139432914355,-1.5346389944460683
1699735372,9.2099741874,1.8652052167000002,2.9180471607,0.023976460599272102,-0.0478002048889947,-0.012217304763960306,-62.87635194387606,-53.82928968137971,-0.6138555977784274
1699735372,9.2099741874,1.8652052167000002,2.9180471607,0.023976460599272102,-0.05772676500971245,0.000916297857297023,-63.15404852382345,-53.960830166617946,-1.6223326512715581
1699735372,9.0915294687,2.0422740890999997,3.0592236941,0.022143864884678056,-0.05772676500971245,0.000916297857297023,-62.8178895059924,-54.282373574978074,-0.9061677871967261
1699735372,9.0915294687,2.0422740890999997,3.0592236941,0.02153299964648004,-0.05421428989007387,0.0004581489286485115,-63.19789535223619,-53.69774919614147,-1.2861736334405145
1699735372,9.1477607998,2.1272192914,3.0496524037,0.02153299964648004,-0.05421428989007387,0.0004581489286485115,-62.97866121017246,-53.72698041508331,-0.6430868167202572
1699735372,9.1477607998,2.1272192914,3.0496524037,0.03023782929080176,-0.047189339650796684,-0.007483099167925688,-62.93481438175972,-53.66851797719965,-1.0377082724349607
1699735372,9.1992064857,2.0015961049,2.9718856692,0.03023782929080176,-0.047189339650796684,-0.007483099167925688,-62.540192926045016,-53.65390236772873,-1.2130955860859398
1699735372,9.1992064857,2.0015961049,2.9718856692,0.05131268000863329,-0.03924809155422248,-0.0024434609527920616,-62.67173341128325,-53.3177433498977,-0.6723180356620871
1699735372,9.1453679772,1.9166509025999998,3.0137600647,0.05131268000863329,-0.03924809155422248,-0.0024434609527920616,-62.83250511546331,-53.610055539315994,-0.7307804735457468
1699735372,9.1453679772,1.9166509025999998,3.1932217597,0.05238169417547982,-0.03695734691097993,0.004123340357836604,-62.993276819643384,-53.44928383513593,-1.4030985092078339
1699735372,9.2171526552,1.8604195715,3.1932217597,0.05238169417547982,-0.03695734691097993,0.004123340357836604,-62.37942122186495,-53.66851797719965,0.13154048523823444
1699735372,9.1357966868,1.998006871,3.2374889778,0.03252857393404432,-0.04108068726881653,0.006566801310628665,-62.75942706810874,-53.94621455714703,-1.3007892429114294
1699735372,9.1357966868,1.998006871,3.2374889778,0.03252857393404432,-0.04108068726881653,0.006566801310628665,-62.715580239696,-53.69774919614147,-0.9061677871967261
1699735372,9.055637129700001,2.1068802992999998,3.0436703472,0.012522737383059314,-0.04077525464971753,0.0033597588100890844,-62.97866121017246,-53.77082724349606,-1.0230926629640456
1699735372,9.055637129700001,2.1068802992999998,3.0436703472,0.012522737383059314,-0.04077525464971753,0.0033597588100890844,-62.39403683133587,-53.93159894767612,-1.5638702133878981
1699735372,9.0484586619,2.1080767106,2.9527430884,0.006108652381980153,-0.049938233222687756,-0.007483099167925688,-62.64250219234142,-54.04852382344344,-0.7307804735457468
1699735372,9.0484586619,2.1080767106,2.9527430884,0.006108652381980153,-0.049938233222687756,-0.007483099167925688,-62.90558316281789,-53.94621455714703,-1.5054077755042385
1699735372,9.080761767,2.0291135648000003,3.0113672421,0.0160352125026979,-0.05451972250917286,-0.015729779883598895,-63.037123648056124,-53.916983338205206,-0.6577024261911721
1699735372,9.080761767,2.0291135648000003,3.0113672421,0.0160352125026979,-0.05451972250917286,-0.015729779883598895,-62.70096463022507,-54.25314235603624,-1.140017538731365
1699735372,9.1716890258,1.9848463467,3.0484559924,-0.0007635815477475192,-0.052228977865930316,-0.021685715956029545,-63.534054370067224,-54.25314235603624,-0.3653902367728734
1699735372,9.1716890258,1.9848463467,3.0484559924,-0.0007635815477475192,-0.052228977865930316,-0.021685715956029545,-63.09558608593978,-54.0046769950307,-0.6138555977784274
1699735372,9.2183490665,2.0231315083,3.0233313551,0.0022907446432425577,-0.04444044607890562,-0.02107485071783153,-62.74481145863783,-54.384682841274476,-1.3007892429114294
1699735372,9.2183490665,2.0231315083,3.0233313551,0.0022907446432425577,-0.04444044607890562,-0.02107485071783153,-62.86173633440515,-54.18006430868167,-0.935399006138556
1699735372,9.242277292499999,1.9274186043000001,2.8845476443,0.020616701789183015,-0.037720928458727446,-0.0158824961931484,-63.022508038585215,-54.15083308973985,-0.6430868167202572
1699735372,9.242277292499999,1.9274186043000001,2.8845476443,0.020616701789183015,-0.037720928458727446,-0.0158824961931484,-62.715580239696,-54.26775796550716,-0.6138555977784274
1699735372,9.207581364800001,1.8759729184,2.9132615155,0.035430183815484885,-0.046883907031697675,-0.006872233929727673,-62.67173341128325,-54.19467991815259,-0.7161648640748319
1699735372,9.207581364800001,1.8759729184,2.9132615155,0.035430183815484885,-0.046883907031697675,-0.006872233929727673,-62.77404267757966,-53.960830166617946,-0.8477053493130663
1699735372,9.1130648721,2.0303099761,3.0233313551,0.04046982203061852,-0.052228977865930316,0.01038470904936626,-62.84712072493422,-54.2092955276235,-1.6807950891552177
1699735372,9.1130648721,2.0303099761,3.0233313551,0.04046982203061852,-0.052228977865930316,0.01038470904936626,-62.93481438175972,-54.136217480268925,-1.0669394913767904
1699735372,9.1262253964,2.1487546948,3.0317062341999996,0.024587325837470118,-0.05192354524683131,0.004734205596034618,-63.18327974276527,-53.74159602455423,-1.2569424144986847
1699735372,9.1262253964,2.1487546948,3.0317062341999996,0.024587325837470118,-0.05192354524683131,0.004734205596034618,-62.83250511546331,-53.75621163402514,-0.4969307220111079
1699735372,9.1357966868,2.093719775,3.0687949845,0.023212879051524585,-0.04581489286485115,-0.007635815477475192,-62.86173633440515,-53.93159894767612,-0.20461853259280913
1699735372,9.1357966868,2.093719775,3.0687949845,0.023212879051524585,-0.04581489286485115,-0.007635815477475192,-63.08097047646887,-53.43466822566501,-0.35077462730195846
1699735372,9.1118684608,1.9633109433,3.062812928,0.03344487179134134,-0.037262779530078935,-0.010079276430267254,-63.28558900906168,-53.11312481730488,-0.4969307220111079
1699735372,9.1118684608,1.9633109433,3.062812928,0.03344487179134134,-0.04123340357836603,-0.009773843811168246,-63.066354866997955,-53.90236772873429,-0.7015492546039169
1699735372,9.0939222913,1.9238293703999998,3.0568308715,0.01634064512179691,-0.04123340357836603,-0.009773843811168246,-63.46097632271266,-54.09237065185618,-1.3154048523823443
1699735372,9.0939222913,1.9238293703999998,3.0568308715,0.0032070425005395805,-0.048258353817643214,-0.007635815477475192,-63.46097632271266,-53.916983338205206,-0.8623209587839813
1699735372,9.1262253964,2.0147566292,3.0017959517,0.0032070425005395805,-0.048258353817643214,-0.007635815477475192,-63.387898275358076,-53.536977491961416,-0.9207833966676411
1699735372,9.1262253964,2.0147566292,3.0017959517,0.005345070834232635,-0.05360342465187585,-0.01069014166846527,-63.2125109617071,-53.960830166617946,-0.6430868167202572
1699735372,9.1692962032,2.0554346134,2.9252256285000002,0.005345070834232635,-0.05360342465187585,-0.01069014166846527,-63.0078924291143,-54.2092955276235,-0.935399006138556
1699735372,9.1692962032,2.0554346134,2.9252256285000002,0.014813482026301871,-0.06032294227205401,-0.015729779883598895,-62.964045600701546,-54.09237065185618,-1.4907921660333234
1699735372,9.1346002755,2.0159530405,3.0568308715,0.014813482026301871,-0.06032294227205401,-0.015729779883598895,-62.48173048816136,-54.12160187079801,-1.1254019292604502
1699735372,9.1346002755,2.0159530405,3.0568308715,0.029932396671702752,-0.05329799203277684,-0.012675453692608817,-63.037123648056124,-53.59543992984508,-0.8038585209003215
1699735372,9.104689993,1.9920248145,3.1262227269,0.029932396671702752,-0.05329799203277684,-0.012675453692608817,-62.49634609763227,-53.90236772873429,-0.8330897398421515
1699735372,9.1669033806,1.9680965885,2.9682964353,0.011301006906663283,-0.047647488579445195,-0.014049900478554353,-62.510961707103185,-54.37006723180357,-1.0230926629640456
1699735372,9.1669033806,1.9680965885,2.9682964353,0.011301006906663283,-0.047647488579445195,-0.014049900478554353,-63.35866705641625,-53.93159894767612,-0.6723180356620871
1699735372,9.1908316066,2.0171494518,2.8701907087,0.007788531787024695,-0.048258353817643214,-0.014966198335851376,-63.417129494299914,-53.82928968137971,-1.0084770534931307
1699735372,9.1908316066,2.0171494518,2.8701907087,0.007788531787024695,-0.048258353817643214,-0.014966198335851376,-63.18327974276527,-54.443145279158145,-0.05846243788365975
1699735372,9.206384953499999,2.0135602179,2.919243572,0.008246680715673207,-0.05283984310412832,-0.01679879405044542,-62.510961707103185,-54.12160187079801,-0.6577024261911721
1699735372,9.206384953499999,2.0135602179,2.919243572,0.008246680715673207,-0.05283984310412832,-0.01679879405044542,-62.27711195556854,-53.916983338205206,-1.198479976615025
1699735372,9.2027957196,1.8759729184,3.1322047834,0.020158552860534508,-0.05711589977151443,-0.01557706357404939,-62.37942122186495,-54.22391113709442,-0.8623209587839813
1699735372,9.2027957196,1.8759729184,3.1322047834,0.020158552860534508,-0.05711589977151443,-0.01557706357404939,-62.58403975445776,-54.106986261327094,-0.8623209587839813
1699735372,9.1322074529,2.0590238472999998,3.1429724850999996,0.03298672286269283,-0.04810563750809371,0.0012217304763960308,-62.70096463022507,-54.04852382344344,-0.7600116924875767
1699735372,9.1322074529,2.0590238472999998,3.1429724850999996,0.03298672286269283,-0.04810563750809371,0.0012217304763960308,-62.77404267757966,-54.16544869921076,-0.6723180356620871
1699735372,9.1298146303,2.1547367513,2.9264220398,0.038179077387375956,-0.03787364476827695,0.002748893571891069,-63.18327974276527,-53.785442852966966,-0.5115463314820228
1699735372,9.1298146303,2.1547367513,2.9264220398,0.038179077387375956,-0.03787364476827695,0.002748893571891069,-62.94942999123063,-54.063139432914355,-1.0523238819058756
1699735372,9.1692962032,2.0231315083,2.8606194183,0.02550362369476714,-0.04428772976935611,-0.014660765716752368,-62.58403975445776,-53.85852090032154,-0.3069277988892137
1699735372,9.1692962032,2.0231315083,2.8606194183,0.02550362369476714,-0.04428772976935611,-0.014660765716752368,-62.84712072493422,-53.84390529085062,-0.24846536100555394
1699735372,9.108279226899999,1.9345970721,2.9850461935,0.029626964052603743,-0.050396382151336266,-0.018936822384138473,-63.09558608593978,-54.296989184449,-0.29231218941829873
1699735372,9.108279226899999,1.9345970721,2.9850461935,0.029626964052603743,-0.050396382151336266,-0.018936822384138473,-62.90558316281789,-53.916983338205206,0.35077462730195846
1699735372,9.0999043478,1.9537396529,3.098705267,0.031001410838549282,-0.05742133239061344,-0.01557706357404939,-63.19789535223619,-54.106986261327094,0.5115463314820228
1699735372,9.0999043478,1.9537396529,3.098705267,0.031001410838549282,-0.05742133239061344,-0.01557706357404939,-63.08097047646887,-54.03390821397252,-0.8038585209003215
1699735372,9.1130648721,2.0626130812,3.1262227269,0.03405573702953935,-0.05818491393836096,-0.009621127501618741,-63.037123648056124,-53.93159894767612,-0.686933645133002
1699735372,9.1130648721,2.0626130812,3.1262227269,0.03405573702953935,-0.05818491393836096,-0.009621127501618741,-63.5048231511254,-53.8146740719088,-0.7600116924875767
1699735372,9.1513500337,2.0781664281,3.0329026454999997,0.02428189321837111,-0.056810467152415424,-0.012675453692608817,-63.13943291435253,-53.916983338205206,0.14615609470914936
1699735372,9.1513500337,2.0781664281,3.0329026454999997,0.02428189321837111,-0.056810467152415424,-0.012675453692608817,-63.022508038585215,-53.59543992984508,-0.7600116924875767
1699735372,9.1669033806,2.0518453795,3.0532416376,0.009010262263420726,-0.06444628262989062,-0.0198531202414355,-63.19789535223619,-53.785442852966966,-1.1107863197895351
1699735372,9.1669033806,2.0518453795,3.0532416376,0.009010262263420726,-0.06444628262989062,-0.0198531202414355,-62.90558316281789,-53.94621455714703,-0.7161648640748319
1699735372,9.1262253964,2.0925233637,3.0664021618999997,0.009315694882519734,-0.061697389057999555,-0.017715091907742442,-62.686349020754164,-53.82928968137971,-1.5492546039169834
1699735372,9.1262253964,2.0925233637,3.0664021618999997,0.009315694882519734,-0.061697389057999555,-0.017715091907742442,-63.18327974276527,-53.87313650979246,-1.2277111955568547
1699735372,9.1070828156,2.0757736055,3.0161528873,0.019242255003237483,-0.049785516913138254,-0.014966198335851376,-63.24174218064893,-54.22391113709442,-0.3946214557147033
1699735372,9.1070828156,2.0757736055,3.0161528873,0.019242255003237483,-0.049785516913138254,-0.01435533309765336,-63.037123648056124,-53.960830166617946,-1.1107863197895351
1699735372,9.1932244292,1.8891334427000002,2.8977081686,0.019242255003237483,-0.04108068726881653,-0.01435533309765336,-62.993276819643384,-53.74159602455423,-0.950014615609471
1699735372,9.1932244292,1.8891334427000002,2.8977081686,0.019700403931885994,-0.04306599929296008,-0.005497787143782138,-62.70096463022507,-54.019292604501615,-0.950014615609471
1699735372,9.2219383004,1.9058832009,2.931207685,0.019700403931885994,-0.04306599929296008,-0.005497787143782138,-63.05173925752704,-53.56620871090324,-1.3300204618532592
1699735372,9.2219383004,1.9058832009,2.931207685,0.025350907385217634,-0.05283984310412832,0.001069014166846527,-63.43174510377083,-53.683133586670564,-1.5784858228588132
1699735372,9.1477607998,2.0554346134,3.014956476,0.025350907385217634,-0.05283984310412832,0.001069014166846527,-63.022508038585215,-53.5223618824905,-0.42385267465653315
1699735372,9.0759761218,2.2169501389,3.0831519201,0.02428189321837111,-0.05390885727097486,-0.000916297857297023,-62.613270973399594,-53.8146740719088,-1.2569424144986847
1699735372,9.0759761218,2.2169501389,3.0831519201,0.02428189321837111,-0.05390885727097486,-0.000916297857297023,-62.59865536392868,-53.916983338205206,-0.686933645133002
1699735373,9.148957211099999,2.1068802992999998,3.0484559924,0.00839939702522271,-0.04902193536539073,-0.014966198335851376,-63.168664133294364,-54.04852382344344,-0.6430868167202572
1699735373,9.148957211099999,2.1068802992999998,3.0484559924,0.00839939702522271,-0.04902193536539073,-0.014966198335851376,-62.70096463022507,-54.41391406021631,-0.7015492546039169
1699735373,9.1680997919,1.9680965885,3.0568308715,0.0004581489286485115,-0.046883907031697675,-0.0198531202414355,-62.86173633440515,-53.85852090032154,-0.07307804735457468
1699735373,9.1680997919,1.9680965885,3.0568308715,0.0004581489286485115,-0.046883907031697675,-0.0198531202414355,-63.22712657117802,-54.22391113709442,-1.140017538731365
1699735373,9.1585285015,2.0003996936,2.9874390161,0.008246680715673207,-0.04306599929296008,-0.011301006906663283,-62.94942999123063,-54.09237065185618,-0.8623209587839813
1699735373,9.1585285015,2.0003996936,2.9874390161,0.008246680715673207,-0.04306599929296008,-0.011301006906663283,-62.90558316281789,-54.07775504238527,-1.2715580239695994
1699735373,9.116654106,2.0255243308999997,2.883351233,0.011301006906663283,-0.05070181477043527,-0.008857545953871221,-62.437883659748614,-54.384682841274476,-1.2715580239695994
1699735373,9.116654106,2.0255243308999997,2.883351233,0.011301006906663283,-0.05070181477043527,-0.008857545953871221,-62.964045600701546,-54.282373574978074,-0.8769365682548963
1699735373,9.1298146303,2.0913269524,2.8941189347,0.007635815477475192,-0.06154467274845005,-0.009315694882519734,-62.84712072493422,-54.106986261327094,-2.0169541069862613
1699735373,9.1298146303,2.0913269524,2.8941189347,0.007635815477475192,-0.06154467274845005,-0.009315694882519734,-62.993276819643384,-54.04852382344344,-1.2423268050277696
1699735373,9.1633141467,2.1523439287,2.9300112737000004,0.012217304763960306,-0.06093380751025203,-0.01038470904936626,-62.77404267757966,-54.03390821397252,-0.9207833966676411
1699735373,9.1633141467,2.1523439287,2.9300112737000004,0.012217304763960306,-0.06093380751025203,-0.01038470904936626,-62.70096463022507,-54.04852382344344,-1.15463314820228
1699735373,9.1776710823,1.9728822337,3.0161528873,0.024740042147019622,-0.05665775084286592,-0.019394971312786988,-63.0078924291143,-53.72698041508331,-1.0377082724349607
1699735373,9.1776710823,1.9728822337,3.0161528873,0.024740042147019622,-0.05665775084286592,-0.019394971312786988,-62.45249926921953,-53.887752119263375,-2.3823443437591347
1699735373,9.1573320902,1.938186306,3.1046873235,0.03222314131494531,-0.05131268000863329,-0.013591751549905842,-62.87635194387606,-54.472376498099976,-1.6223326512715581
1699735373,9.1573320902,1.938186306,3.1046873235,0.03222314131494531,-0.05131268000863329,-0.013591751549905842,-62.83250511546331,-53.65390236772873,-1.7392575270388775
1699735373,9.1477607998,2.1463618722,3.0065815969000003,0.026572637861613665,-0.04627304179349966,-0.002748893571891069,-63.08097047646887,-54.63314820228003,-1.8123355743934522
1699735373,9.1477607998,2.1463618722,3.0065815969000003,0.026572637861613665,-0.04627304179349966,-0.002748893571891069,-62.890967553346975,-54.19467991815259,-0.964630225080386
1699735373,9.165706969299999,2.1523439287,2.7852455064000003,0.004123340357836604,-0.047647488579445195,-0.009010262263420726,-62.94942999123063,-54.560070154925455,-0.7307804735457468
1699735373,9.165706969299999,2.1523439287,2.7852455064000003,0.004123340357836604,-0.047647488579445195,-0.009010262263420726,-62.920198772288806,-54.340836012861736,-1.198479976615025
1699735373,9.1692962032,2.0410776778,2.7589244578,-0.010079276430267254,-0.05390885727097486,-0.01511891464540088,-63.05173925752704,-54.5016077170418,-0.9792458345513008
1699735373,9.1692962032,2.0410776778,2.7589244578,-0.010079276430267254,-0.05390885727097486,-0.01511891464540088,-62.56942414498684,-54.16544869921076,-0.13154048523823444
1699735373,9.1824567275,1.9896319919,3.0053851856000002,0.018784106074588972,-0.047952921198544204,-0.007330382858376184,-62.73019584916691,-54.63314820228003,-1.856182402806197
1699735373,9.1824567275,1.9896319919,3.0053851856000002,0.018784106074588972,-0.047952921198544204,-0.007330382858376184,-62.73019584916691,-54.42852966968723,-1.3154048523823443
1699735373,9.1130648721,1.9956140484,3.1082765574000004,0.04505131131710363,-0.03940080786377199,0.002901609881440573,-63.13943291435253,-54.340836012861736,-1.5931014323297281
1699735373,9.1130648721,1.9956140484,3.1082765574000004,0.04505131131710363,-0.03940080786377199,0.002901609881440573,-62.77404267757966,-54.25314235603624,-1.15463314820228
1699735373,9.09272588,2.1583259852,3.0281170003,0.03268129024359382,-0.039095375244672985,0.004123340357836604,-62.77404267757966,-54.12160187079801,-1.0961707103186205
1699735373,9.09272588,2.1583259852,3.0281170003,0.03268129024359382,-0.039095375244672985,0.004123340357836604,-62.64250219234142,-54.16544869921076,-0.8915521777258111
1699735373,9.2255275343,2.0901305410999997,2.8941189347,0.012828170002158322,-0.04520402762665313,-0.012064588454410803,-63.022508038585215,-53.84390529085062,-1.4615609470914936
1699735373,9.2255275343,2.0901305410999997,2.8941189347,0.012828170002158322,-0.04520402762665313,-0.012064588454410803,-63.446360713241745,-53.887752119263375,-0.5700087693656825
1699735373,9.1680997919,1.9740786449999999,2.9264220398,-0.005497787143782138,-0.05528330405692039,-0.016646077740895916,-63.08097047646887,-54.03390821397252,-0.8184741303712365
1699735373,9.1680997919,1.9740786449999999,2.9264220398,0.005039638215133627,-0.05390885727097486,-0.0039706240482871,-62.920198772288806,-53.785442852966966,-1.2277111955568547
1699735373,9.1357966868,2.0362920326,3.0544380489000003,0.005039638215133627,-0.05390885727097486,-0.0039706240482871,-63.27097339959076,-54.16544869921076,-1.3446360713241743
1699735373,9.1357966868,2.0362920326,3.0544380489000003,0.012370021073509811,-0.048258353817643214,-0.002138028333693054,-62.97866121017246,-54.32622040339082,-1.0377082724349607
1699735373,9.1202433399,2.1032910654,3.0687949845,0.012370021073509811,-0.048258353817643214,-0.002138028333693054,-63.08097047646887,-54.09237065185618,-0.5261619409529378
1699735373,9.1202433399,2.1032910654,3.0687949845,0.005650503453331642,-0.048411070127192715,-0.010995574287564275,-63.31482022800351,-54.106986261327094,-0.7746273019584917
1699735373,9.1034935817,2.057827436,2.919243572,0.005650503453331642,-0.048411070127192715,-0.010995574287564275,-62.87635194387606,-54.22391113709442,-1.2715580239695994
1699735373,9.1034935817,2.057827436,2.919243572,0.002596177262341565,-0.05589416929511841,-0.018936822384138473,-62.77404267757966,-53.72698041508331,-1.5346389944460683
1699735373,9.140582332,1.9704894111,2.9455646206,0.002596177262341565,-0.05589416929511841,-0.018936822384138473,-62.67173341128325,-54.19467991815259,-0.950014615609471
1699735373,9.140582332,2.0769700168,3.0508488149999997,0.0079412480965742,-0.05192354524683131,-0.010842857978014772,-62.58403975445776,-53.916983338205206,-1.6807950891552177
1699735373,9.229116768199999,2.0769700168,3.0508488149999997,0.0079412480965742,-0.05192354524683131,-0.010842857978014772,-62.686349020754164,-54.45776088862906,-1.0377082724349607
1699735373,9.2817588654,2.0733807828999997,2.9539394997,0.00015271630954950385,-0.04138611988791554,-0.0070249502392771765,-62.788658287050566,-54.22391113709442,-1.0961707103186205
1699735373,9.2817588654,2.0733807828999997,2.9539394997,0.00015271630954950385,-0.04138611988791554,-0.0070249502392771765,-62.62788658287051,-54.12160187079801,-2.060800935399006
1699735373,9.200402897,1.998006871,2.9120651042,0.0024434609527920616,-0.038637226316024474,-0.006872233929727673,-62.890967553346975,-53.93159894767612,-0.6284712072493424
1699735373,9.200402897,1.998006871,2.9120651042,0.0024434609527920616,-0.038637226316024474,-0.006872233929727673,-63.18327974276527,-54.019292604501615,-1.198479976615025
1699735373,9.0915294687,1.9334006607999998,3.0221349438,0.0007635815477475192,-0.04123340357836603,-0.0012217304763960308,-63.15404852382345,-54.106986261327094,-1.140017538731365
1699735373,9.0915294687,1.9334006607999998,3.0221349438,0.0007635815477475192,-0.04123340357836603,-0.0012217304763960308,-62.94942999123063,-53.99006138555977,-1.3300204618532592
1699735373,9.0460658393,2.1367905818,3.0903303879,0.006108652381980153,-0.038637226316024474,0.008857545953871221,-63.08097047646887,-53.99006138555977,-1.3446360713241743
1699735373,9.0460658393,2.1367905818,3.0903303879,0.006108652381980153,-0.038637226316024474,0.008857545953871221,-63.27097339959076,-53.99006138555977,-1.2861736334405145
1699735373,9.116654106,2.1810577999,2.9599215562,-0.006414085001079161,-0.03313943917224233,0.0003054326190990077,-62.97866121017246,-54.26775796550716,-1.6807950891552177
1699735373,9.116654106,2.1810577999,2.9599215562,-0.006414085001079161,-0.03313943917224233,0.0003054326190990077,-62.77404267757966,-54.60391698333821,-0.6138555977784274
1699735373,9.2135634213,2.0650059038,2.8905297008,-0.02428189321837111,-0.036499197982331415,-0.01634064512179691,-62.920198772288806,-54.31160479391991,-1.140017538731365
1699735373,9.2135634213,2.0650059038,2.8905297008,-0.02428189321837111,-0.036499197982331415,-0.01634064512179691,-63.0078924291143,-54.15083308973985,-1.856182402806197
1699735373,9.1776710823,1.8759729184,2.9587251449000003,-0.018478673455489966,-0.038789942625573975,-0.019700403931885994,-62.686349020754164,-53.99006138555977,-1.3300204618532592
1699735373,9.1776710823,1.8759729184,2.9587251449000003,-0.018478673455489966,-0.038789942625573975,-0.019700403931885994,-63.31482022800351,-54.31160479391991,-1.0523238819058756
1699735373,9.104689993,1.8711872732,2.9850461935,-0.015271630954950384,-0.038026361077826455,-0.005345070834232635,-62.74481145863783,-53.87313650979246,-1.3007892429114294
1699735373,9.104689993,1.8711872732,2.9850461935,-0.015271630954950384,-0.038026361077826455,-0.005345070834232635,-63.022508038585215,-53.90236772873429,-1.900029231218942
1699735373,9.0676012427,2.1020946541,2.9694928465999997,0.003817907738737596,-0.03222314131494531,0.009468411192069237,-63.3002046185326,-53.65390236772873,-0.8477053493130663
1699735373,9.0676012427,2.1020946541,2.9694928465999997,0.003817907738737596,-0.03222314131494531,0.009468411192069237,-63.09558608593978,-53.62467114878691,-1.3007892429114294
1699735373,9.1022971704,2.177468566,2.8785655878,0.022143864884678056,-0.027183503099811684,0.0035124751196385882,-63.65097924583455,-54.07775504238527,-1.6807950891552177
1699735373,9.1022971704,2.177468566,2.8785655878,0.022143864884678056,-0.027183503099811684,0.0035124751196385882,-63.168664133294364,-54.2092955276235,-2.353113124817305
1699735373,9.1346002755,1.9788642901999998,2.8546373618,0.01710422666954443,-0.03329215548179183,-0.01634064512179691,-63.27097339959076,-53.960830166617946,-2.046185325928091
1699735373,9.1346002755,1.9788642901999998,2.8546373618,0.01710422666954443,-0.03329215548179183,-0.01634064512179691,-62.83250511546331,-53.99006138555977,-0.935399006138556
1699735373,9.152546445,1.9154544913,2.9180471607,-0.00839939702522271,-0.049174651674940235,-0.02703078679026218,-63.09558608593978,-54.18006430868167,-0.6723180356620871
1699735373,9.152546445,1.9154544913,2.9180471607,-0.00839939702522271,-0.049174651674940235,-0.02703078679026218,-63.05173925752704,-54.09237065185618,-1.885413621748027
1699735373,9.2554378168,2.1367905818,2.9862426048,0.030848694528999777,-0.04596760917440065,-0.019242255003237483,-63.15404852382345,-54.019292604501615,-0.7307804735457468
1699735373,9.2554378168,2.1367905818,2.9862426048,0.030848694528999777,-0.04596760917440065,-0.019242255003237483,-62.90558316281789,-53.84390529085062,-2.177725811166326
1699735373,9.3032942688,2.1104695332,2.967100024,0.04291328298341058,-0.04153883619746504,-0.017867808217291947,-63.19789535223619,-54.31160479391991,-1.417714118678749
1699735373,9.3032942688,2.1104695332,2.967100024,0.030085112981252254,-0.04581489286485115,-0.01313360262125733,-62.408652440806776,-54.07775504238527,-1.5638702133878981
1699735373,9.2566342281,2.0063817501,2.9694928465999997,0.030085112981252254,-0.04581489286485115,-0.01313360262125733,-62.73019584916691,-54.09237065185618,-0.9938614440222158
1699735373,9.2566342281,2.0063817501,2.9694928465999997,0.024587325837470118,-0.04612032548395016,-0.0024434609527920616,-62.45249926921953,-54.106986261327094,-1.5200233849751534
1699735373,9.1513500337,1.9034903783000001,3.0532416376,0.024587325837470118,-0.04612032548395016,-0.0024434609527920616,-62.73019584916691,-54.2092955276235,-1.0669394913767904
1699735373,9.1513500337,1.9034903783000001,3.0532416376,0.049632800603588746,-0.03451388595818787,0.0160352125026979,-62.90558316281789,-54.0046769950307,-1.636948260742473
1699735373,8.998209387300001,1.9058832009,3.1441688964,0.049632800603588746,-0.03451388595818787,0.0160352125026979,-62.49634609763227,-54.618532592809125,-2.2069570301081556
1699735373,8.998209387300001,1.9058832009,3.1190442591,0.049174651674940235,-0.024129176908821607,0.023212879051524585,-62.45249926921953,-54.39929845074539,-1.607717041800643
1699735373,9.008977089,1.9932212258000002,3.1190442591,0.049174651674940235,-0.024129176908821607,0.023212879051524585,-62.48173048816136,-54.866997953814675,-1.7977199649225375
1699735373,9.104689993,2.2348963083999998,3.0508488149999997,0.028557949885757217,-0.025656340004316644,0.007635815477475192,-61.89710610932476,-54.70622624963462,-1.15463314820228
1699735373,9.104689993,2.2348963083999998,3.0508488149999997,0.028557949885757217,-0.025656340004316644,0.007635815477475192,-62.554808535515924,-54.516223326512716,-1.5492546039169834
1699735373,9.2386880586,2.1978075581,3.0209385325,0.00916297857297023,-0.03558290012503439,-0.024892758456569127,-62.21864951768489,-54.662379421221864,-1.7684887459807075
1699735373,9.2386880586,2.1978075581,3.0209385325,0.00916297857297023,-0.03558290012503439,-0.024892758456569127,-62.49634609763227,-54.69161064016369,-1.8415667933352822
1699735373,9.3128655592,2.0183458631,2.9862426048,-0.0070249502392771765,-0.04474587869800463,-0.037262779530078935,-63.344051446945336,-54.37006723180357,-1.666179479684303
1699735373,9.3128655592,2.0183458631,2.9862426048,-0.0070249502392771765,-0.04474587869800463,-0.037262779530078935,-62.75942706810874,-54.26775796550716,-1.15463314820228
1699735373,9.1561356789,1.9082760235,2.9132615155,-0.019547687622336492,-0.0517708289372818,-0.023212879051524585,-63.05173925752704,-54.22391113709442,-1.0377082724349607
1699735373,9.1561356789,1.9082760235,2.9132615155,-0.019547687622336492,-0.0517708289372818,-0.023212879051524585,-62.890967553346975,-53.66851797719965,-0.24846536100555394
1699735373,9.0400837828,2.0087745727,2.8917261120999997,-0.008857545953871221,-0.05772676500971245,-0.00717766654882668,-62.993276819643384,-54.12160187079801,-1.7246419175679626
1699735373,9.0400837828,2.0087745727,2.8917261120999997,-0.008857545953871221,-0.05772676500971245,-0.00717766654882668,-62.59865536392868,-53.77082724349606,-0.9792458345513008
1699735373,9.0185483794,1.9154544913,2.9467610319,-0.00015271630954950385,-0.06291911953439558,-0.012828170002158322,-62.73019584916691,-54.063139432914355,-0.1169248757673195
1699735373,9.0185483794,1.9154544913,2.9467610319,-0.00015271630954950385,-0.06291911953439558,-0.012828170002158322,-62.62788658287051,-54.15083308973985,-1.1107863197895351
1699735373,9.117850517299999,2.0901305410999997,3.0795626862,-0.006719517620178169,-0.06291911953439558,-0.01511891464540088,-63.09558608593978,-53.580824320374155,-1.5784858228588132
1699735373,9.117850517299999,2.0901305410999997,3.0795626862,-0.006719517620178169,-0.06291911953439558,-0.01511891464540088,-62.49634609763227,-53.5223618824905,-0.7892429114294066
1699735373,9.2231347117,2.2325034857999997,3.1549365981,0.016187928812247405,-0.047952921198544204,-0.01756237559819294,-62.2332651271558,-54.16544869921076,-1.2861736334405145
1699735373,9.2231347117,2.2325034857999997,3.1549365981,0.016187928812247405,-0.047952921198544204,-0.01756237559819294,-62.715580239696,-54.09237065185618,-0.950014615609471
1699735373,9.2614198733,2.0482561456,3.0089744195,0.010842857978014772,-0.03023782929080176,-0.024892758456569127,-62.890967553346975,-54.23852674656533,-1.5200233849751534
1699735373,9.2614198733,2.0482561456,3.0089744195,0.010842857978014772,-0.03023782929080176,-0.024892758456569127,-62.64250219234142,-54.443145279158145,-1.2277111955568547
1699735373,9.200402897,1.8053846516999998,2.8821548217,0.010231992739816757,-0.02550362369476714,-0.015424347264499889,-62.890967553346975,-54.45776088862906,-1.1254019292604502
1699735373,9.200402897,1.8053846516999998,2.8821548217,0.010231992739816757,-0.02550362369476714,-0.015424347264499889,-62.86173633440515,-54.07775504238527,-2.133878982753581
1699735373,9.1585285015,1.8652052167000002,2.9264220398,0.007483099167925688,-0.03283400655314333,0.00916297857297023,-62.613270973399594,-54.25314235603624,-1.826951183864367
1699735373,9.1585285015,1.8652052167000002,2.9264220398,0.007483099167925688,-0.03283400655314333,0.00916297857297023,-62.58403975445776,-54.019292604501615,-2.060800935399006
1699735373,9.0759761218,2.1403798157,2.9240292172,0.02550362369476714,-0.040317105721069016,0.025961772623415653,-63.022508038585215,-53.97544577608886,-1.3154048523823443
1699735374,9.0759761218,2.1403798157,2.9240292172,0.02550362369476714,-0.040317105721069016,0.025961772623415653,-62.993276819643384,-53.94621455714703,-1.4615609470914936
1699735374,9.080761767,2.2468604214,2.9443682093000003,0.017715091907742442,-0.047494772269895694,0.01679879405044542,-62.58403975445776,-54.22391113709442,-0.935399006138556
1699735374,9.080761767,2.2468604214,2.9443682093000003,0.017715091907742442,-0.047494772269895694,0.01679879405044542,-62.83250511546331,-54.04852382344344,-1.666179479684303
1699735374,9.140582332,2.2528424779,3.0005995404,0.014660765716752368,-0.04474587869800463,-0.00717766654882668,-61.984799766150246,-54.019292604501615,-2.616194095293774
1699735374,9.140582332,2.2528424779,3.0005995404,0.014660765716752368,-0.04474587869800463,-0.00717766654882668,-62.74481145863783,-53.960830166617946,-1.4030985092078339
1699735374,9.1346002755,1.9513468303000001,3.0783662749,0.035735616434583894,-0.040317105721069016,-0.02703078679026218,-62.130955860859395,-53.80005846243788,-1.651563870213388
1699735374,9.1346002755,1.9513468303000001,3.0783662749,0.035735616434583894,-0.040317105721069016,-0.02703078679026218,-62.56942414498684,-54.16544869921076,-1.4907921660333234
1699735374,9.0699940653,1.8628123941,3.0352954681,0.019089538693687978,-0.04169155250701455,-0.016951510359994926,-62.67173341128325,-53.85852090032154,-1.5346389944460683
1699735374,9.0699940653,1.8628123941,3.0352954681,0.019089538693687978,-0.04169155250701455,-0.016951510359994926,-62.93481438175972,-53.84390529085062,-0.935399006138556
1699735374,9.128618219,2.0530417908,2.9778677257000004,0.016951510359994926,-0.04352414822160859,0.001069014166846527,-62.48173048816136,-54.063139432914355,-0.7453960830166617
1699735374,9.128618219,2.0530417908,2.9778677257000004,0.016951510359994926,-0.04352414822160859,-0.0003054326190990077,-62.510961707103185,-53.87313650979246,-0.9061677871967261
1699735374,9.2638126959,2.0793628394,2.9180471607,0.012828170002158322,-0.04444044607890562,-0.0003054326190990077,-62.8178895059924,-53.71236480561239,-0.17538731365097923
1699735374,9.2638126959,2.0793628394,2.9180471607,0.038026361077826455,-0.04505131131710363,-0.0035124751196385882,-62.67173341128325,-53.99006138555977,-0.17538731365097923
1699735374,9.2219383004,1.9872391693,3.0568308715,0.038026361077826455,-0.04505131131710363,-0.0035124751196385882,-62.77404267757966,-53.97544577608886,-0.19000292312189418
1699735374,9.2219383004,1.9872391693,3.0568308715,0.06765332513043021,-0.035430183815484885,0.007330382858376184,-63.32943583747442,-54.296989184449,-0.40923706518561825
1699735374,9.096315113900001,1.998006871,3.2291140987,0.06765332513043021,-0.035430183815484885,0.007330382858376184,-62.80327389652148,-54.106986261327094,-0.3946214557147033
1699735374,9.096315113900001,1.998006871,3.2291140987,0.02703078679026218,-0.03298672286269283,0.00717766654882668,-62.788658287050566,-54.09237065185618,-0.7307804735457468
1699735374,9.0783689444,2.1116659445,3.086741154,0.02703078679026218,-0.03298672286269283,0.00717766654882668,-62.86173633440515,-53.71236480561239,-0.8769365682548963
1699735374,9.0783689444,2.1116659445,3.086741154,-0.003665191429188092,-0.04337143191205909,-0.005497787143782138,-62.77404267757966,-53.63928675825782,-0.6430868167202572
1699735374,9.1202433399,2.0291135648000003,3.0089744195,-0.003665191429188092,-0.04337143191205909,-0.005497787143782138,-63.066354866997955,-54.25314235603624,-0.08769365682548962
1699735374,9.1202433399,2.0291135648000003,3.0077780082,0.000916297857297023,-0.04352414822160859,-0.006108652381980153,-62.84712072493422,-53.80005846243788,-0.7746273019584917
1699735374,9.1585285015,2.1104695332,3.0077780082,0.000916297857297023,-0.04352414822160859,-0.006108652381980153,-62.86173633440515,-54.25314235603624,-1.3154048523823443
1699735374,9.1836531388,1.9669001771999999,3.0233313551,0.020463985479633514,-0.04276056667386108,-0.013744467859455345,-63.0078924291143,-53.69774919614147,-1.2423268050277696
1699735374,9.1836531388,1.9669001771999999,3.0233313551,0.020463985479633514,-0.04276056667386108,-0.013744467859455345,-62.42326805027769,-54.0046769950307,-1.1107863197895351
1699735374,9.1022971704,1.79461695,3.2434710343,0.02672535417116317,-0.05238169417547982,-0.011453723216212788,-63.15404852382345,-54.106986261327094,-1.140017538731365
1699735374,9.1022971704,1.79461695,3.2434710343,0.02672535417116317,-0.05238169417547982,-0.011453723216212788,-63.3002046185326,-54.26775796550716,-0.3653902367728734
1699735374,9.1477607998,2.0530417908,3.2470602682000003,0.004276056667386108,-0.05283984310412832,0.0013744467859455344,-62.74481145863783,-53.71236480561239,-1.3300204618532592
1699735374,9.1477607998,2.0530417908,3.2470602682000003,0.004276056667386108,-0.05283984310412832,0.0013744467859455344,-62.291727565039466,-54.296989184449,-0.7892429114294066
1699735374,9.1860459614,2.2193429615,3.0005995404,-0.02183843226557905,-0.05436700619962337,-0.007788531787024695,-62.5255773165741,-54.282373574978074,-1.140017538731365
1699735374,9.1860459614,2.2193429615,3.0005995404,-0.02183843226557905,-0.05436700619962337,-0.007788531787024695,-62.90558316281789,-54.45776088862906,-1.607717041800643
1699735374,9.1034935817,2.1930219129,2.8031916759,-0.030543261909900768,-0.058643062867009474,-0.023518311670623588,-62.97866121017246,-53.94621455714703,-0.7600116924875767
1699735374,9.1034935817,2.1930219129,2.8031916759,-0.030543261909900768,-0.058643062867009474,-0.023518311670623588,-62.75942706810874,-54.31160479391991,-1.636948260742473
1699735374,9.121439751199999,1.9657037659,2.9826533709,0.0012217304763960308,-0.05451972250917286,-0.024740042147019622,-62.8178895059924,-53.887752119263375,-1.6807950891552177
1699735374,9.121439751199999,1.9657037659,2.9826533709,0.0012217304763960308,-0.05451972250917286,-0.024740042147019622,-63.43174510377083,-54.282373574978074,-0.38000584624378836
1699735374,9.1561356789,1.8759729184,3.0819555088,0.028405233576207712,-0.039706240482871,-0.007483099167925688,-62.64250219234142,-53.97544577608886,-0.6138555977784274
1699735374,9.1561356789,1.8759729184,3.0819555088,0.028405233576207712,-0.039706240482871,-0.007483099167925688,-62.64250219234142,-54.09237065185618,-1.3154048523823443
1699735374,9.121439751199999,1.9561324755,2.9084758702999998,0.013286318930806833,-0.03466660226773737,0.006872233929727673,-62.56942414498684,-54.0046769950307,-1.2569424144986847
1699735374,9.121439751199999,1.9561324755,2.9084758702999998,0.013286318930806833,-0.03466660226773737,0.006872233929727673,-62.65711780181233,-53.80005846243788,-1.3154048523823443
1699735374,9.2015993083,2.0147566292,2.9012974024999996,0.007330382858376184,-0.04092797095926703,0.002901609881440573,-62.964045600701546,-53.960830166617946,-0.8184741303712365
1699735374,9.2015993083,2.0147566292,2.9012974024999996,0.007330382858376184,-0.04092797095926703,0.002901609881440573,-63.0078924291143,-54.60391698333821,-0.7161648640748319
1699735374,9.175278259699999,2.0039889275,3.0879375653000003,0.023671027980173093,-0.0478002048889947,-0.002901609881440573,-62.890967553346975,-54.472376498099976,-0.2630809704764689
1699735374,9.175278259699999,2.0039889275,3.0879375653000003,0.023671027980173093,-0.0478002048889947,-0.002901609881440573,-62.77404267757966,-53.94621455714703,-0.8915521777258111
1699735374,9.1118684608,2.1595223965,3.1477581302999997,0.028099800957108706,-0.04153883619746504,0.005497787143782138,-62.49634609763227,-54.18006430868167,-1.3446360713241743
1699735374,9.1118684608,2.1595223965,3.1477581302999997,0.028099800957108706,-0.04153883619746504,0.005497787143782138,-62.65711780181233,-53.97544577608886,-1.4469453376205788
1699735374,9.1393859207,2.1487546948,3.0460631697999996,0.005345070834232635,-0.038942658935123484,-0.000916297857297023,-62.86173633440515,-54.03390821397252,-1.4907921660333234
1699735374,9.1393859207,2.1487546948,3.0460631697999996,0.005345070834232635,-0.038942658935123484,-0.000916297857297023,-62.715580239696,-53.72698041508331,-1.4761765565624088
1699735374,9.1800639049,1.9800607015,2.9324040963,-0.015729779883598895,-0.04276056667386108,-0.010842857978014772,-62.2332651271558,-53.887752119263375,-1.2861736334405145
1699735374,9.1800639049,1.9800607015,2.9324040963,-0.015729779883598895,-0.04276056667386108,-0.006414085001079161,-62.67173341128325,-54.106986261327094,-1.3592516807950892
1699735374,9.1417787433,1.9573288867999998,2.9694928465999997,-0.0004581489286485115,-0.04520402762665313,-0.006414085001079161,-62.408652440806776,-53.610055539315994,-1.929260450160772
1699735374,9.1417787433,1.9573288867999998,2.9694928465999997,0.023671027980173093,-0.04123340357836603,0.008552113334772215,-62.613270973399594,-53.71236480561239,-2.572347266881029
1699735374,9.1034935817,1.9836499354,3.1513473642000003,0.023671027980173093,-0.04123340357836603,0.008552113334772215,-63.110201695410694,-54.42852966968723,-1.7684887459807075
1699735374,9.1034935817,1.9836499354,3.1513473642000003,0.015729779883598895,-0.037720928458727446,0.01038470904936626,-62.73019584916691,-54.09237065185618,-1.5054077755042385
1699735374,9.1716890258,2.1044874766999997,3.1573294206999996,0.015729779883598895,-0.037720928458727446,0.01038470904936626,-62.510961707103185,-54.32622040339082,-0.6138555977784274
1699735374,9.1716890258,2.1044874766999997,3.1573294206999996,-0.014202616788103856,-0.038484510006474966,-0.0024434609527920616,-62.65711780181233,-54.09237065185618,-1.0815551008477053
1699735374,9.162117735399999,2.0267207422,2.9730820805000002,-0.014202616788103856,-0.038484510006474966,-0.0024434609527920616,-62.64250219234142,-53.93159894767612,-1.5054077755042385
1699735374,9.0747797105,2.0243279196,2.9898318387,-0.0032070425005395805,-0.0398589567924205,-0.0030543261909900766,-62.48173048816136,-53.82928968137971,-1.6954106986261326
1699735374,9.0747797105,2.0243279196,2.9898318387,-0.0032070425005395805,-0.0398589567924205,-0.0030543261909900766,-62.437883659748614,-54.23852674656533,-1.0377082724349607
1699735374,9.056833541,2.0673987264,2.9934210726,0.012064588454410803,-0.02641992155206416,0.002138028333693054,-62.59865536392868,-53.82928968137971,-1.3300204618532592
1699735374,9.056833541,2.0673987264,2.9934210726,0.012064588454410803,-0.02641992155206416,0.002138028333693054,-62.70096463022507,-54.384682841274476,-0.8769365682548963
1699735374,9.1728854371,2.009970984,2.9180471607,-0.006872233929727673,-0.024434609527920613,-0.004276056667386108,-62.77404267757966,-54.45776088862906,-1.3446360713241743
1699735374,9.1728854371,2.009970984,2.9180471607,-0.006872233929727673,-0.024434609527920613,-0.004276056667386108,-62.613270973399594,-54.19467991815259,-0.7453960830166617
1699735374,9.1920280179,1.9058832009,2.8869404668999996,-0.0158824961931484,-0.04230241774521256,-0.008704829644321718,-62.8178895059924,-54.03390821397252,-1.3154048523823443
1699735374,9.1920280179,1.9058832009,2.8869404668999996,-0.0158824961931484,-0.04230241774521256,-0.008704829644321718,-62.56942414498684,-53.87313650979246,-1.7831043554516222
1699735374,9.1597249128,2.081755662,3.0293134116,0.00198531202414355,-0.048869219055841226,0.0033597588100890844,-63.15404852382345,-53.960830166617946,-1.169248757673195
1699735374,9.1597249128,2.081755662,3.0293134116,0.00198531202414355,-0.048869219055841226,0.0033597588100890844,-62.49634609763227,-54.296989184449,-1.2569424144986847
1699735374,9.152546445,2.1475582835,3.0329026454999997,0.016951510359994926,-0.038331793696925465,0.002748893571891069,-62.49634609763227,-54.31160479391991,-1.1254019292604502
1699735374,9.152546445,2.1475582835,3.0329026454999997,0.016951510359994926,-0.038331793696925465,0.002748893571891069,-62.554808535515924,-54.19467991815259,-1.2861736334405145
1699735374,9.1680997919,1.9214365478,2.9982067177999996,0.024892758456569127,-0.03115412714809878,-0.009468411192069237,-62.964045600701546,-54.136217480268925,-1.3300204618532592
1699735374,9.1680997919,1.9214365478,2.9982067177999996,0.024892758456569127,-0.03115412714809878,-0.009468411192069237,-63.110201695410694,-54.18006430868167,-0.935399006138556
1699735374,9.1740818484,1.842473402,2.9659036127,0.02550362369476714,-0.025656340004316644,0.0004581489286485115,-62.67173341128325,-53.90236772873429,-1.6223326512715581
1699735374,9.1740818484,1.842473402,2.9659036127,0.02550362369476714,-0.025656340004316644,0.0004581489286485115,-62.62788658287051,-53.49313066354867,-1.0084770534931307
1699735374,9.1561356789,1.9896319919,2.9647072014,0.019089538693687978,-0.03268129024359382,0.011911872144861299,-62.58403975445776,-53.683133586670564,-0.482315112540193
1699735374,9.1561356789,1.9896319919,2.9647072014,0.019089538693687978,-0.03268129024359382,0.011911872144861299,-62.715580239696,-53.75621163402514,-0.7600116924875767
1699735374,9.0699940653,2.1128623558,2.9886354273999998,0.025961772623415653,-0.03940080786377199,0.012522737383059314,-63.168664133294364,-53.610055539315994,-1.3446360713241743
1699735374,9.0699940653,2.1128623558,2.9886354273999998,0.025961772623415653,-0.03940080786377199,0.012522737383059314,-62.97866121017246,-53.916983338205206,-0.8769365682548963
1699735374,9.0831545896,1.9824535241,3.0783662749,0.04321871560250958,-0.03405573702953935,0.005345070834232635,-63.168664133294364,-54.07775504238527,-0.233849751534639
1699735374,9.0831545896,1.9824535241,3.0783662749,0.04321871560250958,-0.03405573702953935,0.005345070834232635,-62.920198772288806,-53.27389652148494,-0.8915521777258111
1699735374,9.1334038642,2.0267207422,3.0723842184,0.04276056667386108,-0.025961772623415653,0.001832595714594046,-62.5255773165741,-53.5223618824905,-0.935399006138556
1699735374,9.1334038642,2.0267207422,3.0723842184,0.04276056667386108,-0.025961772623415653,0.001832595714594046,-62.5255773165741,-53.551593101432324,-0.6138555977784274
1699735374,9.2183490665,2.0267207422,3.0317062341999996,0.038789942625573975,-0.02580905631386615,-0.006261368691529657,-62.467114878690445,-53.66851797719965,-1.3007892429114294
1699735374,9.2183490665,2.0267207422,3.0317062341999996,0.038789942625573975,-0.02580905631386615,-0.006261368691529657,-62.86173633440515,-53.960830166617946,-0.8038585209003215
1699735374,9.1920280179,1.782652837,3.0999016782999997,0.031001410838549282,-0.029168815123955232,-0.004886921905584123,-63.0078924291143,-54.23852674656533,-0.935399006138556
1699735374,9.1920280179,1.782652837,3.0999016782999997,0.031001410838549282,-0.029168815123955232,-0.004886921905584123,-62.73019584916691,-53.99006138555977,-0.8184741303712365
1699735374,9.1501536224,1.9597217094,3.0592236941,0.02550362369476714,-0.025961772623415653,0.012980886311707827,-62.90558316281789,-53.916983338205206,-1.5638702133878981
1699735374,9.1501536224,1.9597217094,3.0592236941,0.02550362369476714,-0.02229658119422756,0.0160352125026979,-63.28558900906168,-53.80005846243788,-1.2861736334405145
1699735374,9.1692962032,1.9680965885,3.0675985732,0.04657847441259867,-0.02229658119422756,0.0160352125026979,-62.87635194387606,-53.25928091201403,-1.2715580239695994
1699735374,9.1692962032,1.9680965885,3.0675985732,0.039706240482871,-0.025350907385217634,0.018173240836390957,-62.83250511546331,-53.785442852966966,-1.2277111955568547
1699735374,9.1022971704,1.9968104597,3.1118657913,0.039706240482871,-0.025350907385217634,0.018173240836390957,-62.686349020754164,-53.405437006723176,-1.6807950891552177
1699735374,9.1022971704,1.9968104597,3.1118657913,0.04428772976935611,-0.027183503099811684,0.010079276430267254,-62.77404267757966,-53.42005261619409,-1.870798012277112
1699735374,8.9742811613,2.0913269524,3.2315069213,0.04428772976935611,-0.027183503099811684,0.010079276430267254,-63.28558900906168,-53.405437006723176,-1.3592516807950892
1699735374,8.9742811613,2.0913269524,3.2315069213,0.037720928458727446,-0.02550362369476714,-0.009468411192069237,-62.94942999123063,-53.916983338205206,-1.4907921660333234
1699735374,9.0185483794,2.0135602179,3.2255248647999997,0.037720928458727446,-0.02550362369476714,-0.009468411192069237,-62.59865536392868,-53.84390529085062,-1.9877228880444315
1699735374,9.055637129700001,1.9585252981,3.0951160330999996,0.03283400655314333,-0.020463985479633514,-0.018936822384138473,-62.920198772288806,-53.84390529085062,-2.2215726395790703
1699735374,9.055637129700001,1.9585252981,3.0951160330999996,0.03283400655314333,-0.020463985479633514,-0.018936822384138473,-63.022508038585215,-53.90236772873429,-1.0084770534931307
1699735374,9.1896351953,2.0051853388,2.9766713144,0.00992656012071775,-0.02748893571891069,-0.02229658119422756,-62.93481438175972,-53.93159894767612,-1.5346389944460683
1699735374,9.1896351953,2.0051853388,2.9766713144,0.00992656012071775,-0.02748893571891069,-0.02229658119422756,-62.437883659748614,-53.84390529085062,-0.8184741303712365
1699735374,9.3152583818,1.8759729184,3.0017959517,-0.0070249502392771765,-0.04871650274629172,-0.03298672286269283,-62.26249634609763,-54.58930137386729,-1.5931014323297281
1699735374,9.3152583818,1.8759729184,3.0017959517,-0.0070249502392771765,-0.04871650274629172,-0.03298672286269283,-62.39403683133587,-53.3177433498977,-1.870798012277112
1699735374,9.1740818484,1.7898313048,3.1513473642000003,0.0030543261909900766,-0.05711589977151443,-0.0160352125026979,-62.890967553346975,-54.22391113709442,-1.3007892429114294
1699735375,9.1740818484,1.7898313048,3.1513473642000003,0.0030543261909900766,-0.05711589977151443,-0.0160352125026979,-62.26249634609763,-54.019292604501615,-1.5784858228588132
1699735375,9.0783689444,2.1104695332,3.2458638569,0.04352414822160859,-0.029626964052603743,0.017256942979093935,-62.73019584916691,-53.71236480561239,-2.0754165448699213
1699735375,9.0783689444,2.1104695332,3.2458638569,0.04352414822160859,-0.029626964052603743,0.017256942979093935,-62.59865536392868,-53.94621455714703,-2.33849751534639
1699735375,9.164510558,2.0494525569,3.1286155494999996,0.060781091200702526,-0.00015271630954950385,0.010995574287564275,-62.48173048816136,-53.71236480561239,-1.5638702133878981
1699735375,9.164510558,2.0494525569,3.1286155494999996,0.060781091200702526,-0.00015271630954950385,0.010995574287564275,-62.788658287050566,-54.19467991815259,-1.3884828997369192
1699735375,9.1860459614,1.8005990065,3.0053851856000002,0.02580905631386615,-0.009621127501618741,-0.012064588454410803,-62.67173341128325,-54.04852382344344,-2.2215726395790703
1699735375,9.1860459614,1.8005990065,3.0053851856000002,0.02580905631386615,-0.009621127501618741,-0.012064588454410803,-62.17480268927215,-53.960830166617946,-2.2215726395790703
1699735375,9.0855474122,2.0327027987,3.0436703472,0.020158552860534508,-0.029321531433504737,-0.009315694882519734,-62.2332651271558,-54.063139432914355,-1.5931014323297281
1699735375,9.0855474122,2.0327027987,3.0436703472,0.020158552860534508,-0.029321531433504737,-0.009315694882519734,-62.67173341128325,-53.785442852966966,-1.373867290266004
1699735375,9.0113699116,2.1475582835,3.0675985732,0.029779680362153248,-0.03787364476827695,-0.01313360262125733,-61.5463314820228,-54.04852382344344,-1.8415667933352822
1699735375,9.0113699116,2.1475582835,3.0675985732,0.029779680362153248,-0.03787364476827695,-0.01313360262125733,-62.17480268927215,-53.610055539315994,-1.666179479684303
1699735375,9.128618219,1.9812571127999998,3.0544380489000003,-0.00198531202414355,-0.04459316238845512,-0.0319177086958463,-62.37942122186495,-53.683133586670564,-1.5784858228588132
1699735375,9.128618219,1.9812571127999998,3.0544380489000003,-0.00198531202414355,-0.04459316238845512,-0.0319177086958463,-62.39403683133587,-53.916983338205206,-2.0754165448699213
1699735375,9.178867493599999,1.9082760235,3.0305098229,-0.026878070480712675,-0.049480084294039245,-0.03451388595818787,-62.75942706810874,-53.887752119263375,-2.265419467991815
1699735375,9.178867493599999,1.9082760235,3.0305098229,-0.026878070480712675,-0.049480084294039245,-0.03451388595818787,-62.67173341128325,-53.82928968137971,-2.090032154340836
1699735375,9.152546445,1.9058832009,3.0927232105,-0.004123340357836604,-0.05009094953223726,-0.020158552860534508,-62.554808535515924,-53.93159894767612,-2.148494592224496
1699735375,9.152546445,1.9058832009,3.0927232105,-0.004123340357836604,-0.05009094953223726,-0.020158552860534508,-62.715580239696,-53.66851797719965,-2.133878982753581
1699735375,9.131011041599999,1.9752750562999999,3.1896325258,0.03359758810089084,-0.038637226316024474,0.0030543261909900766,-62.510961707103185,-53.72698041508331,-1.2423268050277696
1699735375,9.131011041599999,1.9752750562999999,3.1896325258,0.03359758810089084,-0.038637226316024474,0.0030543261909900766,-62.437883659748614,-54.45776088862906,-1.826951183864367
1699735375,9.1992064857,2.1248264688,3.1740791789,0.049785516913138254,-0.021227567027381034,0.007330382858376184,-62.057877813504824,-54.296989184449,-1.8123355743934522
1699735375,9.1992064857,2.1248264688,3.1740791789,0.049785516913138254,-0.021227567027381034,0.007330382858376184,-62.42326805027769,-53.62467114878691,-1.5492546039169834
1699735375,9.1848495501,1.9896319919,3.0089744195,0.029321531433504737,-0.01832595714594046,-0.010842857978014772,-62.73019584916691,-53.94621455714703,-1.1107863197895351
1699735375,9.1848495501,1.9896319919,3.0089744195,0.029321531433504737,-0.01832595714594046,-0.010842857978014772,-61.56094709149371,-53.65390236772873,-1.15463314820228
1699735375,9.080761767,1.8245272325,2.9527430884,0.00519235452468313,-0.029474247743054238,-0.009621127501618741,-61.82402806197018,-53.683133586670564,-0.7892429114294066
1699735375,9.080761767,1.8245272325,2.9527430884,0.00519235452468313,-0.038484510006474966,0.006261368691529657,-62.14557147033031,-53.5223618824905,-0.8038585209003215
1699735375,9.0747797105,1.998006871,3.1405796625,0.012980886311707827,-0.038484510006474966,0.006261368691529657,-62.364805612394036,-53.85852090032154,-1.1107863197895351
1699735375,9.1070828156,2.0757736055,3.1872397032,0.02138028333693054,-0.036041049053682904,0.006414085001079161,-62.028646594563,-53.8146740719088,-1.7977199649225375
1699735375,9.1070828156,2.0757736055,3.1872397032,0.02138028333693054,-0.036041049053682904,0.006414085001079161,-62.087109032446655,-53.77082724349606,-1.3884828997369192
1699735375,9.1513500337,1.9405791285999998,3.1250263156,0.018631389765039467,-0.0316122760767473,-0.0022907446432425577,-62.18941829874306,-53.94621455714703,-1.8415667933352822
1699735375,9.1513500337,1.9405791285999998,3.1250263156,0.018631389765039467,-0.0316122760767473,-0.0022907446432425577,-62.18941829874306,-53.507746273019585,-2.002338497515346
1699735375,9.131011041599999,1.9633109433,3.2338997439000003,0.01756237559819294,-0.031001410838549282,-0.0016798794050445422,-61.8386436714411,-53.960830166617946,-2.28003507746273
1699735375,9.131011041599999,1.9633109433,3.2338997439000003,0.01756237559819294,-0.031001410838549282,-0.0016798794050445422,-61.97018415667933,-53.99006138555977,-2.090032154340836
1699735375,9.064012008799999,2.0542382021,3.2889346637,0.029779680362153248,-0.02672535417116317,0.005497787143782138,-61.99941537562116,-53.66851797719965,-2.6746565331774335
1699735375,9.064012008799999,2.0542382021,3.2889346637,0.029779680362153248,-0.02672535417116317,0.005497787143782138,-62.5255773165741,-53.63928675825782,-2.046185325928091
1699735375,9.0317089037,2.0638094925,3.1812576466999998,0.03344487179134134,-0.019547687622336492,0.0035124751196385882,-61.8386436714411,-53.785442852966966,-2.3823443437591347
1699735375,9.0317089037,2.0638094925,3.1812576466999998,0.03344487179134134,-0.019547687622336492,0.0035124751196385882,-61.85325928091201,-53.960830166617946,-1.5784858228588132
1699735375,9.153742856300001,1.9561324755,3.0281170003,0.00198531202414355,-0.02183843226557905,-0.007635815477475192,-62.10172464191756,-53.43466822566501,-1.6223326512715581
1699735375,9.153742856300001,1.9561324755,3.0281170003,0.00198531202414355,-0.02183843226557905,-0.007635815477475192,-61.88249049985385,-53.5223618824905,-2.046185325928091
1699735375,9.2350988247,1.9274186043000001,3.0783662749,-0.013744467859455345,-0.035735616434583894,-0.016187928812247405,-62.130955860859395,-53.42005261619409,-1.2861736334405145
1699735375,9.2350988247,1.9274186043000001,3.0783662749,-0.013744467859455345,-0.035735616434583894,-0.016187928812247405,-61.88249049985385,-53.332358959368605,-2.33849751534639
1699735375,9.1118684608,1.9633109433,3.1405796625,0.00992656012071775,-0.036041049053682904,-0.004276056667386108,-62.16018707980123,-53.610055539315994,-2.4700380005846245
1699735375,9.1118684608,1.9633109433,3.1405796625,0.00992656012071775,-0.036041049053682904,-0.004276056667386108,-62.39403683133587,-53.332358959368605,-2.4261911721718796
1699735375,9.0281196698,1.9549360641999998,3.1872397032,0.020922134408282025,-0.03329215548179183,0.006566801310628665,-62.24788073662671,-53.43466822566501,-1.8415667933352822
1699735375,9.0281196698,1.9549360641999998,3.1872397032,0.020922134408282025,-0.03329215548179183,0.006566801310628665,-62.27711195556854,-53.75621163402514,-2.0169541069862613
1699735375,9.0029950325,2.0638094925,3.218346397,0.024587325837470118,-0.03497203488683638,0.008093964406123703,-62.291727565039466,-53.63928675825782,-2.28003507746273
1699735375,9.0029950325,2.0638094925,3.218346397,0.024587325837470118,-0.03497203488683638,0.008093964406123703,-62.057877813504824,-53.610055539315994,-2.33849751534639
1699735375,9.0747797105,2.0865413072,3.1501509529,0.012522737383059314,-0.0398589567924205,-0.005803219762881146,-62.26249634609763,-53.683133586670564,-2.2361882490499854
1699735375,9.0747797105,2.0865413072,3.1501509529,0.012522737383059314,-0.0398589567924205,-0.005803219762881146,-62.16018707980123,-53.551593101432324,-2.4554223911137094
1699735375,9.0915294687,2.045863323,3.0999016782999997,-0.00519235452468313,-0.0436768645311581,-0.02275473012287607,-62.26249634609763,-53.82928968137971,-2.2215726395790703
1699735375,9.0915294687,2.045863323,3.0999016782999997,-0.00519235452468313,-0.0436768645311581,-0.02275473012287607,-62.14557147033031,-54.03390821397252,-2.1631102016954107
1699735375,9.1202433399,1.7850456596,3.1908289370999996,-0.004734205596034618,-0.04596760917440065,-0.02626720524251466,-61.94095293773751,-53.71236480561239,-3.1423560362467113
1699735375,9.1202433399,1.7850456596,3.1908289370999996,-0.004734205596034618,-0.04596760917440065,-0.02626720524251466,-61.76556562408653,-53.47851505407776,-2.6308097047646886
1699735375,9.0987079365,1.890329854,3.266202849,0.008552113334772215,-0.038942658935123484,-0.004276056667386108,-61.677871967261034,-53.536977491961416,-2.4261911721718796
1699735375,9.0987079365,1.890329854,3.266202849,0.008552113334772215,-0.038942658935123484,-0.004276056667386108,-62.5255773165741,-53.69774919614147,-2.28003507746273
1699735375,9.1334038642,2.0733807828999997,3.2039894614,0.025350907385217634,-0.02580905631386615,0.00916297857297023,-62.83250511546331,-53.332358959368605,-2.2215726395790703
1699735375,9.1334038642,2.0733807828999997,3.2039894614,0.025350907385217634,-0.02580905631386615,0.00916297857297023,-62.18941829874306,-53.90236772873429,-2.4408067816427943
1699735375,9.1932244292,2.0901305410999997,3.0089744195,0.00992656012071775,-0.02748893571891069,-0.006719517620178169,-62.49634609763227,-53.93159894767612,-2.192341420637241
1699735375,9.1932244292,2.0901305410999997,3.0089744195,0.00992656012071775,-0.02748893571891069,-0.006719517620178169,-62.39403683133587,-53.69774919614147,-2.8646594562993277
1699735375,9.1716890258,1.8963119105000001,3.1381868399,0.020311269170084013,-0.0436768645311581,-0.0198531202414355,-62.3209587839813,-53.887752119263375,-2.572347266881029
1699735375,8.97308475,2.0398812665,3.266202849,0.027947084647559205,-0.048411070127192715,-0.005497787143782138,-61.92633732826659,-53.44928383513593,-2.002338497515346
1699735375,8.97308475,2.0398812665,3.266202849,0.027947084647559205,-0.048411070127192715,-0.005497787143782138,-62.58403975445776,-53.97544577608886,-2.616194095293774
1699735375,9.0317089037,2.1343977592,3.2087751066,0.025198191075668133,-0.04230241774521256,-0.0079412480965742,-62.21864951768489,-53.5223618824905,-2.6746565331774335
1699735375,9.0317089037,2.1343977592,3.2087751066,0.025198191075668133,-0.04230241774521256,-0.0079412480965742,-61.955568547208415,-54.31160479391991,-3.0254311604793918
1699735375,9.1908316066,1.9034903783000001,3.0412775246,-0.001069014166846527,-0.04230241774521256,-0.030543261909900768,-62.408652440806776,-53.49313066354867,-2.28003507746273
1699735375,9.1908316066,1.9034903783000001,3.0412775246,-0.001069014166846527,-0.04230241774521256,-0.030543261909900768,-61.984799766150246,-53.71236480561239,-2.4700380005846245
1699735375,9.1561356789,1.7682959014000001,3.1226334930000004,0.004886921905584123,-0.049174651674940235,-0.02428189321837111,-62.8178895059924,-54.16544869921076,-2.28003507746273
1699735375,9.1561356789,1.7682959014000001,3.1226334930000004,0.004886921905584123,-0.049174651674940235,-0.02428189321837111,-62.3209587839813,-54.443145279158145,-2.762350190002923
1699735375,9.0436730167,1.9752750562999999,3.3032915993,0.03375030441044035,-0.04444044607890562,0.004581489286485115,-62.80327389652148,-53.785442852966966,-1.870798012277112
1699735375,9.0436730167,1.9752750562999999,3.3032915993,0.03375030441044035,-0.04444044607890562,0.004581489286485115,-62.77404267757966,-53.84390529085062,-2.148494592224496
1699735375,9.0113699116,2.1714865095,3.2267212761,0.04444044607890562,-0.03787364476827695,0.005955936072430649,-62.10172464191756,-53.97544577608886,-2.6892721426483486
1699735375,9.0113699116,2.1714865095,3.2267212761,0.04444044607890562,-0.03787364476827695,0.005955936072430649,-62.18941829874306,-53.785442852966966,-1.885413621748027
1699735375,9.117850517299999,1.9633109433,3.1262227269,0.039706240482871,-0.03924809155422248,-0.016646077740895916,-62.408652440806776,-53.69774919614147,-2.4115755627009645
1699735375,9.117850517299999,1.9633109433,3.1262227269,0.039706240482871,-0.03924809155422248,-0.016646077740895916,-62.73019584916691,-53.463899444606845,-1.9584916691026015
1699735375,9.1441715659,1.8209379986,3.158525832,0.014813482026301871,-0.04642575810304917,-0.01832595714594046,-62.70096463022507,-54.063139432914355,-2.39695995323005
1699735375,9.1441715659,1.8209379986,3.158525832,0.014813482026301871,-0.04642575810304917,-0.01832595714594046,-62.27711195556854,-53.65390236772873,-1.169248757673195
1699735375,9.0867438235,2.0303099761,3.2374889778,0.005039638215133627,-0.050243665841786765,-0.005039638215133627,-62.10172464191756,-54.282373574978074,-2.0169541069862613
1699735375,9.0867438235,2.0303099761,3.2374889778,0.005039638215133627,-0.050243665841786765,-0.005039638215133627,-62.65711780181233,-53.66851797719965,-1.870798012277112
1699735375,9.0987079365,2.1834506225,3.1788648241,0.007788531787024695,-0.045356743936202634,-0.007330382858376184,-62.437883659748614,-54.106986261327094,-2.4261911721718796
1699735375,9.0987079365,2.1834506225,3.1788648241,0.007788531787024695,-0.045356743936202634,-0.007330382858376184,-62.70096463022507,-54.32622040339082,-2.4261911721718796
1699735375,9.1429751546,1.9537396529,3.1262227269,0.012217304763960306,-0.046883907031697675,-0.026114488932965158,-62.26249634609763,-54.0046769950307,-2.177725811166326
1699735375,9.1429751546,1.9537396529,3.1262227269,0.012217304763960306,-0.046883907031697675,-0.026114488932965158,-62.540192926045016,-53.916983338205206,-0.8623209587839813
1699735375,9.1058864043,1.7503497318999999,3.266202849,0.027641652028460195,-0.04932736798448974,-0.021227567027381034,-62.84712072493422,-53.77082724349606,-1.8415667933352822
1699735375,9.1058864043,1.7503497318999999,3.266202849,0.027641652028460195,-0.04932736798448974,-0.021227567027381034,-62.73019584916691,-54.019292604501615,-1.198479976615025
1699735375,9.0735832992,1.9968104597,3.2817561959000003,0.029168815123955232,-0.04291328298341058,0.002901609881440573,-62.70096463022507,-53.94621455714703,-1.900029231218942
1699735375,9.0735832992,1.9968104597,3.2817561959000003,0.029168815123955232,-0.04291328298341058,0.002901609881440573,-62.35019000292312,-53.94621455714703,-1.7246419175679626
1699735375,9.121439751199999,2.2013967919999997,3.1669007111,0.009010262263420726,-0.04214970143566306,-0.003665191429188092,-62.130955860859395,-53.85852090032154,-1.4615609470914936
1699735375,9.121439751199999,2.2013967919999997,3.1669007111,0.009010262263420726,-0.04214970143566306,-0.003665191429188092,-62.3209587839813,-54.19467991815259,-1.7246419175679626
1699735375,9.0903330574,1.9788642901999998,3.1429724850999996,0.00916297857297023,-0.04306599929296008,-0.024892758456569127,-62.057877813504824,-54.18006430868167,-1.6954106986261326
1699735375,9.0903330574,1.9788642901999998,3.1429724850999996,0.00916297857297023,-0.04306599929296008,-0.024892758456569127,-61.911721718795675,-54.472376498099976,-1.885413621748027
1699735375,9.0233340246,1.8125631194999998,3.2925238975999997,0.02504547476611863,-0.04184426881656405,-0.018631389765039467,-62.24788073662671,-54.75007307804736,-2.046185325928091
1699735375,9.0233340246,1.8125631194999998,3.2925238975999997,0.02504547476611863,-0.04184426881656405,-0.005803219762881146,-62.30634317451038,-54.983922829581985,-1.4615609470914936
1699735375,9.0305124924,2.1260228801,3.3020951879999996,0.029779680362153248,-0.036193765363232405,-0.005803219762881146,-62.83250511546331,-54.37006723180357,-1.636948260742473
1699735375,9.0305124924,2.1260228801,3.3020951879999996,-0.01634064512179691,-0.0438295808407076,-0.02580905631386615,-62.20403390821397,-53.65390236772873,-1.4323297281496639
1699735375,9.128618219,2.1451654609,3.0664021618999997,-0.01634064512179691,-0.0438295808407076,-0.02580905631386615,-62.2332651271558,-54.23852674656533,-1.8415667933352822
1699735375,9.128618219,2.1451654609,3.0664021618999997,-0.048258353817643214,-0.05711589977151443,-0.04245513405476207,-62.35019000292312,-54.32622040339082,-1.1838643671441098
1699735375,9.2303131795,1.8675980393,3.0687949845,-0.048258353817643214,-0.05711589977151443,-0.04245513405476207,-62.62788658287051,-53.93159894767612,-2.33849751534639
1699735375,9.2303131795,1.8675980393,3.0687949845,-0.003665191429188092,-0.049938233222687756,-0.020616701789183015,-62.67173341128325,-54.15083308973985,-1.900029231218942
