timestamp,acc-x,acc-y,acc-z,gyr-x,gyr-y,gyr-z,mag-x,mag-y,mag-z
1699735988,8.9060857172,2.1236300575,3.1812576466999998,-0.46822820507877877,-0.23380866992029037,-0.2351831167062359,-60.31862028646594,-53.17158725518855,-4.998538439052909
1699735988,9.0831545896,2.2348963083999998,3.23031051,-0.3900374545894328,-0.22342396087092412,-0.22220223039452808,-60.81555100847705,-52.71850336159017,-4.355451622332652
1699735988,9.0831545896,2.2348963083999998,3.23031051,-0.3900374545894328,-0.22342396087092412,-0.22220223039452808,-60.4647763811751,-52.61619409529378,-4.223911137094417
1699735988,9.1597249128,2.1248264688,3.0640093393,-0.3944662275663684,-0.23411410253938938,-0.22388210979957263,-60.53785442852967,-53.14235603624671,-3.8292896813797133
1699735988,9.1597249128,2.1248264688,3.0640093393,-0.3944662275663684,-0.23411410253938938,-0.22388210979957263,-60.91786027477346,-53.42005261619409,-3.610055539315989
1699735988,9.229116768199999,1.7264215058999999,3.158525832,-0.4080579791162742,-0.23762657765902798,-0.22479840765686965,-60.91786027477346,-53.74159602455423,-3.8877521192633733
1699735988,9.229116768199999,1.7264215058999999,3.158525832,-0.4080579791162742,-0.23762657765902798,-0.22479840765686965,-60.757088570593396,-53.5223618824905,-4.428529669687226
1699735988,9.1453679772,1.9369898947,3.3786655112000004,-0.2739730593318099,-0.2064724505109292,-0.17776178431562248,-60.99093832212803,-53.44928383513593,-4.7646886875182695
1699735988,9.1453679772,1.9369898947,3.3786655112000004,-0.2739730593318099,-0.2064724505109292,-0.17776178431562248,-60.698626132709734,-53.3177433498977,-4.340836012861737
1699735988,9.0305124924,2.15354034,3.4408788988000003,-0.22082778360858255,-0.18768834443634022,-0.1507309975253603,-60.567085647471494,-54.063139432914355,-4.384682841274482
1699735988,9.0305124924,2.15354034,3.4408788988000003,-0.22082778360858255,-0.18768834443634022,-0.1507309975253603,-60.8593978368898,-53.74159602455423,-3.55159310143233
1699735988,9.0520478958,2.285145583,3.3320054705,-0.3174972075534185,-0.1944078620565184,-0.1708895503858948,-60.80093539900614,-53.332358959368605,-4.106986261327098
1699735988,9.0520478958,2.285145583,3.3320054705,-0.3174972075534185,-0.1944078620565184,-0.1708895503858948,-60.903244665302545,-54.15083308973985,-4.326220403390821
1699735988,9.1202433399,2.1439690496,3.1633114771999997,-0.377362000896824,-0.18524488348354815,-0.20112737967669655,-60.08477053493131,-53.916983338205206,-3.5662087109032443
1699735988,9.1202433399,2.1439690496,3.1633114771999997,-0.377362000896824,-0.18524488348354815,-0.20112737967669655,-60.21631102016954,-54.530838935983624,-4.6039169833382045
1699735988,9.2027957196,1.8640088054,3.1082765574000004,-0.3828597880406061,-0.1710422666954443,-0.20005836550985004,-60.36246711487869,-54.37006723180357,-4.180064308681672
1699735988,9.2027957196,1.8640088054,3.1082765574000004,-0.3828597880406061,-0.1710422666954443,-0.16096299026517705,-60.420929552762345,-54.384682841274476,-3.332358959368606
1699735988,9.152546445,1.9597217094,3.0269205889999995,-0.34651330636782424,-0.159130394550583,-0.16096299026517705,-60.21631102016954,-54.16544869921076,-3.536977491961415
1699735988,9.152546445,1.9597217094,3.0269205889999995,-0.2848159173098247,-0.13881912538049898,-0.12782355109293472,-60.49400760011693,-54.106986261327094,-3.4200526161940954
1699735988,9.0652084201,2.1391834043999998,2.9659036127,-0.2848159173098247,-0.13881912538049898,-0.12782355109293472,-60.74247296112247,-54.16544869921076,-3.697749196141479
1699735988,9.0652084201,2.1391834043999998,2.9659036127,-0.22113321622768156,-0.11362093430483085,-0.12263119656825158,-61.04940076001169,-54.39929845074539,-1.4030985092078339
1699735988,9.1058864043,2.0781664281,2.9383861528,-0.22113321622768156,-0.11362093430483085,-0.12263119656825158,-60.377082724349606,-54.42852966968723,-3.7854428529669684
1699735988,9.1896351953,1.9106688461,2.9575287336000002,-0.16569719586121168,-0.09773843811168245,-0.11820242359131597,-60.31862028646594,-54.720841859105526,-3.58082432037416
1699735988,9.1896351953,1.9106688461,2.9575287336000002,-0.16569719586121168,-0.09773843811168245,-0.11820242359131597,-60.2747734580532,-54.70622624963462,-3.873136509792458
1699735988,9.2398844699,1.9441683625,3.0281170003,-0.1036943741841131,-0.09514226084934088,-0.08429940287132612,-60.2747734580532,-54.486992107570885,-4.370067231803566
1699735988,9.2398844699,1.9441683625,3.0281170003,-0.1036943741841131,-0.09514226084934088,-0.08429940287132612,-60.39169833382052,-54.296989184449,-4.56007015492546
1699735988,9.0831545896,2.1439690496,3.2243284535,-0.04520402762665313,-0.10690141668465268,-0.050396382151336266,-60.43554516223326,-54.12160187079801,-5.100847705349313
1699735988,9.0831545896,2.1439690496,3.2243284535,-0.04520402762665313,-0.10690141668465268,-0.050396382151336266,-60.50862320958784,-54.15083308973985,-4.823151125401929
1699735988,8.937192411,2.1547367513,3.5162528107,-0.04169155250701455,-0.11575896263852391,-0.030848694528999777,-60.4647763811751,-54.296989184449,-4.428529669687226
1699735988,8.937192411,2.1547367513,3.5162528107,-0.04169155250701455,-0.11575896263852391,-0.030848694528999777,-60.45016077170418,-54.16544869921076,-4.647763811750949
1699735988,8.8713897895,2.1116659445,3.7567314819999997,-0.06230825429619756,-0.11270463644753383,-0.02641992155206416,-60.28938906752411,-54.560070154925455,-4.750073078047355
1699735988,8.8713897895,2.1116659445,3.7567314819999997,-0.06230825429619756,-0.11270463644753383,-0.02641992155206416,-59.997076878105815,-54.37006723180357,-4.340836012861737
1699735988,8.8713897895,2.2013967919999997,3.6538401101999995,-0.07437284275060838,-0.10537425358915764,-0.04046982203061852,-60.72785735165156,-54.91084478222742,-4.180064308681672
1699735988,8.8713897895,2.2013967919999997,3.6538401101999995,-0.07437284275060838,-0.10537425358915764,-0.04046982203061852,-60.26015784858229,-54.58930137386729,-4.457760888629056
1699735988,8.8881395477,2.1260228801,3.4851461168999998,-0.045356743936202634,-0.09315694882519734,-0.059864793343405505,-60.24554223911137,-55.042385267465654,-3.770827243496054
1699735988,8.8881395477,2.1260228801,3.4851461168999998,-0.045356743936202634,-0.09315694882519734,-0.059864793343405505,-60.20169541069863,-54.5016077170418,-4.370067231803566
1699735988,9.0029950325,2.1164515897,3.4420753101,-0.03420845333908886,-0.0916297857297023,-0.0678060414399797,-60.24554223911137,-54.896229172756506,-3.536977491961415
1699735988,9.0029950325,2.1164515897,3.4420753101,-0.05100724738953428,-0.09850201965942997,-0.061391956438900545,-60.21631102016954,-54.75007307804736,-4.223911137094417
1699735988,9.0173519681,2.3928226,3.4253255519,-0.05100724738953428,-0.09850201965942997,-0.061391956438900545,-60.12861736334405,-54.54545454545454,-4.647763811750949
1699735988,9.0352981376,2.4921247379,3.1968109935999998,-0.079412480965742,-0.09621127501618743,-0.0681114740590787,-60.17246419175679,-54.516223326512716,-3.990061385559778
1699735988,9.0352981376,2.4921247379,3.1968109935999998,-0.079412480965742,-0.09025533894375676,-0.07605272215565291,-60.34785150540778,-54.82315112540193,-4.413914060216311
1699735988,9.1477607998,2.1810577999,3.0257241777000004,-0.08628471489546966,-0.09025533894375676,-0.07605272215565291,-60.50862320958784,-54.73545746857644,-4.61853259280912
1699735988,9.1011007591,2.237289131,3.062812928,-0.07880161572754397,-0.08720101275276669,-0.04856378643674222,-60.2747734580532,-54.54545454545454,-4.238526746565332
1699735988,9.1011007591,2.237289131,3.062812928,-0.07880161572754397,-0.08720101275276669,-0.04856378643674222,-60.18707980122772,-54.720841859105526,-4.720841859105525
1699735988,9.054440718399999,2.4335005842,3.0735806297,-0.07040221870232127,-0.08842274322916273,-0.03359758810089084,-59.89476761180941,-54.60391698333821,-3.478515054077755
1699735988,9.019744790699999,2.3629123174999997,3.1621150658999997,-0.05589416929511841,-0.07895433203709348,-0.028252517266658207,-60.31862028646594,-54.70622624963462,-4.4431452791581405
1699735988,9.019744790699999,2.3629123174999997,3.1621150658999997,-0.05589416929511841,-0.07895433203709348,-0.028252517266658207,-60.2747734580532,-54.282373574978074,-4.019292604501608
1699735988,8.9455672901,2.4083759468999997,3.2913274863,0.0003054326190990077,-0.05619960191421741,-0.018020524526841452,-60.45016077170418,-54.472376498099976,-4.428529669687226
1699735988,8.9455672901,2.4083759468999997,3.2913274863,0.0003054326190990077,-0.05619960191421741,-0.018020524526841452,-59.997076878105815,-54.60391698333821,-4.633148202280035
1699735988,8.983852451699999,2.2827527603999997,3.2518459134,0.012064588454410803,-0.04230241774521256,-0.02428189321837111,-59.953230049693076,-54.472376498099976,-4.413914060216311
1699735988,8.983852451699999,2.2827527603999997,3.2518459134,0.012064588454410803,-0.04230241774521256,-0.02428189321837111,-60.567085647471494,-54.12160187079801,-4.486992107570885
1699735988,9.1034935817,2.129612114,3.0687949845,-0.03924809155422248,-0.05268712679457882,-0.040317105721069016,-59.86553639286758,-54.896229172756506,-4.428529669687226
1699735988,9.1034935817,2.129612114,3.0687949845,-0.03924809155422248,-0.05268712679457882,-0.040317105721069016,-59.967845659163984,-54.60391698333821,-3.8439052908506284
1699735988,9.0137627342,2.2707886474,3.1046873235,-0.025961772623415653,-0.06230825429619756,-0.02871066619530672,-60.40631394329144,-54.58930137386729,-3.273896521484946
1699735988,9.0137627342,2.2707886474,3.1046873235,-0.025961772623415653,-0.06230825429619756,-0.02871066619530672,-60.40631394329144,-54.31160479391991,-5.290850628471207
1699735988,9.0364945489,2.2695922361,3.2745777280999997,0.009468411192069237,-0.06047565858160352,-0.02580905631386615,-60.099386144402224,-54.80853551593101,-4.180064308681672
1699735988,9.0364945489,2.2695922361,3.2745777280999997,0.009468411192069237,-0.06047565858160352,-0.02580905631386615,-60.28938906752411,-54.80853551593101,-4.384682841274482
1699735988,9.1429751546,2.0949161863,3.2243284535,0.003665191429188092,-0.058490346557459966,-0.03405573702953935,-60.28938906752411,-54.57468576439638,-4.121601870798012
1699735988,9.1429751546,2.0949161863,3.2243284535,0.003665191429188092,-0.058490346557459966,-0.03405573702953935,-60.40631394329144,-54.15083308973985,-4.2823735749780765
1699735988,9.188438784,2.1511475174,2.931207685,-0.0006108652381980154,-0.05283984310412832,-0.01710422666954443,-59.93861444022216,-54.42852966968723,-4.501607717041801
1699735988,9.188438784,2.1511475174,2.931207685,-0.0006108652381980154,-0.05283984310412832,-0.01710422666954443,-60.11400175387314,-54.560070154925455,-4.413914060216311
1699735988,9.0711904766,2.1463618722,2.9252256285000002,0.03252857393404432,-0.06276640322484607,-0.0013744467859455344,-60.040923706518555,-55.13007892429115,-3.8877521192633733
1699735988,8.9694955161,2.0781664281,3.2614172038,0.07299839596466283,-0.07925976465619249,0.01313360262125733,-60.36246711487869,-55.20315697164572,-4.194679918152587
1699735988,8.9694955161,2.0781664281,3.2614172038,0.07299839596466283,-0.07925976465619249,0.01313360262125733,-60.62554808535516,-55.02776965799474,-3.376205787781351
1699735988,8.9958165647,2.2456640101,3.4767712378,0.07498370798880638,-0.07269296334556383,0.019242255003237483,-60.83016661794797,-55.115463314820225,-3.43466822566501
1699735988,8.9958165647,2.2456640101,3.4767712378,0.07498370798880638,-0.07269296334556383,0.019242255003237483,-61.151710026308095,-55.261619409529374,-3.873136509792458
1699735988,9.010173500299999,2.3138594542,3.4504501892,0.08460483549042512,-0.06154467274845005,0.005650503453331642,-60.50862320958784,-54.720841859105526,-3.098509207833967
1699735988,9.010173500299999,2.3138594542,3.4504501892,0.08460483549042512,-0.06154467274845005,0.005650503453331642,-60.20169541069863,-54.60391698333821,-3.814674071908799
1699735988,8.9204426528,2.1583259852,3.421736318,0.11209377120933582,-0.04520402762665313,-0.0022907446432425577,-60.6693949137679,-54.77930429698918,-3.317743349897691
1699735988,8.9204426528,2.1583259852,3.421736318,0.11209377120933582,-0.04520402762665313,-0.0022907446432425577,-60.11400175387314,-54.720841859105526,-3.390821397252265
1699735988,8.8869431364,2.1236300575,3.4109686163,0.09743300549258344,-0.04108068726881653,-0.0030543261909900766,-59.967845659163984,-54.92546039169833,-3.595439929845075
1699735988,8.8869431364,2.1236300575,3.4109686163,0.09743300549258344,-0.04108068726881653,-0.0030543261909900766,-59.76322712657118,-55.14469453376206,-2.9523531131248175
1699735988,8.9036928946,2.2408783649,3.46959277,0.046883907031697675,-0.058948495486108476,-0.011453723216212788,-60.40631394329144,-54.530838935983624,-2.8646594562993277
1699735988,8.9036928946,2.2408783649,3.46959277,0.046883907031697675,-0.058948495486108476,-0.011453723216212788,-60.05553931598948,-55.34931306635487,-2.9961999415375624
1699735988,8.9479601127,2.2827527603999997,3.613162126,0.00198531202414355,-0.08964447370555875,-0.025350907385217634,-60.479391990646015,-55.05700087693657,-3.288512130955861
1699735988,8.9479601127,2.2827527603999997,3.613162126,0.00198531202414355,-0.08964447370555875,-0.025350907385217634,-59.967845659163984,-55.23238819058754,-3.55159310143233
1699735988,8.9276211206,2.4598216327999998,3.5090743428999995,-0.03222314131494531,-0.09682214025438543,-0.026572637861613665,-63.519438760596316,-55.52470038000584,-3.58082432037416
1699735988,8.9276211206,2.4598216327999998,3.5090743428999995,-0.03222314131494531,-0.09682214025438543,-0.026572637861613665,-60.30400467699503,-54.64776381175095,-3.215434083601286
1699735988,8.943174467499999,2.3629123174999997,3.3104700671000002,-0.022449297503777062,-0.07773260156069746,-0.028099800957108706,-60.12861736334405,-54.70622624963462,-3.2008184741303713
1699735988,8.943174467499999,2.3629123174999997,3.3104700671000002,-0.022449297503777062,-0.07773260156069746,-0.028099800957108706,-60.49400760011693,-54.852382344343766,-3.1277404267757962
1699735988,8.9958165647,2.2863419943,3.1956145822999997,-0.0003054326190990077,-0.06582072941583615,-0.0317649923862968,-59.997076878105815,-54.83776673487284,-3.010815551008477
1699735988,8.9958165647,2.2863419943,3.1956145822999997,-0.0003054326190990077,-0.06582072941583615,-0.0317649923862968,-59.777842736042096,-55.01315404852383,-3.273896521484946
1699735988,8.9994057986,2.2827527603999997,3.3200413575,0.03222314131494531,-0.06933320453547474,-0.03344487179134134,-60.43554516223326,-55.01315404852383,-3.507746273019585
1699735988,8.9994057986,2.2827527603999997,3.3200413575,0.03222314131494531,-0.06933320453547474,-0.03344487179134134,-60.21631102016954,-55.261619409529374,-2.747734580532008
1699735988,8.943174467499999,2.2923240508,3.3690942208,0.02672535417116317,-0.062002821677098564,-0.030085112981252254,-60.18707980122772,-55.115463314820225,-3.1862028646594562
1699735988,8.943174467499999,2.2923240508,3.3690942208,0.02672535417116317,-0.062002821677098564,-0.030085112981252254,-59.9824612686349,-55.05700087693657,-3.171587255188541
1699735989,8.9228354754,2.2181465501999997,3.2554351473,0.012980886311707827,-0.04856378643674222,-0.0316122760767473,-60.143232972814964,-54.75007307804736,-3.332358959368606
1699735989,8.9228354754,2.2181465501999997,3.2554351473,0.0013744467859455344,-0.058490346557459966,-0.03924809155422248,-60.040923706518555,-55.02776965799474,-3.098509207833967
1699735989,8.9742811613,2.1284157027,3.1214370817,0.0013744467859455344,-0.058490346557459966,-0.03924809155422248,-60.24554223911137,-55.02776965799474,-3.4054370067231803
1699735989,8.9742811613,2.1284157027,3.1214370817,0.026572637861613665,-0.08216137453763306,-0.03481931857728687,-60.099386144402224,-55.320081847413036,-3.756211634025139
1699735989,8.9934237421,2.2588245344,3.1860432919,0.026572637861613665,-0.08216137453763306,-0.03481931857728687,-60.02630809704764,-55.02776965799474,-3.6685179771996492
1699735989,8.9934237421,2.2588245344,3.1860432919,0.0555887366760194,-0.10781771454194972,-0.030390545600351263,-59.89476761180941,-55.37854428529669,-3.230049693072201
1699735989,8.885746725099999,2.4394826406999996,3.2697920829,0.0555887366760194,-0.10781771454194972,-0.030390545600351263,-60.099386144402224,-54.75007307804736,-3.4200526161940954
1699735989,8.8678005556,2.4717857458,3.4372896648999998,0.020005836550985003,-0.13836097645185047,-0.04871650274629172,-59.88015200233849,-55.37854428529669,-2.8500438468284126
1699735989,8.8678005556,2.4717857458,3.4372896648999998,0.020005836550985003,-0.13836097645185047,-0.04871650274629172,-59.67553346974569,-54.998538439052915,-3.507746273019585
1699735989,8.8426759183,2.3724836079,3.5736805531,-0.036499197982331415,-0.15745051514553846,-0.07849618310844496,-60.143232972814964,-54.998538439052915,-2.4408067816427943
1699735989,8.8426759183,2.3724836079,3.5736805531,-0.036499197982331415,-0.15745051514553846,-0.07849618310844496,-59.76322712657118,-55.33469745688395,-2.6600409237065183
1699735989,8.939585233599999,2.2241286067,3.4372896648999998,-0.07315111227421234,-0.15027284859671178,-0.09834930334988047,-59.617071031862025,-55.042385267465654,-3.259280912014031
1699735989,8.939585233599999,2.2241286067,3.4372896648999998,-0.07315111227421234,-0.15027284859671178,-0.09834930334988047,-59.923998830751245,-55.553931598947685,-3.4054370067231803
1699735989,9.0053878551,2.1343977592,3.3188449462,-0.08628471489546966,-0.13362677085581587,-0.1036943741841131,-60.21631102016954,-54.95469161064016,-3.273896521484946
1699735989,9.0053878551,2.1343977592,3.3188449462,-0.08628471489546966,-0.13362677085581587,-0.1036943741841131,-60.143232972814964,-55.217772581116634,-3.230049693072201
1699735989,9.0221376133,1.9609181207,3.2829526072,-0.09422596299204386,-0.11346821799528134,-0.09590584239708841,-60.17246419175679,-55.37854428529669,-3.098509207833967
1699735989,9.0221376133,1.9609181207,3.2829526072,-0.09422596299204386,-0.11346821799528134,-0.09590584239708841,-59.74861151710026,-55.15931014323298,-2.747734580532008
1699735989,9.2398844699,2.0662023151,3.1298119607999997,-0.09697485656393494,-0.09987646644537551,-0.08384125394267761,-59.86553639286758,-55.597778427360424,-3.3469745688395203
1699735989,9.2398844699,2.0662023151,3.1298119607999997,-0.09697485656393494,-0.09987646644537551,-0.08384125394267761,-60.12861736334405,-55.1885413621748,-2.7185033615901784
1699735989,9.2159562439,2.2671994135,2.9371897415,-0.059712077033856004,-0.10980302656609325,-0.08200865822808356,-59.83630517392575,-55.37854428529669,-3.230049693072201
1699735989,9.2159562439,2.2671994135,2.9371897415,-0.059712077033856004,-0.10980302656609325,-0.08200865822808356,-60.01169248757673,-54.940076001169246,-2.9961999415375624
1699735989,8.9336031771,2.4275185276999998,2.9742784918,0.018173240836390957,-0.11163562228068731,-0.06444628262989062,-59.93861444022216,-55.261619409529374,-2.762350190002923
1699735989,8.9336031771,2.4275185276999998,2.9742784918,0.018173240836390957,-0.11163562228068731,-0.06444628262989062,-60.12861736334405,-55.80239695995323,-3.1131248173048816
1699735989,8.9288175319,2.4466611085,3.1513473642000003,-0.03115412714809878,-0.13362677085581587,-0.08323038870447959,-60.143232972814964,-55.52470038000584,-2.7185033615901784
1699735989,8.9288175319,2.4466611085,3.1513473642000003,-0.03115412714809878,-0.13362677085581587,-0.08323038870447959,-60.21631102016954,-55.72931891259866,-3.4638994446068403
1699735989,9.0987079365,2.5088744961000002,3.2195428083000004,-0.11682797680537042,-0.1710422666954443,-0.11835513990086548,-59.70476468868752,-55.56854720841859,-3.215434083601286
1699735989,9.0987079365,2.5088744961000002,3.2195428083000004,-0.11682797680537042,-0.18906279122228575,-0.1264491043069892,-60.01169248757673,-55.641625255773164,-3.1862028646594562
1699735989,9.0879402348,2.5770699402,3.0017959517,-0.15775594776463747,-0.18906279122228575,-0.1264491043069892,-59.6901490792166,-56.08009353990061,-2.9961999415375624
1699735989,9.0879402348,2.5770699402,3.0017959517,-0.17837264955382048,-0.18799377705543924,-0.12186761502050406,-59.573224203449286,-56.10932475884244,-2.4700380005846245
1699735989,9.054440718399999,2.4670001006,2.6703900216,-0.17837264955382048,-0.18799377705543924,-0.12186761502050406,-59.66091786027478,-56.22624963460976,-2.5431160479391988
1699735989,9.054440718399999,2.4670001006,2.6703900216,-0.16569719586121168,-0.1798998126493155,-0.11484266478122689,-59.997076878105815,-56.08009353990061,-2.8646594562993277
1699735989,9.2350988247,2.3760728418,2.4957139718,-0.16569719586121168,-0.1798998126493155,-0.11484266478122689,-60.040923706518555,-56.22624963460976,-2.7185033615901784
1699735989,9.2578306394,2.3617159062,2.5830519966999996,-0.12553280644969214,-0.1708895503858948,-0.0919352183488013,-59.80707395498393,-56.44548377667349,-2.762350190002923
1699735989,9.2578306394,2.3617159062,2.5830519966999996,-0.12553280644969214,-0.1708895503858948,-0.0919352183488013,-60.08477053493131,-56.15317158725519,-2.104647763811751
1699735989,9.2793660428,2.4837498588,2.8689942974,-0.09529497715889039,-0.14782938764391973,-0.06704245989223219,-59.997076878105815,-56.1677871967261,-2.9377375036539024
1699735989,9.2793660428,2.4837498588,2.8689942974,-0.09529497715889039,-0.14782938764391973,-0.06704245989223219,-59.587839812920194,-56.094709149371525,-2.39695995323005
1699735989,9.309276325299999,2.5627130046,3.0891339766000003,-0.061391956438900545,-0.10766499823240021,-0.05283984310412832,-60.05553931598948,-56.197018415667934,-2.2508038585209005
1699735989,9.309276325299999,2.5627130046,3.0891339766000003,-0.061391956438900545,-0.10766499823240021,-0.05283984310412832,-59.88015200233849,-56.44548377667349,-1.6223326512715581
1699735989,9.1692962032,2.2348963083999998,3.1645078885,-0.014049900478554353,-0.06261368691529658,-0.03283400655314333,-59.719380298158434,-56.401636948260744,-2.4261911721718796
1699735989,9.1692962032,2.2348963083999998,3.1645078885,-0.014049900478554353,-0.06261368691529658,-0.03283400655314333,-60.28938906752411,-56.22624963460976,-2.2361882490499854
1699735989,9.096315113900001,2.0997018315,3.1417760738,-0.048258353817643214,-0.03451388595818787,-0.004123340357836604,-60.040923706518555,-56.22624963460976,-2.8061970184156677
1699735989,9.096315113900001,2.0997018315,3.1417760738,-0.048258353817643214,-0.03451388595818787,-0.004123340357836604,-60.24554223911137,-55.93393744519146,-2.6892721426483486
1699735989,9.1346002755,2.4323041729,3.134597606,-0.09666942394483594,-0.03497203488683638,0.009621127501618741,-59.923998830751245,-55.96316866413329,-2.966968722595732
1699735989,9.1346002755,2.4323041729,3.134597606,-0.09666942394483594,-0.03497203488683638,0.009621127501618741,-59.9824612686349,-55.74393452206957,-3.1569716457176265
1699735989,8.9718883387,2.5842484079999997,3.2446674455999998,-0.0954476934684399,-0.048258353817643214,0.0032070425005395805,-59.89476761180941,-56.065477930429694,-3.054662379421222
1699735989,8.9718883387,2.5842484079999997,3.2446674455999998,-0.0954476934684399,-0.048258353817643214,0.0032070425005395805,-60.11400175387314,-55.70008769365683,-2.9523531131248175
1699735989,8.8151584584,2.6823541346,3.2721849055,-0.09911288489762798,-0.05146539631818279,-0.014202616788103856,-60.040923706518555,-56.08009353990061,-2.4115755627009645
1699735989,8.8151584584,2.6823541346,3.2721849055,-0.09911288489762798,-0.05146539631818279,-0.014202616788103856,-60.040923706518555,-55.70008769365683,-2.8792750657702424
1699735989,8.8354974505,2.6668007876999997,3.23031051,-0.06963863715457375,-0.03955352417332149,-0.03329215548179183,-60.143232972814964,-55.99239988307513,-2.6600409237065183
1699735989,8.8354974505,2.6668007876999997,3.23031051,-0.06963863715457375,-0.03955352417332149,-0.05314527572322733,-60.12861736334405,-55.6854720841859,-2.28003507746273
1699735989,8.9276211206,2.5244278430000002,3.1166514365,-0.04245513405476207,-0.02306016274197508,-0.05314527572322733,-60.08477053493131,-56.34317451037708,-2.7185033615901784
1699735989,8.9276211206,2.5244278430000002,3.1166514365,-0.09453139561114288,-0.030543261909900768,-0.07666358739385093,-59.66091786027478,-56.12394036831336,-3.4638994446068403
1699735989,9.080761767,2.2552353005,2.9180471607,-0.09453139561114288,-0.030543261909900768,-0.07666358739385093,-60.2747734580532,-56.021631102016954,-3.1569716457176265
1699735989,9.080761767,2.2552353005,2.9180471607,-0.16340645121796912,-0.05009094953223726,-0.07315111227421234,-59.51476176556562,-55.75855013154049,-2.616194095293774
1699735989,9.330811728699999,2.0877377184999997,2.775674216,-0.16340645121796912,-0.05009094953223726,-0.07315111227421234,-59.6901490792166,-56.15317158725519,-2.9523531131248175
1699735989,9.330811728699999,2.0877377184999997,2.8498517166,-0.14630222454842468,-0.06948592084502425,-0.039706240482871,-60.11400175387314,-55.80239695995323,-2.7185033615901784
1699735989,9.2315095908,2.1822542112,2.8498517166,-0.14630222454842468,-0.06948592084502425,-0.039706240482871,-60.05553931598948,-55.875475007307806,-2.6308097047646886
1699735989,9.0077806777,2.3976082452,3.0412775246,-0.06597344572538566,-0.059712077033856004,0.012828170002158322,-60.143232972814964,-55.74393452206957,-3.1423560362467113
1699735989,9.0077806777,2.3976082452,3.0412775246,-0.06597344572538566,-0.059712077033856004,0.012828170002158322,-60.08477053493131,-56.18240280619702,-2.5431160479391988
1699735989,8.9575314031,2.5495524802999996,3.2207392196,-0.030848694528999777,-0.05345070834232634,0.01756237559819294,-60.02630809704764,-55.977784273604215,-3.3469745688395203
1699735989,8.9575314031,2.5495524802999996,3.2207392196,-0.030848694528999777,-0.05345070834232634,0.01756237559819294,-60.17246419175679,-55.948553054662376,-3.054662379421222
1699735989,8.8235333375,2.6464617955999996,3.2650064377,0.002138028333693054,-0.038179077387375956,0.0024434609527920616,-59.997076878105815,-56.15317158725519,-2.8500438468284126
1699735989,8.8235333375,2.6464617955999996,3.2650064377,0.002138028333693054,-0.038179077387375956,0.0024434609527920616,-59.9824612686349,-55.948553054662376,-3.1277404267757962
1699735989,8.85344362,2.6273192148,3.1752755902,-0.008552113334772215,-0.02672535417116317,-0.017867808217291947,-59.967845659163984,-56.44548377667349,-3.317743349897691
1699735989,8.85344362,2.6273192148,3.1752755902,-0.008552113334772215,-0.02672535417116317,-0.017867808217291947,-59.923998830751245,-55.62700964630225,-3.8877521192633733
1699735989,9.0699940653,2.4729821571,3.0831519201,-0.07712173632249944,-0.052228977865930316,-0.05772676500971245,-59.923998830751245,-55.948553054662376,-4.048523823443437
1699735989,9.0699940653,2.4729821571,3.0831519201,-0.07712173632249944,-0.052228977865930316,-0.05772676500971245,-59.573224203449286,-56.021631102016954,-3.55159310143233
1699735989,9.0843510009,2.2959132847,3.0508488149999997,-0.09605855870663792,-0.06872233929727672,-0.06154467274845005,-59.368605670856475,-55.89009061677872,-3.6831335866705643
1699735989,9.0843510009,2.2959132847,3.0508488149999997,-0.09605855870663792,-0.06872233929727672,-0.06154467274845005,-59.41245249926922,-56.15317158725519,-4.106986261327098
1699735989,9.044869428,2.2444675988,3.0257241777000004,-0.07315111227421234,-0.06612616203493515,-0.038179077387375956,-59.88015200233849,-55.96316866413329,-3.610055539315989
1699735989,9.044869428,2.2444675988,3.0257241777000004,-0.07315111227421234,-0.06612616203493515,-0.038179077387375956,-59.4855305466238,-56.44548377667349,-3.814674071908799
1699735989,9.0735832992,2.2480568327,3.0951160330999996,-0.04673119072214818,-0.06856962298772722,-0.02138028333693054,-59.28091201403098,-55.84624378836598,-4.121601870798012
1699735989,9.0735832992,2.2480568327,3.0951160330999996,-0.04673119072214818,-0.06856962298772722,-0.02138028333693054,-59.45629932768196,-55.919321835720545,-4.413914060216311
1699735989,8.9946201534,2.4418754632999997,3.1812576466999998,-0.022449297503777062,-0.06688974358268268,-0.004734205596034618,-59.73399590762934,-56.255480853551596,-2.8792750657702424
1699735989,8.9946201534,2.4418754632999997,3.1812576466999998,-0.022449297503777062,-0.06688974358268268,-0.005803219762881146,-59.80707395498393,-56.00701549254604,-3.6685179771996492
1699735989,8.9718883387,2.6464617955999996,3.1908289370999996,-0.005650503453331642,-0.05528330405692039,-0.005803219762881146,-60.15784858228588,-56.21163402513885,-3.697749196141479
1699735989,8.9718883387,2.6464617955999996,3.1908289370999996,0.00717766654882668,-0.04184426881656405,-0.021685715956029545,-60.099386144402224,-56.12394036831336,-3.6685179771996492
1699735989,8.949156524,2.5040888509,3.1764720014999996,0.00717766654882668,-0.04184426881656405,-0.021685715956029545,-59.821689564454836,-56.08009353990061,-3.317743349897691
1699735989,8.949156524,2.5040888509,3.1764720014999996,0.012675453692608817,-0.028405233576207712,-0.027183503099811684,-60.62554808535516,-56.372405729318906,-3.4638994446068403
1699735989,9.1070828156,2.3341984463,3.2434710343,0.012675453692608817,-0.028405233576207712,-0.027183503099811684,-59.79245834551301,-56.12394036831336,-3.653902367728734
1699735989,9.1070828156,2.3341984463,3.2434710343,-0.024129176908821607,-0.03405573702953935,-0.028252517266658207,-63.592516807950894,-56.21163402513885,-3.332358959368606
1699735989,9.1920280179,2.3186450994000003,3.0520452262999997,-0.024129176908821607,-0.03405573702953935,-0.028252517266658207,-59.9824612686349,-56.255480853551596,-2.7185033615901784
1699735989,9.0400837828,2.309073809,2.9814569596,-0.04856378643674222,-0.049174651674940235,-0.018784106074588972,-59.80707395498393,-56.4600993861444,-3.6392867582578194
1699735989,9.0400837828,2.309073809,2.9814569596,-0.04856378643674222,-0.049174651674940235,-0.018784106074588972,-60.05553931598948,-56.430868167202576,-4.194679918152587
1699735989,8.9958165647,2.4442682859,3.1238299043,-0.02672535417116317,-0.04337143191205909,0.004123340357836604,-60.08477053493131,-55.99239988307513,-3.9462145571470333
1699735989,8.9958165647,2.4442682859,3.1238299043,-0.02672535417116317,-0.04337143191205909,0.004123340357836604,-60.08477053493131,-56.255480853551596,-3.6246711487869043
1699735989,9.0281196698,2.6033909887999998,3.2315069213,0.01832595714594046,-0.023212879051524585,0.011606439525762293,-60.11400175387314,-56.31394329143525,-2.7038877521192632
1699735989,9.0281196698,2.6033909887999998,3.2315069213,0.01832595714594046,-0.023212879051524585,0.011606439525762293,-60.02630809704764,-56.08009353990061,-3.712364805612394
1699735989,8.9898345082,2.3964118339,3.1094729686999996,0.02076941809873252,-0.019089538693687978,-0.004428772976935611,-59.777842736042096,-56.59163987138264,-3.273896521484946
1699735989,8.9898345082,2.3964118339,3.1094729686999996,0.02076941809873252,-0.019089538693687978,-0.004428772976935611,-59.86553639286758,-56.13855597778428,-2.6454253142356037
1699735989,8.9671026935,2.3425733254,2.9898318387,-0.01557706357404939,-0.0319177086958463,-0.013439035240356337,-63.168664133294364,-55.831628178895066,-2.7331189710610935
1699735989,8.9671026935,2.3425733254,2.9898318387,-0.01557706357404939,-0.0319177086958463,-0.013439035240356337,-59.79245834551301,-55.875475007307806,-3.054662379421222
1699735989,9.006584266399999,2.4909283265999997,3.0041887742999998,0.0030543261909900766,-0.03481931857728687,-0.005497787143782138,-59.47091493715288,-56.21163402513885,-3.230049693072201
1699735989,9.006584266399999,2.4909283265999997,3.0041887742999998,0.0030543261909900766,-0.03481931857728687,-0.005497787143782138,-59.6901490792166,-55.74393452206957,-3.55159310143233
1699735989,9.116654106,2.3748764305,2.9778677257000004,0.016187928812247405,-0.03329215548179183,-0.004734205596034618,-59.821689564454836,-56.255480853551596,-3.449283835135925
1699735989,9.116654106,2.3748764305,2.9778677257000004,0.016187928812247405,-0.03329215548179183,-0.004734205596034618,-59.997076878105815,-55.90470622624964,-3.697749196141479
1699735989,9.178867493599999,2.1786649773,3.062812928,0.002596177262341565,-0.04352414822160859,-0.0032070425005395805,-59.93861444022216,-56.18240280619702,-3.1862028646594562
1699735989,9.178867493599999,2.1786649773,3.062812928,0.002596177262341565,-0.04352414822160859,-0.0032070425005395805,-59.85092078339667,-56.021631102016954,-3.9462145571470333
1699735990,9.0783689444,2.3270199785,3.1788648241,0.013439035240356337,-0.04581489286485115,0.022143864884678056,-59.70476468868752,-55.86085939783689,-3.8292896813797133
1699735990,9.0783689444,2.3270199785,3.1788648241,0.013439035240356337,-0.04581489286485115,0.022143864884678056,-59.83630517392575,-56.27009646302251,-3.697749196141479
1699735990,8.9060857172,2.5375883673,3.2099715178999997,0.04413501345980661,-0.036804630601430424,0.03787364476827695,-60.040923706518555,-55.96316866413329,-3.756211634025139
1699735990,8.9060857172,2.5375883673,3.2099715178999997,0.04413501345980661,-0.036804630601430424,0.03787364476827695,-59.821689564454836,-56.372405729318906,-4.004676995030692
1699735990,8.9288175319,2.488535504,3.3008987767,0.0517708289372818,-0.029779680362153248,0.027336219409361186,-63.534054370067224,-56.12394036831336,-3.317743349897691
1699735990,8.9288175319,2.488535504,3.3008987767,0.0517708289372818,-0.029779680362153248,0.027336219409361186,-59.74861151710026,-56.08009353990061,-3.1277404267757962
1699735990,8.9922273308,2.3700907853,3.3296126479000003,0.025350907385217634,-0.026878070480712675,0.011301006906663283,-59.80707395498393,-56.44548377667349,-3.595439929845075
1699735990,9.064012008799999,2.3318056236999998,3.2685956716,-0.019394971312786988,-0.030543261909900768,0.004428772976935611,-59.60245542239111,-55.89009061677872,-3.770827243496054
1699735990,9.064012008799999,2.3318056236999998,3.2685956716,-0.019394971312786988,-0.030543261909900768,0.004428772976935611,-59.617071031862025,-55.80239695995323,-3.3615901783104354
1699735990,9.0699940653,2.4107687694999997,3.1393832512,-0.04352414822160859,-0.03298672286269283,0.006414085001079161,-59.573224203449286,-55.875475007307806,-3.6685179771996492
1699735990,9.0699940653,2.4107687694999997,3.1393832512,-0.04352414822160859,-0.03298672286269283,0.006414085001079161,-59.64630225080386,-55.948553054662376,-3.230049693072201
1699735990,8.998209387300001,2.3413769141,3.0125636533999995,-0.02901609881440573,-0.030848694528999777,0.006414085001079161,-59.86553639286758,-56.08009353990061,-4.428529669687226
1699735990,8.998209387300001,2.3413769141,3.0125636533999995,-0.02901609881440573,-0.030848694528999777,0.006414085001079161,-60.43554516223326,-56.31394329143525,-4.486992107570885
1699735990,8.9671026935,2.2719850587,3.0520452262999997,0.0006108652381980154,-0.03298672286269283,0.00992656012071775,-59.89476761180941,-55.80239695995323,-3.858520900321544
1699735990,8.9671026935,2.2719850587,3.0520452262999997,0.0006108652381980154,-0.03298672286269283,0.00992656012071775,-59.86553639286758,-56.03624671148787,-4.150833089739843
1699735990,8.9826560404,2.3784656644,3.11066938,0.016951510359994926,-0.038637226316024474,0.014660765716752368,-60.01169248757673,-55.670856474714995,-3.770827243496054
1699735990,8.9826560404,2.3784656644,3.11066938,0.016951510359994926,-0.038637226316024474,0.014660765716752368,-59.83630517392575,-56.12394036831336,-4.253142356036247
1699735990,9.0592263636,2.4346969955,3.1549365981,0.013591751549905842,-0.038484510006474966,0.013591751549905842,-59.63168664133295,-55.84624378836598,-3.990061385559778
1699735990,9.0592263636,2.4346969955,3.1549365981,0.013591751549905842,-0.038484510006474966,0.013591751549905842,-60.12861736334405,-55.466237942122184,-3.43466822566501
1699735990,9.081958178299999,2.2911276395,3.11066938,0.0035124751196385882,-0.039706240482871,0.0032070425005395805,-59.6901490792166,-55.58316281788951,-3.916983338205203
1699735990,9.081958178299999,2.2911276395,3.11066938,0.0035124751196385882,-0.039706240482871,0.0032070425005395805,-59.923998830751245,-55.52470038000584,-3.697749196141479
1699735990,9.0891366461,2.2432711875,3.0819555088,0.01557706357404939,-0.03466660226773737,0.007635815477475192,-59.86553639286758,-56.065477930429694,-3.273896521484946
1699735990,9.0891366461,2.2432711875,3.0819555088,0.01557706357404939,-0.03466660226773737,0.007635815477475192,-60.07015492546039,-55.96316866413329,-3.1131248173048816
1699735990,9.056833541,2.2743778813,3.0915267992,0.045356743936202634,-0.024740042147019622,0.024434609527920613,-59.953230049693076,-55.43700672318036,-3.478515054077755
1699735990,9.056833541,2.2743778813,3.0915267992,0.045356743936202634,-0.024740042147019622,0.024434609527920613,-60.040923706518555,-55.29085062847121,-2.835428237357498
1699735990,9.0185483794,2.3676979627,3.1513473642000003,0.056810467152415424,-0.024587325837470118,0.029168815123955232,-60.07015492546039,-55.58316281788951,-3.317743349897691
1699735990,9.0185483794,2.3676979627,3.1513473642000003,0.056810467152415424,-0.024587325837470118,0.024434609527920613,-60.07015492546039,-55.495469161064015,-4.121601870798012
1699735990,9.0532443071,2.2815563491,3.1298119607999997,0.05268712679457882,-0.025198191075668133,0.024434609527920613,-59.9824612686349,-55.90470622624964,-3.55159310143233
1699735990,9.0532443071,2.2815563491,3.1298119607999997,0.04428772976935611,-0.02199114857512855,0.027641652028460195,-59.923998830751245,-55.553931598947685,-3.960830166617948
1699735990,9.108279226899999,2.2289142519,3.0951160330999996,0.04428772976935611,-0.02199114857512855,0.027641652028460195,-63.534054370067224,-55.51008477053493,-3.800058462437884
1699735990,9.108279226899999,2.2289142519,3.0951160330999996,0.06627887834448466,-0.014813482026301871,0.03787364476827695,-59.76322712657118,-55.831628178895066,-3.7854428529669684
1699735990,9.0891366461,2.2636101795999997,3.1800612354,0.06627887834448466,-0.014813482026301871,0.03787364476827695,-59.821689564454836,-55.51008477053493,-3.7854428529669684
1699735990,9.0891366461,2.2636101795999997,3.1800612354,0.09407324668249435,-0.00519235452468313,0.04581489286485115,-59.70476468868752,-55.29085062847121,-3.6246711487869043
1699735990,8.9383888223,2.3988046565,3.182454058,0.09407324668249435,-0.00519235452468313,0.04581489286485115,-59.953230049693076,-55.451622332651276,-3.975445776088863
1699735990,8.9383888223,2.1942183242,3.1896325258,0.08872817584826173,-0.012522737383059314,0.0319177086958463,-60.143232972814964,-55.58316281788951,-3.58082432037416
1699735990,8.9515493466,2.1942183242,3.1896325258,0.08872817584826173,-0.012522737383059314,0.0319177086958463,-60.15784858228588,-55.58316281788951,-4.340836012861737
1699735990,9.0149591455,2.2085752598,3.3080772444999997,0.06337726846304409,-0.03130684345764829,0.029779680362153248,-60.11400175387314,-55.40777550423853,-3.0254311604793918
1699735990,9.0149591455,2.2085752598,3.3080772444999997,0.06337726846304409,-0.03130684345764829,0.029779680362153248,-60.2747734580532,-55.451622332651276,-3.6831335866705643
1699735990,8.9814596291,2.3880369548,3.3487552287,0.049480084294039245,-0.03512475119638588,0.03115412714809878,-60.18707980122772,-55.65624086524408,-3.390821397252265
1699735990,8.9814596291,2.3880369548,3.3487552287,0.049480084294039245,-0.03512475119638588,0.03115412714809878,-60.24554223911137,-55.670856474714995,-3.931598947676118
1699735990,9.0137627342,2.2205393728,3.361915753,0.024129176908821607,-0.037262779530078935,0.012828170002158322,-60.34785150540778,-55.539315989476755,-4.2823735749780765
1699735990,9.0137627342,2.2205393728,3.361915753,0.024129176908821607,-0.037262779530078935,0.012828170002158322,-60.28938906752411,-55.13007892429115,-3.653902367728734
1699735990,9.0281196698,2.1008982428,3.4002009146,0.02336559536107409,-0.0277943683380097,0.0160352125026979,-60.4647763811751,-55.75855013154049,-3.6831335866705643
1699735990,9.0281196698,2.1008982428,3.4002009146,0.02336559536107409,-0.0277943683380097,0.0160352125026979,-60.28938906752411,-55.30546623794213,-3.1131248173048816
1699735990,8.9647098709,2.2241286067,3.3714870434,0.047342055960346185,-0.016493361431346415,0.029321531433504737,-60.21631102016954,-55.33469745688395,-3.1131248173048816
1699735990,8.9647098709,2.2241286067,3.3714870434,0.047342055960346185,-0.016493361431346415,0.029321531433504737,-60.4647763811751,-55.30546623794213,-2.8061970184156677
1699735990,8.873782612100001,2.3150558654999998,3.3104700671000002,0.06933320453547474,-0.015424347264499889,0.022143864884678056,-60.11400175387314,-55.37854428529669,-2.981584332066647
1699735990,8.873782612100001,2.3150558654999998,3.3104700671000002,0.06933320453547474,-0.015424347264499889,0.022143864884678056,-59.74861151710026,-55.29085062847121,-3.040046769950307
1699735990,8.9946201534,2.2145573163,3.2985059541,0.03436116964863836,-0.027947084647559205,-0.0013744467859455344,-59.967845659163984,-55.17392575270389,-3.259280912014031
1699735990,8.9946201534,2.2145573163,3.2985059541,0.03436116964863836,-0.027947084647559205,-0.0013744467859455344,-60.01169248757673,-55.495469161064015,-3.1569716457176265
1699735990,9.050851484499999,2.1678972756,3.3439695835000003,-0.011606439525762293,-0.04230241774521256,-0.020616701789183015,-60.420929552762345,-55.539315989476755,-3.390821397252265
1699735990,9.050851484499999,2.1678972756,3.3439695835000003,-0.011606439525762293,-0.04230241774521256,-0.020616701789183015,-60.12861736334405,-55.466237942122184,-4.70622624963461
1699735990,8.9647098709,2.2432711875,3.2566315586,-0.008246680715673207,-0.038789942625573975,-0.02199114857512855,-60.143232972814964,-55.75855013154049,-4.209295527623502
1699735990,8.9647098709,2.2432711875,3.2566315586,-0.008246680715673207,-0.038789942625573975,-0.02199114857512855,-60.15784858228588,-55.43700672318036,-3.697749196141479
1699735990,9.1130648721,2.0410776778,3.0819555088,-0.007483099167925688,-0.03344487179134134,-0.02336559536107409,-60.17246419175679,-55.977784273604215,-3.770827243496054
1699735990,9.1130648721,2.0410776778,3.0819555088,-0.007483099167925688,-0.03344487179134134,-0.02336559536107409,-60.07015492546039,-56.021631102016954,-4.4431452791581405
1699735990,9.178867493599999,1.9561324755,3.1022945009000003,-0.014966198335851376,-0.047036623341247176,-0.012980886311707827,-59.997076878105815,-55.65624086524408,-3.756211634025139
1699735990,9.178867493599999,1.9561324755,3.1022945009000003,-0.014966198335851376,-0.047036623341247176,-0.012980886311707827,-60.333235895936866,-55.51008477053493,-3.7269804150833092
1699735990,9.0293160811,2.2779671152,3.2159535744,0.018784106074588972,-0.04321871560250958,0.02153299964648004,-60.552470038000585,-55.641625255773164,-3.8439052908506284
1699735990,9.0293160811,2.2779671152,3.2159535744,0.018784106074588972,-0.038484510006474966,0.017409659288643436,-60.53785442852967,-55.6854720841859,-4.106986261327098
1699735990,8.9790668065,2.3497517932000003,3.2446674455999998,0.03359758810089084,-0.038484510006474966,0.017409659288643436,-60.34785150540778,-55.71470330312774,-3.814674071908799
1699735990,8.9790668065,2.3497517932000003,3.2446674455999998,0.03940080786377199,-0.03298672286269283,0.0016798794050445422,-59.9824612686349,-55.422391113709445,-4.136217480268927
1699735990,9.0173519681,2.2193429615,3.2997023654,0.03940080786377199,-0.03298672286269283,0.0016798794050445422,-60.18707980122772,-55.93393744519146,-3.3615901783104354
1699735990,9.0173519681,2.2193429615,3.2997023654,0.04214970143566306,-0.024740042147019622,0.003817907738737596,-60.143232972814964,-55.70008769365683,-2.7038877521192632
1699735990,8.9718883387,2.261217357,3.2327033326,0.04214970143566306,-0.024740042147019622,0.003817907738737596,-60.040923706518555,-55.65624086524408,-3.7854428529669684
1699735990,8.9718883387,2.261217357,3.2327033326,0.030848694528999777,-0.029321531433504737,0.00198531202414355,-60.040923706518555,-56.24086524408067,-4.150833089739843
1699735990,8.9910309195,2.3581266723,3.0951160330999996,0.030848694528999777,-0.029321531433504737,0.00198531202414355,-59.953230049693076,-55.65624086524408,-4.589301373867291
1699735990,8.9910309195,2.3581266723,3.0951160330999996,0.005650503453331642,-0.049632800603588746,-0.01511891464540088,-60.099386144402224,-55.90470622624964,-4.194679918152587
1699735990,9.0939222913,2.2073788485,3.1226334930000004,0.005650503453331642,-0.049632800603588746,-0.01511891464540088,-59.923998830751245,-55.831628178895066,-3.376205787781351
1699735990,9.0939222913,2.1690936869,3.2805597846,-0.008093964406123703,-0.07086036763096977,-0.016493361431346415,-60.36246711487869,-56.03624671148787,-3.6246711487869043
1699735990,9.0472622506,2.1690936869,3.2805597846,-0.008093964406123703,-0.07086036763096977,-0.016493361431346415,-59.923998830751245,-56.021631102016954,-3.6831335866705643
1699735990,8.9084785398,2.3006989299,3.4157542615,0.003665191429188092,-0.07254024703601432,-0.0022907446432425577,-59.73399590762934,-55.33469745688395,-4.545454545454546
1699735990,8.9084785398,2.3006989299,3.4157542615,0.003665191429188092,-0.07254024703601432,-0.0022907446432425577,-60.36246711487869,-55.86085939783689,-3.9462145571470333
1699735990,8.9455672901,2.309073809,3.4325040196999996,0.018631389765039467,-0.059101211795657985,0.0004581489286485115,-60.040923706518555,-55.58316281788951,-2.8938906752411575
1699735990,8.9455672901,2.309073809,3.4325040196999996,0.018631389765039467,-0.059101211795657985,0.0004581489286485115,-59.967845659163984,-55.597778427360424,-3.317743349897691
1699735990,9.055637129700001,2.2707886474,3.2554351473,0.010842857978014772,-0.047189339650796684,-0.005039638215133627,-59.821689564454836,-55.99239988307513,-3.8292896813797133
1699735990,9.055637129700001,2.2707886474,3.2554351473,0.010842857978014772,-0.047189339650796684,-0.005039638215133627,-59.93861444022216,-55.553931598947685,-3.6246711487869043
1699735990,9.0436730167,2.2959132847,3.1920253483999996,0.0004581489286485115,-0.048411070127192715,-0.014660765716752368,-59.93861444022216,-55.40777550423853,-3.610055539315989
1699735990,9.0436730167,2.2959132847,3.1920253483999996,0.0004581489286485115,-0.048411070127192715,-0.014660765716752368,-59.52937737503654,-55.641625255773164,-3.5662087109032443
1699735990,8.983852451699999,2.2277178406,3.2111679291999997,-0.01435533309765336,-0.05436700619962337,-0.025961772623415653,-59.85092078339667,-55.831628178895066,-3.4638994446068403
1699735990,8.983852451699999,2.2277178406,3.2111679291999997,-0.01435533309765336,-0.05436700619962337,-0.025961772623415653,-60.01169248757673,-55.36392867582578,-3.3469745688395203
1699735990,9.0867438235,2.1332013479,3.1908289370999996,-0.02428189321837111,-0.05635231822376691,-0.02703078679026218,-59.777842736042096,-55.10084770534931,-4.209295527623502
1699735990,9.0867438235,2.1332013479,3.1908289370999996,-0.02428189321837111,-0.05635231822376691,-0.02703078679026218,-59.67553346974569,-55.52470038000584,-3.303127740426776
1699735990,9.0903330574,2.1702900981999997,3.1956145822999997,-0.013591751549905842,-0.059253928105207486,-0.01557706357404939,-59.93861444022216,-55.217772581116634,-3.288512130955861
1699735990,9.0903330574,2.1702900981999997,3.1956145822999997,-0.013591751549905842,-0.059253928105207486,-0.01557706357404939,-59.953230049693076,-55.72931891259866,-3.1131248173048816
1699735990,9.0400837828,2.3294128011,3.1334011947,0.00015271630954950385,-0.06001750965295501,-0.0032070425005395805,-59.93861444022216,-55.451622332651276,-3.814674071908799
1699735990,9.0400837828,2.3294128011,3.1334011947,0.00015271630954950385,-0.06001750965295501,-0.0032070425005395805,-59.777842736042096,-55.451622332651276,-3.4200526161940954
1699735990,9.0592263636,2.3282163898,3.1274191382,0.0079412480965742,-0.059253928105207486,-0.005039638215133627,-60.12861736334405,-55.36392867582578,-3.536977491961415
1699735990,9.0592263636,2.3282163898,3.1274191382,0.0079412480965742,-0.059253928105207486,-0.005039638215133627,-60.143232972814964,-55.51008477053493,-3.4054370067231803
1699735990,9.0855474122,2.3246271559,3.1860432919,0.03359758810089084,-0.047342055960346185,-0.0007635815477475192,-60.24554223911137,-55.4808535515931,-3.6246711487869043
1699735990,9.0855474122,2.3246271559,3.1860432919,0.03359758810089084,-0.047342055960346185,-0.0007635815477475192,-60.15784858228588,-55.58316281788951,-3.595439929845075
1699735990,9.1429751546,2.2899312282,3.1381868399,0.0557414529855689,-0.03252857393404432,0.00717766654882668,-60.08477053493131,-55.52470038000584,-3.390821397252265
1699735990,9.1429751546,2.2899312282,3.1381868399,0.0557414529855689,-0.03252857393404432,0.00717766654882668,-60.20169541069863,-55.80239695995323,-3.5223618824905
1699735990,9.104689993,2.1906290903,2.9503502657999996,0.0557414529855689,-0.026114488932965158,0.02199114857512855,-60.26015784858229,-55.1885413621748,-3.814674071908799
1699735990,9.104689993,2.1906290903,2.9503502657999996,0.0557414529855689,-0.026114488932965158,0.02199114857512855,-60.31862028646594,-55.39315989476761,-3.098509207833967
1699735990,9.0472622506,2.2229321954,2.9395825641,0.07925976465619249,-0.024587325837470118,0.04077525464971753,-60.02630809704764,-55.86085939783689,-3.3615901783104354
1699735990,9.0472622506,2.2229321954,2.9395825641,0.07925976465619249,-0.02672535417116317,0.04321871560250958,-60.552470038000585,-55.34931306635487,-3.478515054077755
1699735990,8.9958165647,2.2588245344,3.0723842184,0.12003501930591003,-0.02672535417116317,0.04321871560250958,-60.40631394329144,-55.80239695995323,-4.033908213972523
1699735991,8.9958165647,2.2588245344,3.0723842184,0.16783522419490474,-0.031001410838549282,0.04214970143566306,-60.26015784858229,-55.74393452206957,-4.165448699210757
1699735991,8.9790668065,2.2755742926,3.1812576466999998,0.16783522419490474,-0.031001410838549282,0.04214970143566306,-60.143232972814964,-55.61239403683133,-3.4054370067231803
1699735991,8.9790668065,2.2755742926,3.1812576466999998,0.19135353586552828,-0.03497203488683638,0.04306599929296008,-60.58170125694241,-55.58316281788951,-3.010815551008477
1699735991,8.952745757899999,2.3521446158,3.2518459134,0.19135353586552828,-0.03497203488683638,0.04306599929296008,-60.08477053493131,-55.70008769365683,-3.215434083601286
1699735991,8.952745757899999,2.3521446158,3.2518459134,0.19333884788967187,-0.029932396671702752,0.04352414822160859,-60.07015492546039,-55.261619409529374,-3.230049693072201
1699735991,8.9862452743,2.3521446158,3.3475588174,0.19333884788967187,-0.029932396671702752,0.04352414822160859,-60.17246419175679,-56.08009353990061,-2.4992692195264543
1699735991,9.055637129700001,2.2588245344,3.3631121643,0.15271630954950383,-0.03405573702953935,0.0317649923862968,-60.50862320958784,-55.10084770534931,-3.376205787781351
1699735991,9.055637129700001,2.2588245344,3.3631121643,0.15271630954950383,-0.03405573702953935,0.0317649923862968,-60.36246711487869,-55.52470038000584,-3.0838935983630518
1699735991,9.0676012427,2.1714865095,3.2925238975999997,0.11270463644753383,-0.04138611988791554,0.024587325837470118,-60.099386144402224,-55.276235019000296,-3.1131248173048816
1699735991,9.0676012427,2.1714865095,3.2925238975999997,0.11270463644753383,-0.04138611988791554,0.024587325837470118,-60.20169541069863,-55.261619409529374,-2.9523531131248175
1699735991,9.0281196698,2.1475582835,3.2614172038,0.11087204073293978,-0.04642575810304917,0.03023782929080176,-60.377082724349606,-55.74393452206957,-2.8792750657702424
1699735991,9.0281196698,2.1475582835,3.2614172038,0.11087204073293978,-0.04642575810304917,0.03023782929080176,-60.20169541069863,-55.61239403683133,-3.1569716457176265
1699735991,8.961120637,2.3042881638,3.2482566795000003,0.1424843168096871,-0.036804630601430424,0.04520402762665313,-60.15784858228588,-55.40777550423853,-3.1862028646594562
1699735991,8.961120637,2.3042881638,3.2482566795000003,0.1424843168096871,-0.036804630601430424,0.04520402762665313,-60.80093539900614,-55.14469453376206,-3.449283835135925
1699735991,8.9742811613,2.3892333661,3.2518459134,0.1586722456219345,-0.019242255003237483,0.04413501345980661,-60.040923706518555,-55.597778427360424,-3.332358959368606
1699735991,8.9742811613,2.3892333661,3.2518459134,0.1586722456219345,-0.019242255003237483,0.04413501345980661,-60.05553931598948,-54.91084478222742,-2.4408067816427943
1699735991,9.1453679772,2.2803599377999997,3.2398818003999996,0.12522737383059315,-0.017409659288643436,0.018478673455489966,-60.23092662964046,-55.466237942122184,-3.054662379421222
1699735991,9.1453679772,2.2803599377999997,3.2398818003999996,0.12522737383059315,-0.017409659288643436,0.018478673455489966,-60.21631102016954,-55.4808535515931,-3.2008184741303713
1699735991,9.1142612834,2.141576227,3.3020951879999996,0.11606439525762292,-0.02183843226557905,0.010995574287564275,-59.89476761180941,-55.39315989476761,-2.133878982753581
1699735991,9.1142612834,2.141576227,3.3020951879999996,0.11606439525762292,-0.02183843226557905,0.010995574287564275,-59.9824612686349,-55.99239988307513,-2.7185033615901784
1699735991,8.9671026935,2.2803599377999997,3.2721849055,0.14935655073941473,-0.007330382858376184,0.03023782929080176,-60.53785442852967,-55.75855013154049,-2.7038877521192632
1699735991,8.9671026935,2.2803599377999997,3.2721849055,0.14935655073941473,-0.007330382858376184,0.03023782929080176,-60.11400175387314,-55.81701256942414,-3.054662379421222
1699735991,8.9671026935,2.4095723582,3.1489545415999998,0.139124557999598,0.0016798794050445422,0.030695978219450273,-60.43554516223326,-56.050862320958785,-2.30926629640456
1699735991,8.9671026935,2.4095723582,3.1489545415999998,0.139124557999598,0.0016798794050445422,0.030695978219450273,-60.24554223911137,-55.71470330312774,-2.6600409237065183
1699735991,9.064012008799999,2.3066809864,3.0508488149999997,0.06658431096358366,-0.023823744289722597,0.006261368691529657,-60.479391990646015,-55.553931598947685,-2.747734580532008
1699735991,9.064012008799999,2.3066809864,3.0508488149999997,0.06658431096358366,-0.023823744289722597,0.006261368691529657,-60.523238819058754,-55.01315404852383,-3.43466822566501
1699735991,9.1513500337,2.1702900981999997,3.1501509529,0.022449297503777062,-0.047342055960346185,0.0004581489286485115,-60.45016077170418,-55.14469453376206,-3.303127740426776
1699735991,9.1513500337,2.1702900981999997,3.1501509529,0.022449297503777062,-0.047342055960346185,0.0004581489286485115,-60.61093247588425,-55.086232095878394,-3.0838935983630518
1699735991,9.0987079365,2.1523439287,3.1669007111,0.03940080786377199,-0.04077525464971753,0.020158552860534508,-60.377082724349606,-55.276235019000296,-2.8061970184156677
1699735991,9.0987079365,2.1523439287,3.1669007111,0.03940080786377199,-0.04077525464971753,0.020158552860534508,-59.967845659163984,-54.940076001169246,-3.2446653025431162
1699735991,9.0137627342,2.2169501389,2.967100024,0.0875064453718657,-0.016187928812247405,0.04138611988791554,-60.757088570593396,-55.07161648640748,-2.966968722595732
1699735991,9.0137627342,2.2169501389,2.967100024,0.0875064453718657,-0.016187928812247405,0.04138611988791554,-60.83016661794797,-55.20315697164572,-4.033908213972523
1699735991,9.038887371500001,2.261217357,2.8402804262,0.11774427466266746,-0.014813482026301871,0.038637226316024474,-60.28938906752411,-55.40777550423853,-3.8877521192633733
1699735991,9.038887371500001,2.261217357,2.8402804262,0.11774427466266746,-0.014813482026301871,0.038637226316024474,-60.2747734580532,-55.042385267465654,-3.653902367728734
1699735991,9.0484586619,2.2839491717,3.0843483314,0.1032362252554646,-0.038789942625573975,0.025350907385217634,-59.9824612686349,-55.07161648640748,-2.8792750657702424
1699735991,9.0484586619,2.2839491717,3.0843483314,0.1032362252554646,-0.038789942625573975,0.025350907385217634,-60.24554223911137,-55.4808535515931,-2.5869628763519437
1699735991,9.080761767,2.3030917525,3.3810583338,0.06551529679673715,-0.05421428989007387,0.018173240836390957,-60.36246711487869,-54.92546039169833,-2.046185325928091
1699735991,9.080761767,2.3030917525,3.3810583338,0.030390545600351263,-0.05238169417547982,0.0079412480965742,-59.83630517392575,-54.73545746857644,-2.148494592224496
1699735991,9.1346002755,2.1559331626,3.3678978095,0.030390545600351263,-0.05238169417547982,0.0079412480965742,-60.34785150540778,-55.23238819058754,-2.4700380005846245
1699735991,9.1346002755,2.1559331626,3.0807590974999997,0.039706240482871,-0.03466660226773737,0.01679879405044542,-60.05553931598948,-54.852382344343766,-3.1131248173048816
1699735991,9.1346002755,2.0709879603,3.0807590974999997,0.039706240482871,-0.03466660226773737,0.01679879405044542,-59.821689564454836,-55.34931306635487,-3.610055539315989
1699735991,9.0029950325,2.1391834043999998,3.1896325258,0.09957103382627651,-0.025350907385217634,0.0358883327441334,-60.15784858228588,-54.80853551593101,-3.390821397252265
1699735991,9.0029950325,2.1391834043999998,3.1896325258,0.09957103382627651,-0.025350907385217634,0.0358883327441334,-60.02630809704764,-54.866997953814675,-2.4554223911137094
1699735991,8.9060857172,2.3509482045,3.4600214796,0.12904528156933073,-0.019700403931885994,0.04627304179349966,-60.01169248757673,-54.998538439052915,-2.5138848289973694
1699735991,8.9060857172,2.3509482045,3.4600214796,0.12904528156933073,-0.019700403931885994,0.04627304179349966,-60.15784858228588,-54.80853551593101,-3.0692779888921367
1699735991,8.9515493466,2.3413769141,3.4121650276000004,0.06994406977367276,-0.029168815123955232,0.017409659288643436,-60.28938906752411,-54.852382344343766,-2.4261911721718796
1699735991,8.9515493466,2.3413769141,3.4121650276000004,0.06994406977367276,-0.029168815123955232,0.017409659288643436,-60.523238819058754,-55.01315404852383,-3.1862028646594562
1699735991,9.037690960199999,2.1559331626,3.2673992603000004,-0.006872233929727673,-0.04902193536539073,-0.01710422666954443,-60.02630809704764,-54.472376498099976,-0.20461853259280913
1699735991,9.037690960199999,2.1559331626,3.2673992603000004,-0.006872233929727673,-0.04902193536539073,-0.01710422666954443,-59.89476761180941,-54.82315112540193,-3.697749196141479
1699735991,9.032905315,2.0889341298,3.2566315586,-0.02306016274197508,-0.05467243881872237,-0.018936822384138473,-60.34785150540778,-55.05700087693657,-3.1131248173048816
1699735991,9.032905315,2.0889341298,3.2566315586,-0.02306016274197508,-0.05467243881872237,-0.018936822384138473,-59.923998830751245,-54.618532592809125,-2.7769657994738384
1699735991,8.9874416856,2.1140587671,3.3092736558,-0.008857545953871221,-0.05482515512827187,-0.008552113334772215,-59.90938322128033,-54.720841859105526,-3.259280912014031
1699735991,8.9874416856,2.1140587671,3.3092736558,-0.008857545953871221,-0.05482515512827187,-0.008552113334772215,-59.9824612686349,-54.80853551593101,-3.0838935983630518
1699735991,8.9814596291,2.1367905818,3.4037901484999997,0.010995574287564275,-0.05482515512827187,-0.002138028333693054,-60.08477053493131,-54.77930429698918,-3.5662087109032443
1699735991,8.9814596291,2.1367905818,3.4037901484999997,0.010995574287564275,-0.05482515512827187,-0.002138028333693054,-60.02630809704764,-54.983922829581985,-2.6308097047646886
1699735991,8.9910309195,2.117648001,3.3822547451,0.006414085001079161,-0.05299255941367783,-0.0016798794050445422,-60.18707980122772,-54.54545454545454,-3.43466822566501
1699735991,8.9910309195,2.117648001,3.3822547451,0.006414085001079161,-0.05299255941367783,-0.0016798794050445422,-60.333235895936866,-54.70622624963462,-3.230049693072201
1699735991,9.0305124924,2.1403798157,3.3403803495999997,-0.006719517620178169,-0.0516181126277323,-0.0024434609527920616,-60.11400175387314,-54.83776673487284,-2.5138848289973694
1699735991,9.0305124924,2.1403798157,3.3403803495999997,-0.006719517620178169,-0.0516181126277323,-0.0024434609527920616,-60.143232972814964,-55.01315404852383,-2.7185033615901784
1699735991,9.042476605400001,2.1702900981999997,3.2769705507,-0.0004581489286485115,-0.047036623341247176,-0.0039706240482871,-59.953230049693076,-54.940076001169246,-7.3370359543992985
1699735991,9.042476605400001,2.1702900981999997,3.2769705507,-0.0004581489286485115,-0.047036623341247176,-0.0039706240482871,-59.953230049693076,-55.36392867582578,-3.478515054077755
1699735991,9.0161555568,2.1463618722,3.218346397,0.010537425358915765,-0.04214970143566306,-0.008704829644321718,-60.50862320958784,-55.29085062847121,-2.6454253142356037
1699735991,9.0161555568,2.1463618722,3.218346397,0.010537425358915765,-0.04214970143566306,-0.008704829644321718,-59.923998830751245,-54.91084478222742,-3.0254311604793918
1699735991,9.054440718399999,2.1332013479,3.1764720014999996,0.01038470904936626,-0.038179077387375956,-0.008093964406123703,-59.74861151710026,-54.75007307804736,-2.557731657410114
1699735991,9.054440718399999,2.1332013479,3.1764720014999996,0.01038470904936626,-0.038179077387375956,-0.008093964406123703,-59.88015200233849,-55.02776965799474,-3.0692779888921367
1699735991,9.044869428,2.129612114,3.170489945,0.0015271630954950383,-0.04627304179349966,-0.008857545953871221,-60.143232972814964,-55.01315404852383,-2.484653610055539
1699735991,9.044869428,2.129612114,3.170489945,0.0015271630954950383,-0.04627304179349966,-0.008857545953871221,-60.377082724349606,-55.115463314820225,-3.040046769950307
1699735991,8.9204426528,2.2193429615,3.3547372851999997,0.010995574287564275,-0.06536258048718764,-0.00717766654882668,-59.79245834551301,-54.83776673487284,-2.7185033615901784
1699735991,8.9204426528,2.2193429615,3.3547372851999997,0.010995574287564275,-0.06536258048718764,-0.00717766654882668,-59.967845659163984,-54.69161064016369,-3.49313066354867
1699735991,8.872586200799999,2.3916261887,3.4540394231000002,0.010079276430267254,-0.07254024703601432,-0.01557706357404939,-60.34785150540778,-54.82315112540193,-2.8792750657702424
1699735991,8.872586200799999,2.3916261887,3.4540394231000002,-0.0158824961931484,-0.07284567965511334,-0.04474587869800463,-60.040923706518555,-54.91084478222742,-3.332358959368606
1699735991,8.944370878800001,2.3377876802,3.3750762773,-0.0158824961931484,-0.07284567965511334,-0.04474587869800463,-60.43554516223326,-54.720841859105526,-2.9523531131248175
1699735991,8.944370878800001,2.3377876802,3.3750762773,-0.04321871560250958,-0.06536258048718764,-0.05772676500971245,-60.61093247588425,-54.88161356328559,-3.1569716457176265
1699735991,9.162117735399999,2.1678972756,3.2769705507,-0.04321871560250958,-0.06536258048718764,-0.05772676500971245,-59.9824612686349,-54.940076001169246,-3.376205787781351
1699735991,9.162117735399999,2.1678972756,3.2769705507,-0.06658431096358366,-0.06047565858160352,-0.047494772269895694,-60.12861736334405,-54.91084478222742,-2.8061970184156677
1699735991,9.2219383004,2.1092731219,3.0723842184,-0.06658431096358366,-0.06047565858160352,-0.047494772269895694,-60.28938906752411,-55.51008477053493,-3.449283835135925
1699735991,9.2219383004,2.1092731219,3.0723842184,-0.04153883619746504,-0.05100724738953428,-0.020616701789183015,-59.93861444022216,-55.01315404852383,-3.9462145571470333
1699735991,9.0711904766,2.2301106632,3.0221349438,-0.04153883619746504,-0.05100724738953428,-0.020616701789183015,-60.39169833382052,-55.451622332651276,-3.332358959368606
1699735991,9.0711904766,2.2396819536,3.0293134116,-0.007788531787024695,-0.04657847441259867,-0.012828170002158322,-60.6693949137679,-55.20315697164572,-3.5662087109032443
1699735991,8.9874416856,2.2396819536,3.0293134116,-0.007788531787024695,-0.04657847441259867,-0.012828170002158322,-60.654779304296994,-55.24700380005846,-3.010815551008477
1699735991,9.000602209899998,2.2480568327,3.2829526072,0.018936822384138473,-0.06017022596250451,-0.016646077740895916,-60.552470038000585,-55.40777550423853,-3.215434083601286
1699735991,9.000602209899998,2.2480568327,3.2829526072,0.018936822384138473,-0.06017022596250451,-0.016646077740895916,-60.698626132709734,-55.61239403683133,-2.966968722595732
1699735991,9.0113699116,2.4466611085,3.3571301077999998,0.0012217304763960308,-0.06658431096358366,-0.020005836550985003,-60.62554808535516,-55.51008477053493,-2.6015784858228588
1699735991,9.0113699116,2.4466611085,3.3571301077999998,0.0012217304763960308,-0.06658431096358366,-0.020005836550985003,-60.58170125694241,-55.320081847413036,-2.9231218941829873
1699735991,9.032905315,2.4227328825,3.2793633733,-0.04214970143566306,-0.06597344572538566,-0.03451388595818787,-60.30400467699503,-55.43700672318036,-3.931598947676118
1699735991,9.032905315,2.4227328825,3.2793633733,-0.04214970143566306,-0.06597344572538566,-0.03451388595818787,-60.50862320958784,-55.58316281788951,-3.4200526161940954
1699735991,9.09272588,2.2791635265,3.1022945009000003,-0.058490346557459966,-0.05100724738953428,-0.035430183815484885,-60.07015492546039,-55.4808535515931,-2.7769657994738384
1699735991,9.09272588,2.2791635265,3.1022945009000003,-0.058490346557459966,-0.05100724738953428,-0.035430183815484885,-60.2747734580532,-55.495469161064015,-2.981584332066647
1699735991,9.1118684608,2.1810577999,3.1094729686999996,-0.0319177086958463,-0.040317105721069016,-0.02641992155206416,-60.53785442852967,-55.495469161064015,-3.43466822566501
1699735991,9.1118684608,2.1810577999,3.1094729686999996,-0.0319177086958463,-0.040317105721069016,-0.02641992155206416,-60.20169541069863,-55.1885413621748,-3.4054370067231803
1699735991,9.0604227749,2.1511475174,3.1645078885,-0.014202616788103856,-0.044898595007554123,-0.014813482026301871,-60.15784858228588,-55.62700964630225,-2.9231218941829873
1699735991,9.0604227749,2.1511475174,3.1645078885,-0.014202616788103856,-0.044898595007554123,-0.014813482026301871,-60.24554223911137,-55.15931014323298,-2.9523531131248175
1699735991,9.0017986212,2.3150558654999998,3.0915267992,-0.015729779883598895,-0.04092797095926703,0.000916297857297023,-60.30400467699503,-55.670856474714995,-2.5431160479391988
1699735991,9.0017986212,2.3150558654999998,3.0915267992,-0.015729779883598895,-0.04092797095926703,0.000916297857297023,-60.26015784858229,-55.84624378836598,-3.4200526161940954
1699735991,9.0676012427,2.4215364712,2.9754749031,-0.001832595714594046,-0.03145955976719779,0.0015271630954950383,-60.596316866413325,-55.14469453376206,-3.3615901783104354
1699735991,9.0676012427,2.4215364712,2.9754749031,-0.001832595714594046,-0.03145955976719779,0.0015271630954950383,-60.39169833382052,-55.670856474714995,-3.376205787781351
1699735991,9.1346002755,2.2995025186,2.7996024420000003,0.007330382858376184,-0.031001410838549282,-0.01038470904936626,-60.45016077170418,-55.422391113709445,-3.507746273019585
1699735991,9.1346002755,2.2995025186,2.7996024420000003,0.007330382858376184,-0.031001410838549282,-0.01038470904936626,-59.89476761180941,-55.39315989476761,-3.054662379421222
1699735991,9.1393859207,2.1152551784,2.9766713144,0.038942658935123484,-0.0358883327441334,-0.005955936072430649,-60.02630809704764,-55.217772581116634,-3.975445776088863
1699735991,9.1393859207,2.1152551784,2.9766713144,0.038942658935123484,-0.0358883327441334,-0.005955936072430649,-60.21631102016954,-55.29085062847121,-3.712364805612394
1699735992,9.108279226899999,2.1224336462,3.1573294206999996,0.06307183584394509,-0.03283400655314333,0.01313360262125733,-59.923998830751245,-54.88161356328559,-2.8646594562993277
1699735992,9.108279226899999,2.1224336462,3.1573294206999996,0.06307183584394509,-0.03283400655314333,0.01313360262125733,-60.01169248757673,-55.086232095878394,-2.8938906752411575
1699735992,9.0843510009,2.1726829208,3.182454058,0.07024950239277176,-0.02871066619530672,0.022602013813326566,-60.2747734580532,-55.217772581116634,-3.273896521484946
1699735992,9.0843510009,2.1726829208,3.182454058,0.07024950239277176,-0.02871066619530672,0.022602013813326566,-59.9824612686349,-55.217772581116634,-3.49313066354867
1699735992,9.080761767,2.1726829208,3.2075786953,0.06719517620178168,-0.03222314131494531,0.018478673455489966,-59.93861444022216,-55.597778427360424,-3.040046769950307
1699735992,9.080761767,2.1726829208,3.2075786953,0.06719517620178168,-0.03222314131494531,0.018478673455489966,-60.15784858228588,-55.39315989476761,-3.4054370067231803
1699735992,9.0053878551,2.213360905,3.3056844219,0.057879481319261954,-0.036804630601430424,0.014660765716752368,-60.26015784858229,-55.23238819058754,-2.7769657994738384
1699735992,9.0053878551,2.213360905,3.3056844219,0.057879481319261954,-0.036804630601430424,0.014660765716752368,-59.93861444022216,-55.58316281788951,-3.4054370067231803
1699735992,8.97308475,2.2384855423,3.3810583338,0.05329799203277684,-0.037262779530078935,0.007788531787024695,-60.17246419175679,-55.02776965799474,-3.259280912014031
1699735992,8.97308475,2.2384855423,3.3810583338,0.05329799203277684,-0.037262779530078935,0.007788531787024695,-60.099386144402224,-55.276235019000296,-3.6246711487869043
1699735992,9.0281196698,2.2205393728,3.3487552287,0.022907446432425576,-0.037110063220529434,0.0006108652381980154,-59.997076878105815,-55.52470038000584,-3.230049693072201
1699735992,9.0281196698,2.2205393728,3.3487552287,0.022907446432425576,-0.038942658935123484,-0.0004581489286485115,-60.49400760011693,-55.39315989476761,-3.390821397252265
1699735992,9.064012008799999,2.2468604214,3.2458638569,-0.0022907446432425577,-0.038942658935123484,-0.0004581489286485115,-60.26015784858229,-55.40777550423853,-3.58082432037416
1699735992,9.064012008799999,2.2468604214,3.2458638569,-0.011759155835311794,-0.036041049053682904,0.00839939702522271,-60.01169248757673,-55.33469745688395,-3.58082432037416
1699735992,9.0185483794,2.261217357,3.0604201053999995,-0.011759155835311794,-0.036041049053682904,0.00839939702522271,-60.11400175387314,-55.13007892429115,-4.209295527623502
1699735992,9.0185483794,2.261217357,3.0604201053999995,0.02153299964648004,-0.035430183815484885,0.018478673455489966,-60.11400175387314,-55.43700672318036,-4.180064308681672
1699735992,8.9778703952,2.2301106632,3.0281170003,0.02153299964648004,-0.035430183815484885,0.018478673455489966,-60.523238819058754,-54.77930429698918,-3.449283835135925
1699735992,8.9778703952,2.2301106632,3.0281170003,0.05818491393836096,-0.04123340357836603,0.019394971312786988,-60.36246711487869,-55.23238819058754,-3.6831335866705643
1699735992,8.9539421692,2.189432679,3.206382284,0.05818491393836096,-0.04123340357836603,0.019394971312786988,-60.15784858228588,-55.17392575270389,-3.449283835135925
1699735992,8.9539421692,2.189432679,3.206382284,0.06398813370124211,-0.05497787143782138,0.006719517620178169,-60.24554223911137,-55.10084770534931,-3.5662087109032443
1699735992,9.010173500299999,2.2648065909,3.3308090592,0.06398813370124211,-0.05497787143782138,0.006719517620178169,-60.143232972814964,-55.042385267465654,-3.3615901783104354
1699735992,9.010173500299999,2.2648065909,3.4588250683,0.058490346557459966,-0.06291911953439558,-0.00839939702522271,-60.479391990646015,-55.115463314820225,-2.762350190002923
1699735992,8.9407816449,2.0973090089,3.4588250683,0.058490346557459966,-0.06291911953439558,-0.00839939702522271,-60.24554223911137,-54.73545746857644,-3.1862028646594562
1699735992,8.9599242257,2.0685951377,3.5222348672,0.05207626155638081,-0.05085453107998478,-0.004428772976935611,-59.9824612686349,-55.13007892429115,-4.53083893598363
1699735992,8.9599242257,2.0685951377,3.5222348672,0.05207626155638081,-0.05085453107998478,-0.004428772976935611,-60.23092662964046,-55.52470038000584,-3.5662087109032443
1699735992,9.0759761218,2.1523439287,3.5066815203,0.02748893571891069,-0.04169155250701455,-0.006719517620178169,-60.420929552762345,-55.261619409529374,-2.6746565331774335
1699735992,9.0759761218,2.1523439287,3.5066815203,0.02748893571891069,-0.04169155250701455,-0.006719517620178169,-60.61093247588425,-55.34931306635487,-3.800058462437884
1699735992,9.1322074529,2.1583259852,3.4779676491,-0.013591751549905842,-0.04642575810304917,-0.02153299964648004,-60.58170125694241,-55.39315989476761,-4.033908213972523
1699735992,9.1322074529,2.1583259852,3.4779676491,-0.013591751549905842,-0.04642575810304917,-0.02153299964648004,-59.6901490792166,-55.23238819058754,-3.712364805612394
1699735992,9.1106720495,2.0865413072,3.1776684127999997,-0.07070765132142026,-0.048869219055841226,-0.03222314131494531,-60.143232972814964,-55.17392575270389,-3.6392867582578194
1699735992,9.1106720495,2.0865413072,3.1776684127999997,-0.07070765132142026,-0.048869219055841226,-0.03222314131494531,-60.596316866413325,-55.33469745688395,-3.8439052908506284
1699735992,9.1992064857,2.0985054202,2.9228328059,-0.08842274322916273,-0.047342055960346185,-0.02901609881440573,-60.4647763811751,-55.13007892429115,-4.0777550423852675
1699735992,9.1992064857,2.0985054202,2.9228328059,-0.08842274322916273,-0.047342055960346185,-0.02901609881440573,-60.62554808535516,-55.276235019000296,-3.8877521192633733
1699735992,9.128618219,2.03389921,2.8761727652,-0.05772676500971245,-0.050396382151336266,-0.02076941809873252,-60.05553931598948,-55.33469745688395,-3.9462145571470333
1699735992,9.128618219,2.03389921,2.8761727652,-0.05772676500971245,-0.050396382151336266,-0.02076941809873252,-63.56328558900907,-55.51008477053493,-4.121601870798012
1699735992,9.0975115252,2.045863323,2.9371897415,-0.03466660226773737,-0.05497787143782138,-0.0070249502392771765,-60.78631978953523,-55.33469745688395,-3.536977491961415
1699735992,9.0975115252,2.045863323,2.9371897415,-0.03466660226773737,-0.05497787143782138,-0.0070249502392771765,-60.58170125694241,-55.1885413621748,-3.595439929845075
1699735992,9.0580299523,2.1798613886,3.1429724850999996,0.006261368691529657,-0.05742133239061344,0.004428772976935611,-60.17246419175679,-55.05700087693657,-3.7854428529669684
1699735992,9.0580299523,2.1798613886,3.1429724850999996,0.006261368691529657,-0.05742133239061344,0.004428772976935611,-60.05553931598948,-55.20315697164572,-3.536977491961415
1699735992,9.0281196698,2.2887348169,3.2590243811999997,0.05207626155638081,-0.04550946024575214,0.014660765716752368,-60.61093247588425,-54.95469161064016,-3.390821397252265
1699735992,9.0281196698,2.2887348169,3.2590243811999997,0.05207626155638081,-0.04550946024575214,0.014660765716752368,-60.74247296112247,-55.02776965799474,-3.536977491961415
1699735992,9.128618219,2.2408783649,3.3212377687999997,0.07681630370340044,-0.025350907385217634,0.018936822384138473,-60.83016661794797,-54.940076001169246,-3.858520900321544
1699735992,9.128618219,2.2408783649,3.3212377687999997,0.07681630370340044,-0.025350907385217634,0.018936822384138473,-60.84478222741888,-55.33469745688395,-3.697749196141479
1699735992,9.1238325738,2.1092731219,3.3726834547,0.07895433203709348,-0.010079276430267254,0.01756237559819294,-60.420929552762345,-55.451622332651276,-3.653902367728734
1699735992,9.1238325738,2.1092731219,3.3726834547,0.07895433203709348,-0.010079276430267254,0.01756237559819294,-60.61093247588425,-54.983922829581985,-3.931598947676118
1699735992,8.9024964833,2.009970984,3.3906296242,0.07696902001294993,-0.003817907738737596,0.021685715956029545,-60.50862320958784,-54.998538439052915,-4.106986261327098
1699735992,8.9024964833,2.009970984,3.3906296242,0.07696902001294993,-0.003817907738737596,0.021685715956029545,-60.53785442852967,-55.422391113709445,-4.2823735749780765
1699735992,8.7409809578,1.9740786449999999,3.4408788988000003,0.07528914060790538,-0.024740042147019622,0.022143864884678056,-60.976322712657115,-54.720841859105526,-3.800058462437884
1699735992,8.7409809578,1.9740786449999999,3.4408788988000003,0.07528914060790538,-0.024740042147019622,0.022143864884678056,-60.62554808535516,-55.217772581116634,-3.712364805612394
1699735992,8.7625163612,2.0650059038,3.613162126,0.0439822971502571,-0.0755945732270044,0.00717766654882668,-60.68401052323882,-55.086232095878394,-3.332358959368606
1699735992,8.7625163612,2.0650059038,3.613162126,0.0439822971502571,-0.0755945732270044,0.00717766654882668,-60.479391990646015,-54.940076001169246,-3.5223618824905
1699735992,8.8522472087,2.2887348169,3.6969109170000003,-0.011911872144861299,-0.11468994847167738,-0.012522737383059314,-60.20169541069863,-55.05700087693657,-3.6831335866705643
1699735992,8.8522472087,2.2887348169,3.6969109170000003,-0.011911872144861299,-0.11468994847167738,-0.012522737383059314,-60.50862320958784,-55.17392575270389,-3.6831335866705643
1699735992,8.9682991048,2.2935204621,3.6454652310999998,-0.09330966513474685,-0.13713924597545443,-0.05513058774737088,-60.31862028646594,-55.61239403683133,-4.004676995030692
1699735992,8.9682991048,2.2935204621,3.6454652310999998,-0.09330966513474685,-0.13713924597545443,-0.05513058774737088,-60.83016661794797,-54.77930429698918,-4.004676995030692
1699735992,9.2111705987,2.1451654609,3.5102707542,-0.16768250788535521,-0.13729196228500395,-0.08643743120501916,-60.72785735165156,-55.1885413621748,-3.55159310143233
1699735992,9.2111705987,2.1451654609,3.5102707542,-0.16768250788535521,-0.13729196228500395,-0.08643743120501916,-60.31862028646594,-55.086232095878394,-2.528500438468284
1699735992,9.2506521716,2.0757736055,3.2219356309,-0.15577063574049393,-0.1032362252554646,-0.06658431096358366,-60.50862320958784,-54.720841859105526,-3.098509207833967
1699735992,9.2506521716,2.0757736055,3.2219356309,-0.15577063574049393,-0.1032362252554646,-0.06658431096358366,-60.523238819058754,-55.30546623794213,-2.6600409237065183
1699735992,9.0699940653,2.0183458631,2.9718856692,-0.10567968620825664,-0.0719293817978163,-0.040317105721069016,-60.143232972814964,-55.29085062847121,-2.820812627886583
1699735992,9.0699940653,2.0183458631,2.9718856692,-0.10567968620825664,-0.0719293817978163,-0.024129176908821607,-60.420929552762345,-55.320081847413036,-3.4054370067231803
1699735992,9.1034935817,2.0841484846,2.7326034091999998,-0.06872233929727672,-0.05436700619962337,-0.024129176908821607,-60.20169541069863,-55.320081847413036,-3.6685179771996492
1699735992,9.1034935817,2.0841484846,2.7326034091999998,0.0016798794050445422,-0.04444044607890562,-0.008093964406123703,-60.040923706518555,-55.553931598947685,-3.171587255188541
1699735992,9.1680997919,2.3186450994000003,2.7110680058,0.0016798794050445422,-0.04444044607890562,-0.008093964406123703,-60.040923706518555,-55.276235019000296,-3.478515054077755
1699735992,9.1680997919,2.3186450994000003,2.7110680058,0.10155634585042005,-0.027183503099811684,0.012828170002158322,-59.923998830751245,-55.539315989476755,-3.697749196141479
1699735992,9.1872423727,2.5519453029,2.8307091358,0.10155634585042005,-0.027183503099811684,0.012828170002158322,-59.89476761180941,-55.17392575270389,-2.7185033615901784
1699735992,9.1202433399,2.5842484079999997,2.775674216,0.13836097645185047,-0.001832595714594046,0.017409659288643436,-60.58170125694241,-55.81701256942414,-3.43466822566501
1699735992,9.1202433399,2.5842484079999997,2.775674216,0.13836097645185047,-0.001832595714594046,0.017409659288643436,-60.24554223911137,-55.56854720841859,-2.8646594562993277
1699735992,9.1417787433,2.4741785684,2.7302105866,0.13729196228500395,0.020922134408282025,0.013591751549905842,-59.953230049693076,-55.20315697164572,-2.835428237357498
1699735992,9.1417787433,2.4741785684,2.7302105866,0.13729196228500395,0.020922134408282025,0.013591751549905842,-59.997076878105815,-55.17392575270389,-2.8938906752411575
1699735992,9.3667040677,2.2229321954,2.8079773211,0.11698069311491993,0.02229658119422756,0.004734205596034618,-60.72785735165156,-55.05700087693657,-3.0692779888921367
1699735992,9.3667040677,2.2229321954,2.8079773211,0.11698069311491993,0.02229658119422756,0.004734205596034618,-60.61093247588425,-54.67699503069278,-3.2008184741303713
1699735992,9.2255275343,2.141576227,2.9084758702999998,0.10186177846951905,0.002901609881440573,0.02672535417116317,-60.567085647471494,-54.95469161064016,-2.7331189710610935
1699735992,9.2255275343,2.141576227,2.9084758702999998,0.10186177846951905,0.002901609881440573,0.02672535417116317,-61.04940076001169,-55.17392575270389,-3.1423560362467113
1699735992,9.0257268472,2.2839491717,2.9371897415,0.13790282752320196,0.006566801310628665,0.06582072941583615,-60.420929552762345,-55.276235019000296,-3.43466822566501
1699735992,9.0257268472,2.2839491717,2.9371897415,0.13790282752320196,0.006566801310628665,0.06582072941583615,-60.20169541069863,-55.13007892429115,-3.960830166617948
1699735992,9.0879402348,2.3306092124,3.1405796625,0.18555031610264716,0.013591751549905842,0.07483099167925687,-60.34785150540778,-55.115463314820225,-2.9523531131248175
1699735992,9.0879402348,2.3306092124,3.1405796625,0.18555031610264716,0.013591751549905842,0.07483099167925687,-60.6693949137679,-55.34931306635487,-2.835428237357498
1699735992,9.148957211099999,2.3018953412000003,3.3236305914,0.21288653551200834,0.02871066619530672,0.06841690667817772,-60.45016077170418,-55.37854428529669,-2.9231218941829873
1699735992,9.148957211099999,2.3018953412000003,3.3236305914,0.21288653551200834,0.02871066619530672,0.06841690667817772,-60.15784858228588,-55.39315989476761,-3.1131248173048816
1699735992,9.010173500299999,2.1726829208,3.2733813167999997,0.18448130193580065,0.038942658935123484,0.06276640322484607,-60.28938906752411,-55.14469453376206,-2.557731657410114
1699735992,9.010173500299999,2.1726829208,3.2733813167999997,0.18448130193580065,0.038942658935123484,0.06276640322484607,-60.50862320958784,-54.75007307804736,-3.1131248173048816
1699735992,8.9001036607,2.1822542112,3.3296126479000003,0.16187928812247407,0.02871066619530672,0.0675006088208807,-60.874013446360706,-54.618532592809125,-2.762350190002923
1699735992,8.9001036607,2.1822542112,3.3296126479000003,0.16187928812247407,0.02871066619530672,0.0675006088208807,-60.45016077170418,-54.76468868751827,-3.098509207833967
1699735992,8.8713897895,2.2743778813,3.5712877305000004,0.158824961931484,0.006414085001079161,0.06536258048718764,-60.377082724349606,-54.618532592809125,-3.1569716457176265
1699735992,8.8713897895,2.2743778813,3.5712877305000004,0.158824961931484,0.006414085001079161,0.06536258048718764,-60.94709149371529,-54.618532592809125,-3.010815551008477
1699735992,8.8797646686,2.237289131,3.7268211995,0.11743884204356844,-0.02504547476611863,0.04856378643674222,-60.61093247588425,-54.940076001169246,-3.2008184741303713
1699735992,8.8797646686,2.237289131,3.7268211995,0.11743884204356844,-0.02504547476611863,0.04856378643674222,-60.12861736334405,-54.69161064016369,-2.8792750657702424
1699735992,8.5926259566,2.1164515897,3.7136606752,0.05772676500971245,-0.05131268000863329,0.0319177086958463,-60.698626132709734,-54.998538439052915,-2.9961999415375624
1699735992,8.5926259566,2.1164515897,3.7136606752,0.05772676500971245,-0.05131268000863329,0.0319177086958463,-60.45016077170418,-55.320081847413036,-3.5223618824905
1699735992,8.7637127725,2.2145573163,4.001995798499999,0.02153299964648004,-0.06093380751025203,0.014049900478554353,-60.39169833382052,-55.042385267465654,-3.536977491961415
1699735992,8.7637127725,2.2145573163,4.001995798499999,0.02153299964648004,-0.06093380751025203,0.014049900478554353,-60.21631102016954,-55.14469453376206,-4.296989184448992
1699735992,9.0879402348,2.51246373,4.2496529376,-0.010537425358915765,-0.058795779176558975,-0.02703078679026218,-60.552470038000585,-54.896229172756506,-3.931598947676118
1699735992,9.0879402348,2.51246373,4.2496529376,-0.010537425358915765,-0.058795779176558975,-0.02703078679026218,-59.9824612686349,-55.10084770534931,-3.6831335866705643
1699735992,9.0975115252,2.4598216327999998,3.8261233374,-0.09040805525330627,-0.02703078679026218,-0.06582072941583615,-59.997076878105815,-54.83776673487284,-3.55159310143233
1699735992,9.0975115252,2.4598216327999998,3.8261233374,-0.09040805525330627,-0.02703078679026218,-0.06582072941583615,-60.58170125694241,-55.553931598947685,-3.960830166617948
1699735992,8.8678005556,2.0853448959,2.9599215562,-0.1798998126493155,0.016187928812247405,-0.07819075048934597,-60.08477053493131,-55.320081847413036,-4.238526746565332
1699735992,8.8678005556,2.0853448959,2.9599215562,-0.1798998126493155,0.016187928812247405,-0.07819075048934597,-60.040923706518555,-55.1885413621748,-3.975445776088863
1699735992,8.761319949899999,1.5720844482,2.4346969955,-0.199447500271652,0.022602013813326566,-0.058795779176558975,-60.2747734580532,-55.261619409529374,-4.296989184448992
1699735993,8.761319949899999,1.6342978358,2.8677978860999995,-0.158824961931484,-0.04291328298341058,-0.05635231822376691,-60.654779304296994,-55.24700380005846,-3.536977491961415
1699735993,9.2937229784,1.6342978358,2.8677978860999995,-0.158824961931484,-0.04291328298341058,-0.05635231822376691,-60.40631394329144,-55.217772581116634,-3.931598947676118
1699735993,9.5509514079,2.2935204621,3.5066815203,-0.08475755179997463,-0.10690141668465268,-0.05375614096142535,-60.74247296112247,-55.042385267465654,-3.960830166617948
1699735993,9.5509514079,2.2935204621,3.5066815203,-0.08475755179997463,-0.10690141668465268,-0.05375614096142535,-60.654779304296994,-54.91084478222742,-3.215434083601286
1699735993,9.1836531388,2.5208386090999997,3.3320054705,-0.07208209810736581,-0.07849618310844496,-0.04260785036431157,-60.43554516223326,-54.80853551593101,-3.800058462437884
1699735993,9.1836531388,2.5208386090999997,3.3320054705,-0.07208209810736581,-0.07849618310844496,-0.04260785036431157,-60.552470038000585,-54.82315112540193,-3.507746273019585
1699735993,9.233902413400001,2.141576227,2.5926232871,-0.11301006906663283,-0.017867808217291947,-0.014660765716752368,-60.6693949137679,-54.866997953814675,-4.7939199064601
1699735993,9.233902413400001,2.141576227,2.5926232871,-0.11301006906663283,-0.017867808217291947,-0.014660765716752368,-60.45016077170418,-54.91084478222742,-4.033908213972523
1699735993,9.044869428,1.7300107398,2.2671994135,-0.05100724738953428,-0.0079412480965742,0.0319177086958463,-60.39169833382052,-55.02776965799474,-4.004676995030692
1699735993,9.044869428,1.7300107398,2.2671994135,-0.05100724738953428,-0.0079412480965742,0.0319177086958463,-60.479391990646015,-54.76468868751827,-3.49313066354867
1699735993,8.774480474199999,1.9034903783000001,2.9958138952,0.08384125394267761,-0.045356743936202634,0.07666358739385093,-60.71324174218064,-54.37006723180357,-4.428529669687226
1699735993,8.774480474199999,1.9034903783000001,2.9958138952,0.08384125394267761,-0.045356743936202634,0.07666358739385093,-60.698626132709734,-54.45776088862906,-4.004676995030692
1699735993,9.080761767,2.4741785684,3.9409788222,0.14278974942878608,-0.07605272215565291,0.061697389057999555,-60.479391990646015,-54.91084478222742,-2.791581408944753
1699735993,9.080761767,2.4741785684,3.9409788222,0.14278974942878608,-0.07605272215565291,0.061697389057999555,-61.09324758842444,-54.76468868751827,-0.19000292312189418
1699735993,9.1130648721,2.6428725617,3.8416766843000003,0.09407324668249435,-0.04856378643674222,0.017867808217291947,-60.333235895936866,-54.998538439052915,-3.040046769950307
1699735993,9.1130648721,2.6428725617,3.8416766843000003,0.09407324668249435,-0.04856378643674222,0.017867808217291947,-60.12861736334405,-54.720841859105526,-3.6392867582578194
1699735993,8.8929251929,2.2432711875,2.9754749031,-0.02504547476611863,0.001069014166846527,-0.004123340357836604,-60.40631394329144,-55.37854428529669,-3.1423560362467113
1699735993,8.8929251929,2.2432711875,2.9754749031,-0.02504547476611863,0.001069014166846527,-0.004123340357836604,-60.552470038000585,-54.82315112540193,-3.697749196141479
1699735993,9.1549392676,2.0303099761,2.7888347403,-0.03558290012503439,0.00839939702522271,0.000916297857297023,-60.567085647471494,-55.01315404852383,-3.975445776088863
1699735993,9.1549392676,2.0303099761,2.7888347403,-0.03558290012503439,0.00839939702522271,0.000916297857297023,-60.84478222741888,-54.852382344343766,-3.595439929845075
1699735993,9.3786681807,2.009970984,3.1525437755,0.05299255941367783,-0.0033597588100890844,0.017256942979093935,-60.74247296112247,-54.940076001169246,-3.449283835135925
1699735993,9.3786681807,2.009970984,3.1525437755,0.05299255941367783,-0.0033597588100890844,0.017256942979093935,-60.596316866413325,-55.217772581116634,-4.019292604501608
1699735993,9.178867493599999,2.0745771942,3.062812928,0.08414668656177661,0.010079276430267254,0.049632800603588746,-60.420929552762345,-54.92546039169833,-3.7854428529669684
1699735993,9.178867493599999,2.0745771942,3.062812928,0.08414668656177661,0.010079276430267254,0.049632800603588746,-60.99093832212803,-54.91084478222742,-3.098509207833967
1699735993,9.1513500337,1.9082760235,2.8666014748,0.10873401239924674,0.03329215548179183,0.0757472895365539,-60.18707980122772,-54.69161064016369,-3.4638994446068403
1699735993,9.1513500337,1.9082760235,2.8666014748,0.10873401239924674,0.03329215548179183,0.0757472895365539,-61.122478807366264,-54.618532592809125,-3.9023677287342884
1699735993,9.1381895094,1.8532411037,2.9575287336000002,0.16187928812247407,0.03665191429188092,0.10094548061222204,-61.16632563577902,-54.443145279158145,-4.267757965507162
1699735993,9.1381895094,1.8532411037,2.9575287336000002,0.16187928812247407,0.03665191429188092,0.10094548061222204,-60.15784858228588,-54.5016077170418,-3.4200526161940954
1699735993,8.983852451699999,1.9908284031999999,3.3128628897,0.1983784861048055,0.018020524526841452,0.12079860085365753,-60.61093247588425,-54.22391113709442,-3.741596024554224
1699735993,8.983852451699999,1.9908284031999999,3.3128628897,0.1983784861048055,0.018020524526841452,0.12079860085365753,-60.6693949137679,-54.282373574978074,-3.9462145571470333
1699735993,8.829515394,2.0650059038,3.6466616424,0.2157881453934489,0.0016798794050445422,0.11484266478122689,-60.71324174218064,-54.618532592809125,-4.048523823443437
1699735993,8.829515394,2.0650059038,3.6466616424,0.22525655658551816,0.019394971312786988,0.09636399132573692,-60.45016077170418,-54.45776088862906,-4.136217480268927
1699735993,8.9336031771,2.0793628394,3.6873396266,0.22525655658551816,0.019394971312786988,0.09636399132573692,-60.81555100847705,-54.39929845074539,-5.013154048523823
1699735993,8.9336031771,2.0793628394,3.6873396266,0.18096882681616205,0.03924809155422248,0.07391469382195986,-60.4647763811751,-54.45776088862906,-4.296989184448992
1699735993,9.0747797105,1.9896319919,3.4624143022,0.18096882681616205,0.03924809155422248,0.07391469382195986,-60.333235895936866,-54.23852674656533,-4.940076001169249
1699735993,9.0747797105,1.9896319919,3.5294133349999997,0.1637118838370681,0.036041049053682904,0.07299839596466283,-60.479391990646015,-54.019292604501615,-4.852382344343759
1699735993,8.9216390641,1.9537396529,3.5294133349999997,0.1637118838370681,0.036041049053682904,0.07299839596466283,-60.71324174218064,-53.44928383513593,-4.092370651856182
1699735993,8.8115692245,2.1379869930999997,3.6071800695,0.21471913122660238,0.04673119072214818,0.08506298441907365,-60.49400760011693,-53.69774919614147,-4.092370651856182
1699735993,8.8115692245,2.1379869930999997,3.6071800695,0.21471913122660238,0.04673119072214818,0.08506298441907365,-60.698626132709734,-53.80005846243788,-4.311604793919907
1699735993,9.0125663229,2.0374884439,3.5318061576,0.22052235098948353,0.05100724738953428,0.06765332513043021,-60.64016369482608,-53.90236772873429,-3.317743349897691
1699735993,9.0125663229,2.0374884439,3.5318061576,0.22052235098948353,0.05100724738953428,0.06765332513043021,-60.62554808535516,-54.063139432914355,-4.121601870798012
1699735993,9.1369930981,1.8221344098999999,3.3248270027,0.16936238729039974,0.020463985479633514,0.045356743936202634,-60.596316866413325,-53.580824320374155,-4.194679918152587
1699735993,9.1369930981,1.8221344098999999,3.3248270027,0.16936238729039974,0.020463985479633514,0.045356743936202634,-60.143232972814964,-54.03390821397252,-4.53083893598363
1699735993,9.064012008799999,1.8329021116,3.3212377687999997,0.15668693359779093,-0.011301006906663283,0.061850105367549056,-60.596316866413325,-54.136217480268925,-4.048523823443437
1699735993,9.064012008799999,1.8329021116,3.3212377687999997,0.15668693359779093,-0.011301006906663283,0.061850105367549056,-60.932475884244376,-53.34697456883952,-4.691610640163694
1699735993,8.97308475,1.9453647738,3.5030922864000003,0.1786780821729195,-0.029321531433504737,0.08155050929943505,-60.81555100847705,-53.785442852966966,-4.647763811750949
1699735993,8.97308475,1.9453647738,3.5030922864000003,0.1786780821729195,-0.029321531433504737,0.08155050929943505,-60.91786027477346,-53.580824320374155,-4.413914060216311
1699735993,8.913264185,2.0279171535,3.7399817238,0.21258110289290932,-0.026114488932965158,0.0879645943005142,-61.078631978953524,-53.43466822566501,-3.8292896813797133
1699735993,8.913264185,2.0279171535,3.7399817238,0.21258110289290932,-0.026114488932965158,0.0879645943005142,-61.10786319789535,-53.59543992984508,-5.057000876936568
1699735993,8.828318982699999,2.2145573163,3.9613178143,0.25121832920893383,-0.006261368691529657,0.09285151620609834,-61.40017538731365,-53.42005261619409,-4.852382344343759
1699735993,8.828318982699999,2.2145573163,3.9613178143,0.25121832920893383,-0.006261368691529657,0.09285151620609834,-60.99093832212803,-53.127740426775794,-3.975445776088863
1699735993,8.748159425599999,2.2109680824,4.0905302347,0.2751947898082059,0.01114829059711378,0.0836885376331281,-61.034785150540785,-53.536977491961416,-4.150833089739843
1699735993,8.748159425599999,2.2109680824,4.0905302347,0.2751947898082059,0.01114829059711378,0.0836885376331281,-60.58170125694241,-53.2300496930722,-3.975445776088863
1699735993,8.7924266437,2.1607188078,3.9625142255999997,0.21334468444065688,0.011606439525762293,0.059712077033856004,-60.523238819058754,-53.87313650979246,-3.9462145571470333
1699735993,8.7924266437,2.1607188078,3.9625142255999997,0.21334468444065688,0.011606439525762293,0.059712077033856004,-60.17246419175679,-53.960830166617946,-3.960830166617948
1699735993,8.9120677737,2.1032910654,3.7782668854000003,0.10705413299420219,-0.006261368691529657,0.025198191075668133,-60.49400760011693,-53.405437006723176,-4.9254603916983335
1699735993,8.9120677737,2.1032910654,3.7782668854000003,0.10705413299420219,-0.006261368691529657,0.025198191075668133,-60.757088570593396,-53.27389652148494,-4.574685764396375
1699735993,8.8881395477,2.1104695332,3.6574293441,0.05253441048502932,-0.018020524526841452,0.005650503453331642,-60.64016369482608,-53.06927798889214,-4.574685764396375
1699735993,8.8881395477,2.1104695332,3.6574293441,0.05253441048502932,-0.018020524526841452,0.005650503453331642,-60.39169833382052,-53.361590178310436,-4.545454545454546
1699735993,8.8845503138,1.9764714676,3.5665020853000002,0.048411070127192715,-0.014966198335851376,0.0003054326190990077,-60.62554808535516,-53.49313066354867,-4.457760888629056
1699735993,8.8845503138,1.9764714676,3.5665020853000002,0.048411070127192715,-0.014966198335851376,0.0003054326190990077,-60.58170125694241,-53.59543992984508,-4.370067231803566
1699735993,8.9575314031,1.8831513862,3.5018958750999998,0.0398589567924205,-0.01557706357404939,0.0012217304763960308,-60.94709149371529,-53.06927798889214,-3.770827243496054
1699735993,8.9575314031,1.8831513862,3.5018958750999998,0.0398589567924205,-0.01557706357404939,0.0012217304763960308,-60.39169833382052,-53.361590178310436,-4.165448699210757
1699735993,8.9958165647,1.9238293703999998,3.4492537779,0.027947084647559205,-0.03420845333908886,0.002138028333693054,-60.61093247588425,-53.887752119263375,-4.253142356036247
1699735993,8.9958165647,1.9238293703999998,3.4492537779,0.027947084647559205,-0.03420845333908886,0.002138028333693054,-60.80093539900614,-53.3177433498977,-4.70622624963461
1699735993,8.901300072,2.0482561456,3.5365918028000003,0.018173240836390957,-0.05482515512827187,0.0012217304763960308,-60.479391990646015,-53.887752119263375,-4.472376498099971
1699735993,8.901300072,2.0482561456,3.5365918028000003,0.018173240836390957,-0.05482515512827187,0.0012217304763960308,-60.83016661794797,-53.82928968137971,-4.063139432914353
1699735993,8.872586200799999,2.1631116304,3.5234312785000004,0.031001410838549282,-0.05146539631818279,-0.006719517620178169,-60.61093247588425,-53.59543992984508,-4.355451622332652
1699735993,8.872586200799999,2.1631116304,3.5234312785000004,0.031001410838549282,-0.05146539631818279,-0.006719517620178169,-60.49400760011693,-53.85852090032154,-4.311604793919907
1699735993,8.8977108381,1.8699908619,3.4193434953999997,0.04260785036431157,-0.05192354524683131,-0.036804630601430424,-60.9617071031862,-53.71236480561239,-3.960830166617948
1699735993,8.8977108381,1.8699908619,3.4193434953999997,0.04260785036431157,-0.05192354524683131,-0.036804630601430424,-60.77170418006431,-53.63928675825782,-3.4200526161940954
1699735993,8.9766739839,1.7240286833,3.4839497056,0.021227567027381034,-0.0717766654882668,-0.049785516913138254,-61.16632563577902,-53.65390236772873,-3.8439052908506284
1699735993,8.9766739839,1.7240286833,3.4839497056,0.021227567027381034,-0.09178250203925181,-0.040622538340168025,-60.757088570593396,-53.887752119263375,-4.0777550423852675
1699735993,8.9910309195,2.0386848552,3.5341989802,0.009773843811168246,-0.09178250203925181,-0.040622538340168025,-60.6693949137679,-54.106986261327094,-3.741596024554224
1699735993,8.9910309195,2.0386848552,3.5341989802,0.011453723216212788,-0.10094548061222204,-0.044898595007554123,-60.80093539900614,-53.93159894767612,-3.610055539315989
1699735993,8.975477572600001,2.1068802992999998,3.5078779316,0.011453723216212788,-0.10094548061222204,-0.044898595007554123,-61.09324758842444,-53.8146740719088,-4.326220403390821
1699735993,8.975477572600001,2.1068802992999998,3.5078779316,-0.019394971312786988,-0.11468994847167738,-0.05329799203277684,-61.18094124524993,-53.93159894767612,-2.9377375036539024
1699735993,9.081958178299999,1.9788642901999998,3.4049865597999998,-0.019394971312786988,-0.11468994847167738,-0.05329799203277684,-60.81555100847705,-53.72698041508331,-3.55159310143233
1699735993,9.081958178299999,1.9788642901999998,3.4049865597999998,-0.04016438941151951,-0.1357647991895089,-0.04657847441259867,-60.874013446360706,-53.28851213095586,-3.7854428529669684
1699735993,8.9682991048,2.1367905818,3.5030922864000003,-0.04016438941151951,-0.1357647991895089,-0.04657847441259867,-61.020169541069855,-53.8146740719088,-2.981584332066647
1699735993,8.9682991048,2.1367905818,3.5030922864000003,-0.03344487179134134,-0.13240504037941983,-0.04413501345980661,-60.78631978953523,-53.65390236772873,-4.121601870798012
1699735993,8.8151584584,2.4059831243,3.6263226502999997,-0.03344487179134134,-0.13240504037941983,-0.04413501345980661,-61.531715872551885,-53.74159602455423,-3.2008184741303713
1699735993,8.8151584584,2.4059831243,3.6263226502999997,-0.09254608358699933,-0.1362229481181574,-0.08032877882303902,-60.84478222741888,-54.0046769950307,-3.4638994446068403
1699735993,8.9060857172,2.2444675988,3.5126635768,-0.09254608358699933,-0.1362229481181574,-0.08032877882303902,-61.18094124524993,-53.84390529085062,-3.376205787781351
1699735993,8.9060857172,2.0925233637,3.4205399067,-0.15745051514553846,-0.14798210395346922,-0.10537425358915764,-60.932475884244376,-53.71236480561239,-3.960830166617948
1699735993,9.0364945489,2.0925233637,3.4205399067,-0.15745051514553846,-0.14798210395346922,-0.10537425358915764,-60.94709149371529,-54.32622040339082,-3.273896521484946
1699735993,9.0723868879,2.1786649773,3.2590243811999997,-0.1983784861048055,-0.14614950823887515,-0.10247264370771707,-60.77170418006431,-53.71236480561239,-3.478515054077755
1699735993,9.0723868879,2.1786649773,3.2590243811999997,-0.1983784861048055,-0.14614950823887515,-0.10247264370771707,-61.034785150540785,-53.87313650979246,-3.756211634025139
1699735993,9.0735832992,2.285145583,3.1980074049,-0.2110539397974143,-0.14630222454842468,-0.10461067204141013,-60.64016369482608,-53.80005846243788,-3.3615901783104354
1699735993,9.0735832992,2.285145583,3.1980074049,-0.2110539397974143,-0.14630222454842468,-0.10461067204141013,-61.09324758842444,-54.41391406021631,-3.3615901783104354
1699735993,9.116654106,2.15354034,3.2650064377,-0.19914206765255302,-0.14233160050013757,-0.11239920382843482,-60.23092662964046,-53.82928968137971,-4.0777550423852675
1699735993,9.116654106,2.15354034,3.2650064377,-0.19914206765255302,-0.14233160050013757,-0.11239920382843482,-60.567085647471494,-54.16544869921076,-3.3615901783104354
1699735993,9.1322074529,1.962114532,3.0436703472,-0.17684548645832546,-0.11484266478122689,-0.09453139561114288,-60.479391990646015,-54.16544869921076,-3.8439052908506284
1699735993,9.1322074529,1.962114532,3.0436703472,-0.17684548645832546,-0.11484266478122689,-0.09453139561114288,-60.932475884244376,-54.16544869921076,-4.194679918152587
1699735993,9.2087777761,1.9070796122,2.8067809098,-0.12217304763960307,-0.08582656596682116,-0.06062837489115302,-61.04940076001169,-53.536977491961416,-4.209295527623502
1699735993,9.2087777761,1.9070796122,2.8067809098,-0.12217304763960307,-0.08582656596682116,-0.06062837489115302,-60.99093832212803,-53.785442852966966,-4.048523823443437
1699735993,9.236295236,2.009970984,2.7672993369,-0.03665191429188092,-0.08032877882303902,-0.035430183815484885,-60.30400467699503,-54.19467991815259,-3.741596024554224
1699735993,9.236295236,2.009970984,2.7672993369,-0.03665191429188092,-0.08032877882303902,-0.035430183815484885,-60.567085647471494,-54.39929845074539,-4.063139432914353
1699735993,9.056833541,1.9525432416,2.9647072014,0.036804630601430424,-0.09254608358699933,-0.022143864884678056,-60.552470038000585,-54.09237065185618,-4.4431452791581405
1699735994,9.056833541,1.9525432416,2.9647072014,0.036804630601430424,-0.09254608358699933,-0.022143864884678056,-61.034785150540785,-54.106986261327094,-3.3615901783104354
1699735994,8.916853418899999,2.0709879603,3.3523444626,0.06093380751025203,-0.10827586347059823,-0.011759155835311794,-60.9617071031862,-54.516223326512716,-4.370067231803566
1699735994,8.916853418899999,2.0709879603,3.3523444626,0.06093380751025203,-0.10827586347059823,-0.011759155835311794,-61.10786319789535,-54.26775796550716,-3.230049693072201
1699735994,9.0137627342,2.3712871966,3.6287154729,0.07773260156069746,-0.09896016858807849,-0.0158824961931484,-60.84478222741888,-54.26775796550716,-3.990061385559778
1699735994,9.0137627342,2.3712871966,3.6287154729,0.07773260156069746,-0.09896016858807849,-0.0158824961931484,-61.312481730488166,-54.019292604501615,-3.3615901783104354
1699735994,9.0699940653,2.2875384056,3.5964123677999997,0.037262779530078935,-0.08933904108645975,-0.05635231822376691,-60.9617071031862,-54.852382344343766,-3.171587255188541
1699735994,9.0699940653,2.2875384056,3.5964123677999997,0.037262779530078935,-0.08933904108645975,-0.05635231822376691,-60.757088570593396,-54.5016077170418,-3.054662379421222
1699735994,9.0293160811,1.9944176371,3.2973095428,-0.037262779530078935,-0.08200865822808356,-0.07696902001294993,-60.45016077170418,-55.05700087693657,-3.4054370067231803
1699735994,9.0293160811,1.9944176371,3.2973095428,-0.037262779530078935,-0.08200865822808356,-0.07696902001294993,-60.4647763811751,-54.530838935983624,-3.8877521192633733
1699735994,9.0664048314,1.890329854,3.2267212761,-0.07406741013150937,-0.08918632477691024,-0.06918048822592524,-60.58170125694241,-54.31160479391991,-3.9023677287342884
1699735994,9.0664048314,1.890329854,3.2267212761,-0.07406741013150937,-0.08918632477691024,-0.06918048822592524,-60.61093247588425,-54.25314235603624,-3.960830166617948
1699735994,9.1070828156,2.1487546948,3.4325040196999996,-0.04276056667386108,-0.0873537290623162,-0.04169155250701455,-60.64016369482608,-54.77930429698918,-4.209295527623502
1699735994,9.1070828156,2.1487546948,3.4325040196999996,-0.04276056667386108,-0.0873537290623162,-0.04169155250701455,-60.01169248757673,-54.443145279158145,-3.449283835135925
1699735994,9.1130648721,2.1487546948,3.5844482548,-0.037262779530078935,-0.08536841703817265,-0.0438295808407076,-60.64016369482608,-54.03390821397252,-2.6892721426483486
1699735994,9.1130648721,2.1487546948,3.5844482548,-0.037262779530078935,-0.08536841703817265,-0.0438295808407076,-60.64016369482608,-54.530838935983624,-3.536977491961415
1699735994,8.975477572600001,2.0494525569,3.6658042232,-0.07391469382195986,-0.0836885376331281,-0.046883907031697675,-60.757088570593396,-54.2092955276235,-3.1862028646594562
1699735994,8.975477572600001,2.0494525569,3.6658042232,-0.07391469382195986,-0.0836885376331281,-0.046883907031697675,-61.06401636948261,-54.15083308973985,-3.58082432037416
1699735994,8.8378902731,2.3593230836,3.6227334164,-0.08918632477691024,-0.05589416929511841,-0.029168815123955232,-60.68401052323882,-54.16544869921076,-3.9462145571470333
1699735994,8.8378902731,2.3593230836,3.6227334164,-0.08918632477691024,-0.05589416929511841,-0.029168815123955232,-60.58170125694241,-54.60391698333821,-4.486992107570885
1699735994,8.873782612100001,2.4717857458,3.3690942208,-0.1362229481181574,-0.04459316238845512,-0.05818491393836096,-60.71324174218064,-54.39929845074539,-3.873136509792458
1699735994,8.873782612100001,2.4717857458,3.3690942208,-0.1362229481181574,-0.04459316238845512,-0.05818491393836096,-60.2747734580532,-54.560070154925455,-4.253142356036247
1699735994,8.9718883387,2.1571295739000003,3.1501509529,-0.2350304003966864,-0.07666358739385093,-0.11621711156717243,-60.91786027477346,-54.73545746857644,-3.478515054077755
1699735994,8.9718883387,2.1571295739000003,3.1501509529,-0.2350304003966864,-0.07666358739385093,-0.11621711156717243,-60.43554516223326,-54.64776381175095,-4.194679918152587
1699735994,8.9826560404,2.1762721547,3.0927232105,-0.27672195290370094,-0.10170906215996955,-0.12553280644969214,-60.654779304296994,-54.852382344343766,-3.770827243496054
1699735994,8.9826560404,2.1762721547,3.0927232105,-0.27672195290370094,-0.10277807632681608,-0.11056660811384078,-60.420929552762345,-55.20315697164572,-3.3469745688395203
1699735994,9.081958178299999,2.2217357841,2.9407789753999998,-0.259465009924607,-0.10277807632681608,-0.11056660811384078,-60.07015492546039,-55.10084770534931,-3.43466822566501
1699735994,9.081958178299999,2.2217357841,2.9407789753999998,-0.22510384027596866,-0.1072068493037517,-0.09850201965942997,-60.30400467699503,-54.58930137386729,-4.019292604501608
1699735994,9.3056870914,2.0279171535,2.7924239742,-0.22510384027596866,-0.1072068493037517,-0.09850201965942997,-60.567085647471494,-55.05700087693657,-3.8877521192633733
1699735994,9.3056870914,2.0279171535,2.7924239742,-0.14584407561977614,-0.10399980680321212,-0.059406644414756994,-60.72785735165156,-55.10084770534931,-4.150833089739843
1699735994,9.3104727366,1.9597217094,2.8450660714,-0.14584407561977614,-0.10399980680321212,-0.059406644414756994,-60.26015784858229,-55.23238819058754,-5.0862320958783975
1699735994,9.1011007591,2.1738793321000003,3.0317062341999996,-0.020922134408282025,-0.07819075048934597,-0.010537425358915765,-60.50862320958784,-55.07161648640748,-3.653902367728734
1699735994,9.1011007591,2.1738793321000003,3.0317062341999996,-0.020922134408282025,-0.07819075048934597,-0.010537425358915765,-60.6693949137679,-55.02776965799474,-4.019292604501608
1699735994,9.1070828156,2.2169501389,2.9611179675,0.06505714786808864,-0.04413501345980661,0.0032070425005395805,-60.143232972814964,-54.91084478222742,-4.0777550423852675
1699735994,9.1070828156,2.2169501389,2.9611179675,0.06505714786808864,-0.04413501345980661,0.0032070425005395805,-60.9617071031862,-55.1885413621748,-4.267757965507162
1699735994,9.1381895094,2.1140587671,2.8618158296000002,0.07315111227421234,-0.038942658935123484,-0.01038470904936626,-60.74247296112247,-54.852382344343766,-3.770827243496054
1699735994,9.1381895094,2.1140587671,2.8618158296000002,0.07315111227421234,-0.038942658935123484,-0.01038470904936626,-60.420929552762345,-55.24700380005846,-3.931598947676118
1699735994,9.1812603162,2.1200408236,3.0077780082,0.07391469382195986,-0.047952921198544204,-0.008246680715673207,-60.21631102016954,-55.10084770534931,-3.3615901783104354
1699735994,9.1812603162,2.1200408236,3.0077780082,0.07391469382195986,-0.047952921198544204,-0.008246680715673207,-60.596316866413325,-54.88161356328559,-2.9523531131248175
1699735994,9.1824567275,2.021935097,3.1573294206999996,0.07269296334556383,-0.048258353817643214,-0.00015271630954950385,-60.05553931598948,-54.70622624963462,-3.4054370067231803
1699735994,9.1824567275,2.021935097,3.1573294206999996,0.07269296334556383,-0.048258353817643214,-0.00015271630954950385,-60.64016369482608,-54.940076001169246,-4.048523823443437
1699735994,9.0676012427,2.0075781614,3.3116664784,0.0876591616814152,-0.03237585762449481,0.016951510359994926,-60.23092662964046,-54.83776673487284,-3.376205787781351
1699735994,9.0676012427,2.0075781614,3.3116664784,0.0876591616814152,-0.03237585762449481,0.016951510359994926,-60.479391990646015,-54.54545454545454,-3.8877521192633733
1699735994,9.0352981376,2.0530417908,3.409772205,0.1033889415650141,-0.01634064512179691,0.03023782929080176,-60.02630809704764,-55.05700087693657,-4.355451622332652
1699735994,9.0352981376,2.0530417908,3.409772205,0.1033889415650141,-0.01634064512179691,0.03023782929080176,-60.333235895936866,-55.10084770534931,-3.610055539315989
1699735994,9.0616191862,2.2863419943,3.3463624061,0.10858129608969723,-0.009468411192069237,0.038637226316024474,-60.23092662964046,-54.75007307804736,-3.858520900321544
1699735994,9.0616191862,2.2863419943,3.3463624061,0.10858129608969723,-0.009468411192069237,0.038637226316024474,-60.20169541069863,-54.618532592809125,-4.545454545454546
1699735994,9.0783689444,2.4059831243,3.0915267992,0.11911872144861299,-0.005497787143782138,0.038331793696925465,-60.30400467699503,-54.54545454545454,-3.916983338205203
1699735994,9.0783689444,2.4059831243,3.0915267992,0.11911872144861299,-0.005497787143782138,0.038331793696925465,-60.62554808535516,-54.22391113709442,-3.741596024554224
1699735994,9.0676012427,2.2384855423,2.9551359109999997,0.11667526049582093,-0.0160352125026979,0.029626964052603743,-60.479391990646015,-54.39929845074539,-3.8292896813797133
1699735994,9.0676012427,2.2384855423,2.9551359109999997,0.11667526049582093,-0.0160352125026979,0.029626964052603743,-60.62554808535516,-54.73545746857644,-3.6831335866705643
1699735994,9.0305124924,2.1667008643,3.0759734523,0.12446379228284563,-0.030085112981252254,0.03115412714809878,-60.61093247588425,-54.03390821397252,-4.0777550423852675
1699735994,9.0305124924,2.1667008643,3.0759734523,0.12446379228284563,-0.030085112981252254,0.03115412714809878,-60.2747734580532,-54.83776673487284,-4.092370651856182
1699735994,8.9072821285,2.1762721547,3.3403803495999997,0.13637566442770693,-0.036804630601430424,0.03375030441044035,-60.01169248757673,-54.720841859105526,-3.712364805612394
1699735994,8.9072821285,2.1762721547,3.3403803495999997,0.13637566442770693,-0.036804630601430424,0.03375030441044035,-60.61093247588425,-54.19467991815259,-3.712364805612394
1699735994,8.8402830957,2.2109680824,3.6275190616,0.11759155835311795,-0.047952921198544204,0.02428189321837111,-60.50862320958784,-54.54545454545454,-3.595439929845075
1699735994,8.8402830957,2.2109680824,3.6275190616,0.11759155835311795,-0.047952921198544204,0.02428189321837111,-60.64016369482608,-54.662379421221864,-4.0777550423852675
1699735994,8.944370878800001,2.2277178406,3.7974094662,0.07238753072646481,-0.05360342465187585,0.012980886311707827,-60.654779304296994,-55.042385267465654,-3.858520900321544
1699735994,8.944370878800001,2.2277178406,3.7974094662,0.07238753072646481,-0.05360342465187585,0.012980886311707827,-60.28938906752411,-54.60391698333821,-3.6246711487869043
1699735994,9.0472622506,2.2779671152,3.6789647475,0.014660765716752368,-0.047494772269895694,-0.001832595714594046,-60.74247296112247,-54.42852966968723,-4.370067231803566
1699735994,9.0472622506,2.2779671152,3.6789647475,0.014660765716752368,-0.047494772269895694,-0.001832595714594046,-60.30400467699503,-54.896229172756506,-4.2823735749780765
1699735994,9.1226361625,2.2037896146,3.3272198253,-0.02138028333693054,-0.03252857393404432,-0.02428189321837111,-60.12861736334405,-54.69161064016369,-3.6392867582578194
1699735994,9.1226361625,2.2037896146,3.3272198253,-0.028557949885757217,-0.0198531202414355,-0.03298672286269283,-60.567085647471494,-54.58930137386729,-3.8292896813797133
1699735994,9.1250289851,1.9405791285999998,3.0352954681,-0.028557949885757217,-0.0198531202414355,-0.03298672286269283,-60.757088570593396,-54.73545746857644,-4.472376498099971
1699735994,9.1250289851,1.9405791285999998,3.0352954681,-0.00992656012071775,-0.01511891464540088,-0.010995574287564275,-61.09324758842444,-54.91084478222742,-4.150833089739843
1699735994,9.0999043478,2.0386848552,2.8929225234,-0.00992656012071775,-0.01511891464540088,-0.010995574287564275,-60.71324174218064,-54.95469161064016,-4.136217480268927
1699735994,9.0999043478,2.1044874766999997,2.9216363945999997,0.015271630954950384,-0.0317649923862968,0.0013744467859455344,-60.58170125694241,-54.940076001169246,-4.121601870798012
1699735994,9.1573320902,2.1044874766999997,2.9216363945999997,0.015271630954950384,-0.0317649923862968,0.0013744467859455344,-60.4647763811751,-55.07161648640748,-0.014615609470914937
1699735994,9.176474671,2.0554346134,3.1094729686999996,0.0316122760767473,-0.05345070834232634,0.00839939702522271,-60.30400467699503,-54.720841859105526,-3.478515054077755
1699735994,9.176474671,2.0554346134,3.1094729686999996,0.0316122760767473,-0.05345070834232634,0.00839939702522271,-60.81555100847705,-54.63314820228003,-3.4200526161940954
1699735994,9.0125663229,2.2456640101,3.3738798660000002,0.0678060414399797,-0.04550946024575214,0.036041049053682904,-61.078631978953524,-54.45776088862906,-4.209295527623502
1699735994,9.0125663229,2.2456640101,3.3738798660000002,0.0678060414399797,-0.04550946024575214,0.036041049053682904,-60.74247296112247,-54.282373574978074,-3.756211634025139
1699735994,8.8905323703,2.4538395763,3.409772205,0.07605272215565291,-0.023976460599272102,0.037720928458727446,-60.888629055831636,-54.70622624963462,-3.595439929845075
1699735994,8.8905323703,2.4538395763,3.409772205,0.07605272215565291,-0.023976460599272102,0.037720928458727446,-60.567085647471494,-54.60391698333821,-3.43466822566501
1699735994,8.9419780562,2.2504496553,3.2099715178999997,0.04657847441259867,-0.0160352125026979,0.006108652381980153,-60.523238819058754,-55.17392575270389,-4.457760888629056
1699735994,8.9419780562,2.2504496553,3.2099715178999997,0.04657847441259867,-0.0160352125026979,0.006108652381980153,-61.020169541069855,-54.896229172756506,-4.063139432914353
1699735994,9.0759761218,2.1583259852,3.0723842184,0.025961772623415653,-0.022907446432425576,-0.006719517620178169,-60.874013446360706,-54.7939199064601,-4.808535515931014
1699735994,9.0759761218,2.1583259852,3.0723842184,0.025961772623415653,-0.022907446432425576,-0.006719517620178169,-60.77170418006431,-54.560070154925455,-3.873136509792458
1699735994,9.09272588,2.1930219129,3.2004002275,0.04245513405476207,-0.039706240482871,-0.001832595714594046,-61.06401636948261,-54.26775796550716,-4.033908213972523
1699735994,9.09272588,2.1930219129,3.2004002275,0.04245513405476207,-0.039706240482871,-0.001832595714594046,-60.567085647471494,-54.7939199064601,-4.0777550423852675
1699735994,9.0077806777,2.1750757434,3.4037901484999997,0.05115996369908379,-0.04612032548395016,0.005497787143782138,-60.68401052323882,-54.83776673487284,-3.916983338205203
1699735994,9.0077806777,2.1750757434,3.4037901484999997,0.05115996369908379,-0.04612032548395016,0.005497787143782138,-60.757088570593396,-55.07161648640748,-4.019292604501608
1699735994,8.9778703952,2.0374884439,3.4073793824000003,0.027641652028460195,-0.04321871560250958,0.0006108652381980154,-60.34785150540778,-55.17392575270389,-3.259280912014031
1699735994,8.9778703952,2.0374884439,3.4073793824000003,0.027641652028460195,-0.04321871560250958,0.0006108652381980154,-60.43554516223326,-54.32622040339082,-3.975445776088863
1699735994,9.0664048314,1.998006871,3.3607193417,0.021685715956029545,-0.037568212149177944,-0.0012217304763960308,-60.53785442852967,-54.26775796550716,-3.741596024554224
1699735994,9.0664048314,1.998006871,3.3607193417,0.021685715956029545,-0.037568212149177944,-0.0012217304763960308,-60.479391990646015,-54.67699503069278,-3.6685179771996492
1699735994,9.2494557603,2.0231315083,3.1956145822999997,0.030085112981252254,-0.02871066619530672,0.0012217304763960308,-60.30400467699503,-55.20315697164572,-3.43466822566501
1699735994,9.2494557603,2.0231315083,3.1956145822999997,0.030085112981252254,-0.02871066619530672,0.0012217304763960308,-60.698626132709734,-55.05700087693657,-3.975445776088863
1699735994,9.206384953499999,2.0889341298,3.0137600647,0.03237585762449481,-0.029626964052603743,0.008246680715673207,-61.23940368313359,-54.70622624963462,-3.756211634025139
1699735994,9.206384953499999,2.0889341298,3.0137600647,0.03237585762449481,-0.029626964052603743,0.008246680715673207,-60.62554808535516,-54.296989184449,-4.384682841274482
1699735994,9.0999043478,2.1152551784,3.1070801461,0.047189339650796684,-0.029474247743054238,0.02306016274197508,-60.83016661794797,-54.472376498099976,-4.53083893598363
1699735994,9.0999043478,2.1152551784,3.1070801461,0.047189339650796684,-0.029474247743054238,0.02306016274197508,-60.99093832212803,-55.10084770534931,-4.238526746565332
1699735994,9.1716890258,2.0315063874,3.194418171,0.03115412714809878,-0.03497203488683638,0.03023782929080176,-60.64016369482608,-54.35545162233265,-3.6685179771996492
1699735994,9.1716890258,2.0315063874,3.194418171,0.03115412714809878,-0.03497203488683638,0.03023782929080176,-60.84478222741888,-54.998538439052915,-4.516223326512716
1699735994,8.97308475,2.1284157027,3.2243284535,0.038179077387375956,-0.039706240482871,0.04352414822160859,-60.83016661794797,-54.19467991815259,-3.9462145571470333
1699735994,8.97308475,2.1284157027,3.2243284535,0.038179077387375956,-0.039706240482871,0.04352414822160859,-60.654779304296994,-54.31160479391991,-4.209295527623502
1699735994,8.817551281,2.2803599377999997,3.2925238975999997,0.06505714786808864,-0.036041049053682904,0.04856378643674222,-60.24554223911137,-54.7939199064601,-4.326220403390821
1699735994,8.817551281,2.2803599377999997,3.2925238975999997,0.06505714786808864,-0.036041049053682904,0.04856378643674222,-60.02630809704764,-54.443145279158145,-3.770827243496054
1699735994,8.9671026935,2.2839491717,3.4145578502,0.056810467152415424,-0.04306599929296008,0.022907446432425576,-60.18707980122772,-54.0046769950307,-4.662379421221865
1699735994,8.9671026935,2.2839491717,3.4145578502,0.048258353817643214,-0.03940080786377199,0.007788531787024695,-60.2747734580532,-54.37006723180357,-4.574685764396375
1699735995,9.0041914438,2.2516460665999998,3.4660035360999997,0.048258353817643214,-0.03940080786377199,0.007788531787024695,-60.05553931598948,-54.720841859105526,-4.589301373867291
1699735995,9.0041914438,2.2516460665999998,3.4660035360999997,0.022602013813326566,-0.026114488932965158,0.004428772976935611,-60.143232972814964,-54.73545746857644,-4.121601870798012
1699735995,8.975477572600001,2.0913269524,3.2590243811999997,0.022602013813326566,-0.026114488932965158,0.004428772976935611,-60.68401052323882,-54.282373574978074,-4.70622624963461
1699735995,8.975477572600001,2.0913269524,3.2590243811999997,0.005650503453331642,-0.03237585762449481,0.0003054326190990077,-60.30400467699503,-54.37006723180357,-4.633148202280035
