timestamp,acc-x,acc-y,acc-z,gyr-x,gyr-y,gyr-z,mag-x,mag-y,mag-z
1700075626,0.9429473876953124,0.0959014892578125,-0.3258819580078125,-0.0828991457819938,-0.453086793422699,-0.5014756321907043,90.73594665527344,-70.91810607910156,298.7063903808594
1700075626,0.957916259765625,0.0693511962890625,-0.29840087890625,-0.0450287275016307,-0.4186920523643493,-0.4794323742389679,90.8524169921875,-71.34954833984375,298.25408935546875
1700075626,0.9635009765625,0.0539398193359375,-0.27130126953125,-0.0282295066863298,-0.3839388787746429,-0.4444499015808105,90.9390869140625,-71.74493408203125,298.0193786621094
1700075626,0.9982452392578124,0.049346923828125,-0.2620086669921875,0.0047604003921151,-0.3441866636276245,-0.3951257467269897,90.72491455078124,-71.75529479980469,298.32977294921875
1700075626,1.013824462890625,0.052032470703125,-0.2752685546875,0.05606060475111,-0.3194088935852051,-0.3713245391845703,90.74960327148438,-72.2073974609375,298.43121337890625
1700075626,1.003936767578125,0.0537261962890625,-0.2738494873046875,0.1299904882907867,-0.3078614175319671,-0.3454250395298004,90.77809143066406,-72.29194641113281,298.1108703613281
1700075626,0.988983154296875,0.0730133056640625,-0.27978515625,0.2526373267173767,-0.2980996072292328,-0.3222214579582214,90.58210754394533,-72.3154296875,298.41656494140625
1700075626,0.9646148681640624,0.0833740234375,-0.30743408203125,0.389354407787323,-0.2993957698345184,-0.3258864879608154,90.52180480957033,-72.29328918457031,298.3767395019531
1700075626,0.942352294921875,0.0870361328125,-0.307373046875,0.474040538072586,-0.3046847879886627,-0.3366443216800689,90.36080932617188,-71.94514465332031,298.6329345703125
1700075626,0.940032958984375,0.0915985107421875,-0.2766265869140625,0.4715515375137329,-0.2860213816165924,-0.3216784298419952,90.6198272705078,-72.02090454101562,298.21295166015625
1700075626,0.9250640869140624,0.1031951904296875,-0.2564849853515625,0.4505423903465271,-0.2557718455791473,-0.3107879757881164,90.22128295898438,-72.23147583007812,298.1083374023437
1700075626,0.92205810546875,0.079132080078125,-0.265106201171875,0.3787710070610046,-0.2553329765796661,-0.281123012304306,90.81826782226562,-72.11593627929688,298.689697265625
1700075626,0.9508056640625,0.032958984375,-0.268951416015625,0.285487413406372,-0.2317621260881424,-0.2263335436582565,90.607177734375,-72.20803833007812,297.971923828125
1700075626,0.98095703125,-0.016387939453125,-0.2640533447265625,0.2274256944656372,-0.223180890083313,-0.1283973902463913,90.79148864746094,-72.05537414550781,298.5551452636719
1700075626,0.9813385009765624,-0.0544891357421875,-0.2587127685546875,0.2254424393177032,-0.204668715596199,-0.0447789244353771,90.88543701171876,-71.74082946777344,298.384521484375
1700075626,0.96453857421875,-0.0695648193359375,-0.25634765625,0.2449618130922317,-0.1873770803213119,0.0271381437778472,90.77369689941406,-71.78733825683594,297.9942626953125
1700075626,0.9516754150390624,-0.0631256103515625,-0.2398529052734375,0.254669576883316,-0.1637212932109832,0.0925576314330101,90.6861572265625,-71.51443481445312,298.3451538085937
1700075626,0.9690399169921876,-0.0561370849609375,-0.22882080078125,0.3348701298236847,-0.1473271399736404,0.1627580225467682,90.45286560058594,-71.53707885742188,297.8653564453125
1700075626,0.999908447265625,-0.0540618896484375,-0.2317352294921875,0.3971550762653351,-0.1456344276666641,0.2303016483783722,90.74818420410156,-71.55635070800781,298.014892578125
1700075626,1.0187530517578125,-0.0129241943359375,-0.24871826171875,0.4092437028884887,-0.1660856455564499,0.2833430171012878,90.84776306152344,-71.37509155273438,298.21588134765625
1700075626,1.0330963134765625,0.05706787109375,-0.27447509765625,0.4347117841243744,-0.2028431296348571,0.2819880247116089,90.58973693847656,-71.12461853027344,298.71923828125
1700075626,1.0554351806640625,0.110687255859375,-0.268890380859375,0.4814435839653015,-0.233784794807434,0.2684426307678222,90.37046813964844,-70.77229309082031,298.4662170410156
1700075626,1.102386474609375,0.122711181640625,-0.1995391845703125,0.5338793992996216,-0.2742342054843902,0.2859555780887604,90.90885925292967,-70.5089111328125,298.98114013671875
1700075626,1.17327880859375,0.1234130859375,-0.1218109130859375,0.5345504879951477,-0.2775485217571258,0.3234915137290954,90.6171875,-69.91513061523438,298.6952514648437
1700075626,1.2333831787109375,0.119873046875,-0.123687744140625,0.5201736688613892,-0.2731790840625763,0.3319752812385559,90.89727783203124,-69.48345947265625,298.797119140625
1700075626,1.261962890625,0.0908203125,-0.127349853515625,0.4490156173706054,-0.2760214507579803,0.3573011457920074,90.44084167480467,-68.57781982421875,299.0699768066406
1700075626,1.2866973876953125,0.0150604248046875,-0.085479736328125,0.3732518851757049,-0.2653877437114715,0.4684867858886719,90.91224670410156,-67.72248840332031,299.0021057128906
1700075626,1.29339599609375,-0.0499267578125,-0.1240997314453125,0.3372419476509094,-0.3209734857082367,0.5426928400993347,90.68736267089844,-66.83447265625,299.0780029296875
1700075626,1.3519287109375,-0.092529296875,-0.17388916015625,0.3808011412620544,-0.3694470226764679,0.5823163986206055,91.1371612548828,-65.58140563964844,298.9135437011719
1700075626,1.466522216796875,-0.141357421875,-0.113739013671875,0.4157700538635254,-0.3737472295761108,0.6408042311668396,91.11639404296876,-63.55418395996094,298.539794921875
1700075626,1.512481689453125,-0.1708526611328125,-0.018707275390625,0.3992720246315002,-0.3313984274864197,0.7831578850746155,91.07341003417967,-61.884552001953125,298.0350341796875
1700075626,1.452056884765625,-0.1734161376953125,0.0184326171875,0.4440554678440094,-0.3467893898487091,0.8955147862434387,91.391357421875,-59.483428955078125,297.1251220703125
1700075626,1.3591766357421875,-0.2437896728515625,0.0928955078125,0.3929970860481262,-0.3313065469264984,1.029550075531006,91.1473388671875,-57.572021484375,296.269287109375
1700075627,1.3212890625,-0.3299102783203125,0.1061553955078125,0.2636180520057678,-0.2989552617073059,1.1393159627914429,90.990966796875,-55.7481689453125,295.64385986328125
1700075627,1.3343963623046875,-0.42864990234375,0.093902587890625,0.1459201872348785,-0.2494194209575653,1.168604612350464,91.03688049316406,-53.73062133789063,295.36297607421875
1700075627,1.4013824462890625,-0.548431396484375,0.0541229248046875,0.1067685261368751,-0.2097897082567215,1.1711511611938477,90.8038330078125,-52.16455078125,294.37847900390625
1700075627,1.4780731201171875,-0.61883544921875,-0.0035858154296875,0.1864228695631027,-0.2110200971364975,1.176192283630371,90.48820495605467,-51.00471496582031,293.89031982421875
1700075627,1.5101318359375,-0.613525390625,-0.074554443359375,0.1389243304729461,-0.0242954865097999,1.3169482946395874,90.44070434570312,-49.654144287109375,292.89141845703125
1700075627,1.405731201171875,-0.443450927734375,-0.4035186767578125,-0.4469151794910431,0.2653235495090484,1.6912580728530884,90.28359985351562,-48.64352416992188,291.8565673828125
1700075627,1.11907958984375,-0.104522705078125,-0.944732666015625,-1.3747516870498655,0.5343608856201172,2.121649980545044,89.99737548828125,-48.046478271484375,292.2435302734375
1700075627,0.9315948486328124,0.11334228515625,-1.35107421875,-1.9449390172958367,0.763076901435852,2.4151391983032227,90.1593017578125,-47.07614135742188,291.4844970703125
1700075627,1.0506439208984375,0.1922149658203125,-1.4951019287109375,-1.8358604907989504,0.8062331080436707,2.6180710792541504,89.97116088867188,-46.40557861328125,291.618408203125
1700075627,1.22418212890625,0.274169921875,-1.3122711181640625,-1.3135261535644531,0.784611701965332,2.952735424041748,89.84834289550781,-45.86555480957031,290.8680725097656
1700075627,1.2883758544921875,0.4795684814453125,-0.8780975341796875,-0.7818875908851624,0.6569469571113586,3.332606077194214,89.81233215332031,-45.15034484863281,289.6478576660156
1700075627,1.3682403564453125,0.7086944580078125,-0.4133453369140625,-0.4771620333194732,0.9026267528533936,3.500630140304565,89.69248962402344,-44.83522033691406,290.1950988769531
1700075627,1.4758148193359375,0.9373779296875,-0.2890472412109375,-0.0968274772167205,1.3315885066986084,3.365375280380249,89.47999572753906,-44.02738952636719,289.5145874023437
1700075627,1.5992889404296875,1.0937652587890625,-0.3424835205078125,0.3581648170948028,1.458266019821167,3.0684709548950195,89.3544921875,-43.399810791015625,288.79754638671875
1700075627,1.70379638671875,1.1514129638671875,-0.3569793701171875,0.7476078867912292,1.4311494827270508,2.729856491088867,89.04972839355469,-43.07618713378906,288.31427001953125
1700075627,1.7491455078125,0.9786224365234376,-0.4363555908203125,1.1301443576812744,1.4639228582382202,2.524273157119751,88.7696533203125,-42.78654479980469,287.74615478515625
1700075627,1.6327056884765625,0.686737060546875,-0.5379791259765625,1.1874486207962036,1.5075438022613523,2.452197790145874,89.00828552246094,-42.64205932617188,287.0295715332031
1700075627,1.4885711669921875,0.5232086181640625,-0.64459228515625,0.9179269075393676,1.474921941757202,2.431856155395508,89.18058776855469,-42.3282470703125,286.6728210449219
1700075627,1.3881072998046875,0.4222412109375,-0.6779022216796875,0.5120342373847961,1.376156210899353,2.3428003787994385,88.85769653320312,-42.531646728515625,286.1983642578125
1700075627,1.340911865234375,0.298553466796875,-0.64715576171875,0.1419712454080581,1.2862229347229004,2.166616916656494,89.35850524902344,-42.686614990234375,285.08380126953125
1700075627,1.3050537109375,0.179931640625,-0.559326171875,-0.0701404735445976,1.240236759185791,1.9778841733932493,89.94499206542969,-42.42832946777344,284.9804077148437
1700075627,1.21270751953125,0.12115478515625,-0.4398193359375,-0.1812843084335327,1.1978837251663208,1.7710636854171753,90.2737274169922,-42.667236328125,284.5625
1700075627,1.0929412841796875,0.1123199462890625,-0.31036376953125,-0.2531558275222778,1.0930830240249634,1.4974933862686155,90.64784240722656,-42.78532409667969,283.9686279296875
1700075627,0.9880523681640624,0.116729736328125,-0.1834564208984375,-0.2964891791343689,1.0002872943878174,1.1392619609832764,91.23703002929688,-43.28767395019531,283.2371826171875
1700075627,0.874053955078125,0.0727996826171875,-0.13720703125,-0.266667902469635,0.9049903154373168,0.7874016761779785,91.44956970214844,-43.69496154785156,282.8385314941406
1700075627,0.679534912109375,0.0004730224609375,-0.0948486328125,-0.2492481768131256,0.8213596343994141,0.4604570865631103,92.15573120117188,-44.08641052246094,282.28619384765625
1700075627,0.4847412109375,-0.1009674072265625,-0.055633544921875,-0.2351627200841903,0.7304286360740662,0.1526997983455658,92.7620086669922,-44.41793823242188,282.2897644042969
1700075627,0.35821533203125,-0.20867919921875,-0.034454345703125,-0.2126640677452087,0.612004280090332,-0.0881106853485107,93.47984313964844,-44.99693298339844,281.7952880859375
1700075627,0.2645721435546875,-0.2635040283203125,-0.01007080078125,-0.2093899697065353,0.5113874077796936,-0.3036448359489441,94.11996459960938,-45.75483703613281,281.816162109375
1700075627,0.2137298583984375,-0.2850189208984375,-0.016448974609375,-0.3203833401203155,0.3813004791736603,-0.6089176535606384,94.65170288085938,-46.33770751953125,281.8700561523437
1700075627,0.206085205078125,-0.3038482666015625,-0.0367584228515625,-0.5365979075431824,0.2455120235681533,-0.9772781133651732,95.2292938232422,-47.67243957519531,281.5508728027344
1700075627,0.2201995849609375,-0.2814788818359375,-0.09466552734375,-0.7195411324501038,0.1449207067489624,-1.326749324798584,95.75845336914062,-48.62075805664063,282.21173095703125
1700075627,0.19842529296875,-0.298187255859375,-0.071533203125,-0.8911592364311218,0.0559969544410705,-1.61733078956604,96.02810668945312,-49.71337890625,282.76373291015625
1700075627,0.135711669921875,-0.3092193603515625,-0.0440216064453125,-1.0066263675689695,-0.0469243638217449,-1.864210844039917,96.9908447265625,-50.96434020996094,283.50836181640625
1700075627,0.091949462890625,-0.2881927490234375,-0.0380401611328125,-1.0914467573165894,-0.1602461338043213,-2.1250662803649902,97.0911102294922,-52.285064697265625,283.4345092773437
1700075627,0.1041717529296875,-0.24908447265625,-0.0341949462890625,-1.186070680618286,-0.2707196474075317,-2.386716604232788,97.69827270507812,-52.702728271484375,283.9704895019531
1700075627,0.1044769287109375,-0.1713104248046875,-0.0525054931640625,-1.3125780820846558,-0.3681186437606811,-2.6727240085601807,97.64419555664062,-53.290802001953125,283.821533203125
1700075627,0.0942535400390625,-0.1153564453125,-0.0866546630859375,-1.4333031177520752,-0.5055630207061768,-2.950061798095703,97.72810363769533,-53.566680908203125,283.949951171875
1700075627,0.1042938232421875,-0.0634613037109375,-0.0841522216796875,-1.3949512243270874,-0.6377021670341492,-3.1197683811187744,97.62583923339844,-53.85931396484375,283.829833984375
1700075627,0.1399383544921875,0.019378662109375,-0.0399322509765625,-1.1009864807128906,-0.6807905435562134,-3.143517255783081,97.84487915039062,-54.04757690429688,283.867431640625
1700075627,0.1834869384765625,0.1437835693359375,0.0305633544921875,-0.9763473272323608,-0.6997681856155396,-3.18389630317688,97.69801330566406,-53.871368408203125,283.88983154296875
1700075627,0.24066162109375,0.2648468017578125,-0.018707275390625,-0.6635492444038391,-0.8256078958511353,-3.2318332195281982,97.75953674316406,-53.64024353027344,283.9906005859375
1700075627,0.3084259033203125,0.436676025390625,-0.1587371826171875,-0.0933965295553207,-0.917678713798523,-3.235981702804565,97.60720825195312,-53.600677490234375,284.206298828125
1700075627,0.3697509765625,0.650970458984375,-0.1935882568359375,0.3446452617645263,-0.8443155288696289,-3.167901039123535,97.6786651611328,-53.51191711425781,283.801025390625
1700075627,0.416290283203125,0.8774566650390625,-0.2191162109375,0.6356384754180908,-0.7208977341651917,-3.0750892162323,97.51814270019533,-53.567779541015625,284.06866455078125
1700075627,0.4839324951171875,1.0148162841796875,-0.3489990234375,0.7325514554977417,-0.6677298545837402,-2.882254838943481,97.66519165039062,-53.57484436035156,284.48846435546875
1700075627,0.5530853271484375,1.1217803955078125,-0.5434722900390625,0.6820597648620605,-0.6646330952644348,-2.5339725017547607,97.17555236816406,-53.63542175292969,284.542236328125
1700075627,0.600341796875,1.240692138671875,-0.62884521484375,0.6228004693984985,-0.6211474537849426,-2.0874810218811035,97.41911315917967,-52.80107116699219,284.8619079589844
1700075627,0.6042022705078125,1.3756561279296875,-0.64862060546875,0.6002528071403503,-0.5475698709487915,-1.6216506958007812,96.9875030517578,-52.68698120117188,284.0289306640625
1700075627,0.5672149658203125,1.5113983154296875,-0.6623992919921875,0.6959404349327087,-0.4509778320789337,-1.288174748420715,96.87632751464844,-52.25411987304688,284.57275390625
1700075627,0.535369873046875,1.5239715576171875,-0.6307373046875,0.8124595880508423,-0.3461688756942749,-0.8052336573600769,97.14250183105467,-52.58027648925781,284.1973876953125
1700075627,0.4303741455078125,1.5957794189453125,-0.6363525390625,0.9703419208526612,-0.2241465449333191,-0.526674747467041,97.21815490722656,-52.7926025390625,284.19635009765625
1700075627,0.422271728515625,1.54681396484375,-0.6516876220703125,0.737237811088562,0.3344371020793915,-0.5483208894729614,97.11045837402344,-52.966827392578125,284.34002685546875
1700075627,0.5130615234375,1.337310791015625,-1.04718017578125,1.074358344078064,0.6196920275688171,-0.073791928589344,97.14494323730467,-52.66058349609375,284.416259765625
1700075627,0.260009765625,1.486480712890625,-1.5026397705078125,1.2019498348236084,0.1622056812047958,-0.1465622782707214,97.28182983398438,-52.80517578125,284.1949462890625
1700075627,0.9053192138671876,1.1968536376953125,-0.9245758056640624,0.2473437488079071,-0.1885390132665634,-0.4385600388050079,97.44424438476562,-52.84443664550781,283.89556884765625
1700075627,1.588897705078125,0.465972900390625,-0.3600006103515625,0.0382760167121887,-0.4702037274837494,-0.3798128366470337,96.99624633789062,-52.91444396972656,284.2008056640625
1700075627,1.3617401123046875,0.0430755615234375,0.3747406005859375,0.2417897284030914,-0.2709819674491882,0.1166523173451423,97.13128662109376,-53.28358459472656,283.32574462890625
1700075627,0.81475830078125,-0.1438140869140625,0.3299713134765625,-0.0668434798717498,-0.2631570696830749,0.5776098370552063,97.2853546142578,-53.3404541015625,284.742919921875
1700075627,0.6923065185546875,-0.02294921875,-0.233612060546875,-0.3547301292419433,-0.3331715762615204,0.962065577507019,96.97077941894533,-53.534576416015625,284.9990234375
1700075627,1.0768585205078125,0.4408721923828125,-0.4758453369140625,-0.6998478174209595,-0.3775992095470428,0.906549334526062,96.73590087890624,-53.31861877441406,284.759521484375
1700075627,1.7710723876953125,0.654632568359375,-0.257293701171875,-0.9564346075057985,-0.2381433248519897,0.5547670722007751,97.38555908203124,-53.51480102539063,284.88836669921875
1700075627,1.872161865234375,0.4493255615234375,-0.017425537109375,-0.6105371117591858,0.0495289377868175,0.3867607712745666,97.34085083007812,-53.5848388671875,284.8151550292969
1700075627,1.0247802734375,0.26080322265625,-0.2274322509765625,-0.0229236911982297,0.0781161040067672,0.29666468501091,97.2821807861328,-53.894378662109375,285.4375305175781
1700075627,0.6475982666015625,0.224334716796875,-0.4494781494140625,0.1992140412330627,0.0325835086405277,0.190432533621788,96.8214111328125,-54.1378173828125,285.6063232421875
1700075627,0.8089447021484375,0.3863525390625,-0.383270263671875,0.0470942743122577,0.0561349093914032,-0.0016138756182044,96.9698486328125,-54.1700439453125,286.0748596191406
1700075627,0.9557952880859376,0.5799560546875,-0.313629150390625,-0.0588595867156982,0.1039591580629348,-0.2334526926279068,96.73796081542967,-54.51626586914063,286.5284729003906
1700075627,1.0286865234375,0.5372772216796875,-0.3590087890625,-0.0259317327290773,0.1051559820771217,-0.3495726585388183,96.9116668701172,-54.62306213378906,287.1475524902344
1700075627,0.97393798828125,0.366668701171875,-0.34173583984375,-0.0030810111202299,0.0957590192556381,-0.351389467716217,96.61402893066406,-55.23191833496094,287.0020751953125
1700075627,0.9271392822265624,0.2361297607421875,-0.3805694580078125,-0.0267642363905906,0.0814157649874687,-0.3239250779151916,96.53207397460938,-55.16804504394531,287.0710144042969
1700075627,0.869537353515625,0.1389617919921875,-0.4727325439453125,-0.0786087885499,0.0176852531731128,-0.2928952574729919,96.95265197753906,-55.50199890136719,287.19073486328125
1700075627,0.86566162109375,0.12176513671875,-0.5117340087890625,-0.1414527297019958,-0.0632572695612907,-0.2912070751190185,96.65869140625,-55.60003662109375,287.4982604980469
1700075627,0.96746826171875,0.1537628173828125,-0.4758758544921875,-0.1422697901725769,-0.1112559512257576,-0.3055250346660614,96.842529296875,-56.05863952636719,287.69122314453125
1700075627,1.020477294921875,0.1873931884765625,-0.42999267578125,-0.0807869881391525,-0.1567885428667068,-0.3274409770965576,97.09559631347656,-55.74586486816406,287.93212890625
1700075627,0.981964111328125,0.209564208984375,-0.436981201171875,-0.0689066275954246,-0.2240101993083953,-0.3606061339378357,96.72604370117188,-56.32450866699219,287.9264831542969
1700075627,0.9550018310546876,0.2136383056640625,-0.4501800537109375,-0.0911133959889411,-0.289831280708313,-0.3958887457847595,96.92333984375,-56.674560546875,288.3018798828125
1700075627,0.950225830078125,0.21563720703125,-0.44854736328125,-0.1013889387249946,-0.3426913022994995,-0.4241637885570526,96.59474182128906,-56.89393615722656,288.702392578125
1700075627,0.9504241943359376,0.2185516357421875,-0.424468994140625,-0.0728334635496139,-0.3778562247753143,-0.4541219472885132,96.71592712402344,-56.95045471191406,288.1334228515625
1700075627,0.9628448486328124,0.2121734619140625,-0.3858795166015625,-0.029256422072649,-0.382472276687622,-0.4892176389694214,96.890869140625,-57.4718017578125,288.40802001953125
1700075627,0.973846435546875,0.1870880126953125,-0.3594207763671875,0.051024567335844,-0.372094988822937,-0.4978084564208984,96.63371276855467,-57.939483642578125,288.86212158203125
1700075627,0.96246337890625,0.165130615234375,-0.3520050048828125,0.1074084788560867,-0.3759717643260956,-0.4890205562114715,96.69627380371094,-57.65103149414063,288.7406005859375
1700075627,0.950836181640625,0.165374755859375,-0.358489990234375,0.0927392542362213,-0.3953449428081512,-0.4900051355361938,96.31875610351562,-57.66876220703125,289.1908569335937
1700075627,0.943084716796875,0.174560546875,-0.36602783203125,0.0669982060790062,-0.4032529294490814,-0.5057779550552368,96.48275756835938,-58.197998046875,288.887451171875
1700075627,0.9340362548828124,0.1802978515625,-0.3550262451171875,0.0582172349095344,-0.3992491364479065,-0.5265766978263855,96.20948791503906,-58.21759033203125,289.5035400390625
1700075627,0.9343414306640624,0.17596435546875,-0.34130859375,0.0699386075139045,-0.4032041728496551,-0.5469467043876648,96.27182006835938,-58.15907287597656,289.43902587890625
1700075627,0.9322967529296876,0.170806884765625,-0.3341522216796875,0.0708257034420967,-0.4094372987747192,-0.5634614825248718,96.42092895507812,-58.10504150390625,289.3561096191406
1700075627,0.926361083984375,0.1686553955078125,-0.34228515625,0.059341087937355,-0.4181232154369354,-0.562549889087677,96.5425262451172,-58.19465637207031,289.64404296875
1700075627,0.944183349609375,0.150726318359375,-0.3355560302734375,0.0542081110179424,-0.4204177856445312,-0.5715782642364502,96.53561401367188,-57.95112609863281,289.611572265625
1700075627,0.9675750732421876,0.105804443359375,-0.3389892578125,0.0867761746048927,-0.4292954504489898,-0.5573375821113586,96.34513854980467,-57.92176818847656,289.9207458496094
1700075627,0.9522857666015624,0.08447265625,-0.3536834716796875,0.079768069088459,-0.4521578848361969,-0.517945408821106,96.40763854980467,-57.87806701660156,289.5320739746094
1700075627,0.9353179931640624,0.0888824462890625,-0.351837158203125,0.0428183041512966,-0.4646105468273163,-0.4906402826309204,96.27731323242188,-57.78944396972656,289.5590209960937
1700075627,0.9232635498046876,0.09136962890625,-0.3354644775390625,-0.0229631066322326,-0.4468592405319214,-0.4741811454296112,96.20802307128906,-57.46759033203125,289.27294921875
1700075627,0.91864013671875,0.0962677001953125,-0.295166015625,-0.0667659789323806,-0.404928594827652,-0.4821764826774597,96.08465576171876,-57.339202880859375,289.99224853515625
1700075627,0.9401397705078124,0.0667877197265625,-0.2609405517578125,0.0249290522187948,-0.3554116189479828,-0.4618722796440124,95.97665405273438,-57.3203125,289.84051513671875
1700075627,0.9368133544921876,0.04583740234375,-0.274383544921875,0.0798572823405265,-0.3703120052814483,-0.4126016795635223,95.74479675292967,-57.492095947265625,289.4259033203125
1700075627,0.9454345703125,0.0561981201171875,-0.3050384521484375,0.1109092086553573,-0.3954836726188659,-0.3742505609989166,95.6091766357422,-57.19146728515625,289.9420471191406
1700075627,0.964599609375,0.0829620361328125,-0.308868408203125,0.1589877903461456,-0.3675215542316437,-0.3814549446105957,95.45013427734376,-57.295501708984375,290.4126892089844
1700075627,0.9539031982421876,0.0876617431640625,-0.2800140380859375,0.1494946777820587,-0.3429605364799499,-0.3835862874984741,95.68234252929688,-57.53192138671875,290.2771301269531
1700075627,0.94378662109375,0.1022491455078125,-0.2872314453125,0.1174893453717231,-0.3436601758003235,-0.3693921566009521,95.557373046875,-56.93623352050781,290.4833068847656
1700075628,0.9493560791015624,0.1017913818359375,-0.29974365234375,0.1524185687303543,-0.3415527939796448,-0.3419922292232513,95.42135620117188,-56.612091064453125,290.5941772460937
1700075628,0.9468994140625,0.062469482421875,-0.2855987548828125,0.1889563351869583,-0.3334583938121795,-0.3147059977054596,95.27102661132812,-56.16368103027344,290.48443603515625
1700075628,0.9257354736328124,0.0262603759765625,-0.2839202880859375,0.1648139804601669,-0.3210307657718658,-0.270586222410202,95.20553588867188,-56.27528381347656,290.6962585449219
1700075628,0.9222259521484376,0.0166473388671875,-0.2869720458984375,0.1243877336382865,-0.3027369678020477,-0.2425516545772552,94.72088623046876,-56.47540283203125,291.1511535644531
1700075628,0.949249267578125,-0.0111541748046875,-0.2645416259765625,0.1493066698312759,-0.2806383073329925,-0.2162518799304962,94.75083923339844,-56.24012756347656,291.1303100585937
1700075628,0.967437744140625,-0.0339813232421875,-0.2388916015625,0.1460245847702026,-0.25392946600914,-0.167778342962265,94.46578979492188,-56.32586669921875,291.750732421875
1700075628,0.97344970703125,-0.0177459716796875,-0.2339630126953125,0.2049515545368194,-0.2111583054065704,-0.1137891486287117,94.31117248535156,-56.235687255859375,291.6955871582031
1700075628,0.9632568359375,-0.0087432861328125,-0.2135772705078125,0.2693084478378296,-0.1595318764448166,-0.0595221817493438,94.21189880371094,-55.962738037109375,292.1298522949219
1700075628,0.9368896484375,-0.0100555419921875,-0.1864013671875,0.2437570095062255,-0.1119555607438087,0.0176064241677522,93.9589385986328,-56.082763671875,291.8248291015625
1700075628,0.919281005859375,-0.0145263671875,-0.19580078125,0.2417646944522857,-0.0669561326503753,0.1263387650251388,93.92701721191406,-55.36300659179688,292.3541564941406
1700075628,0.89776611328125,-0.0272674560546875,-0.2246551513671875,0.3002769947052002,-0.0393833592534065,0.1807308942079544,93.8159637451172,-54.66584777832031,291.9430236816406
1700075628,0.9083251953125,-0.0962066650390625,-0.213226318359375,0.2402006238698959,-0.0170990917831659,0.2726139426231384,93.99081420898438,-53.74932861328125,290.7772827148437
1700075628,0.911529541015625,-0.128448486328125,-0.23004150390625,0.1513961851596832,0.0038450718857347,0.3885898292064667,94.00225830078124,-52.01261901855469,290.6473693847656
1700075628,0.8976287841796875,-0.1162109375,-0.2805633544921875,0.0577594377100467,0.0084667215123772,0.4868037402629852,93.50735473632812,-50.31694030761719,289.38330078125
1700075628,0.89947509765625,-0.047149658203125,-0.275726318359375,-0.0170234590768814,0.0355534665286541,0.538719654083252,93.10244750976562,-48.6531982421875,288.9228515625
1700075628,0.9134674072265624,0.015167236328125,-0.232452392578125,0.0102118914946913,0.0947318375110626,0.5773911476135254,92.67561340332033,-47.63008117675781,288.35223388671875
1700075628,0.9034576416015624,0.0521697998046875,-0.210113525390625,0.0606582872569561,0.1413675099611282,0.6045271754264832,92.23255920410156,-45.98030090332031,287.6376037597656
1700075628,0.92730712890625,0.034423828125,-0.18609619140625,0.0869775116443634,0.1888314336538314,0.6655636429786682,92.08615112304688,-45.01286315917969,287.5922546386719
1700075628,0.9400482177734376,0.000152587890625,-0.191802978515625,0.0636335685849189,0.2114137113094329,0.7610139846801758,91.54446411132812,-43.829376220703125,286.6128234863281
1700075628,0.93450927734375,0.0102996826171875,-0.2316741943359375,-0.0009512811084277,0.2080578655004501,0.8179715275764465,91.4152374267578,-42.715087890625,287.2506408691406
1700075628,0.9659423828125,0.001953125,-0.2362213134765625,-0.0003227751294616,0.2365776598453521,0.8574398756027222,90.72056579589844,-42.02885437011719,286.5257263183594
1700075628,0.9729766845703124,-0.0070037841796875,-0.2749786376953125,0.0472258366644382,0.2361440956592559,0.8824504017829895,90.3277587890625,-41.57366943359375,286.78759765625
1700075628,0.9439849853515624,0.065185546875,-0.30377197265625,0.0190205629914999,0.2406107485294342,0.874648928642273,90.29803466796876,-41.2669677734375,286.1966552734375
1700075628,0.9464263916015624,0.164886474609375,-0.2431182861328125,0.01951271481812,0.2649421691894531,0.8730372190475464,90.06878662109375,-40.41157531738281,286.4108581542969
1700075628,0.9561920166015624,0.2422332763671875,-0.210418701171875,0.0074342139996588,0.2421039789915084,0.85865718126297,90.23782348632812,-39.74317932128906,286.7221069335937
1700075628,1.00506591796875,0.2314910888671875,-0.2635650634765625,0.0522347092628479,0.2071276158094406,0.856196939945221,89.7886962890625,-39.10025024414063,286.1757202148437
1700075628,1.059722900390625,0.13055419921875,-0.298858642578125,0.1431901752948761,0.1797825396060943,0.8594481348991394,90.32429504394533,-38.35345458984375,285.9437255859375
1700075628,1.05377197265625,0.0540618896484375,-0.35760498046875,0.2125580757856369,0.1113172024488449,0.8531793355941772,90.10958862304688,-37.65211486816406,285.2938232421875
1700075628,1.0279083251953125,0.061248779296875,-0.4088134765625,0.2297346591949463,0.0476985462009906,0.8075404763221741,89.56034851074219,-37.20327758789063,285.32427978515625
1700075628,1.0350341796875,0.1835174560546875,-0.3858795166015625,0.3471513092517853,0.0250539537519216,0.7118754982948303,90.2538604736328,-36.42817687988281,284.6838684082031
1700075628,1.0667724609375,0.3495941162109375,-0.2966156005859375,0.370038777589798,-0.0038551918696612,0.6087352633476257,90.53480529785156,-36.07427978515625,284.3190002441406
1700075628,1.11370849609375,0.4766387939453125,-0.1798553466796875,0.4770938456058502,-0.0392770990729332,0.5240563154220581,90.48097229003906,-35.66453552246094,284.09576416015625
1700075628,1.1574249267578125,0.45556640625,-0.1287384033203125,0.5232280492782593,-0.0814112350344657,0.4987914264202118,90.99359130859376,-35.69993591308594,283.45849609375
1700075628,1.206512451171875,0.326324462890625,-0.1493988037109375,0.4490552842617035,-0.1070177927613258,0.5144220590591431,91.20147705078124,-35.47285461425781,283.4306030273437
1700075628,1.266845703125,0.1540374755859375,-0.1953887939453125,0.2798172831535339,-0.177881583571434,0.586764395236969,92.34910583496094,-35.56060791015625,283.179931640625
1700075628,1.3058013916015625,0.1072998046875,-0.28826904296875,0.1206507831811904,-0.2696993947029114,0.6491668224334717,92.66007995605467,-35.596099853515625,282.8150939941406
1700075628,1.3669891357421875,0.1320343017578125,-0.300811767578125,0.0883865877985954,-0.3154698014259338,0.6362302303314209,93.322509765625,-35.84336853027344,282.6419372558594
1700075628,1.4019775390625,0.1327056884765625,-0.262725830078125,0.1963482052087783,-0.3603741526603699,0.6221604943275452,94.1188507080078,-35.72502136230469,282.99267578125
1700075628,1.4399871826171875,0.134490966796875,-0.1997528076171875,0.3752433955669403,-0.4243259727954864,0.6252199411392212,94.97743225097656,-36.08900451660156,282.58416748046875
1700075628,1.48486328125,0.122039794921875,-0.132965087890625,0.4763748049736023,-0.4670894145965576,0.626209020614624,95.8297119140625,-36.45993041992188,282.41229248046875
1700075628,1.518890380859375,0.043731689453125,-0.0877532958984375,0.4633301198482513,-0.5205017924308777,0.6308583617210388,96.80729675292967,-36.72770690917969,282.4322509765625
1700075628,1.5518035888671875,-0.0469512939453125,-0.0885162353515625,0.4052257835865021,-0.5690211057662964,0.6666305065155029,97.69615173339844,-36.93635559082031,282.0853271484375
1700075628,1.59521484375,-0.1082305908203125,-0.0548248291015625,0.3727935552597046,-0.6269680261611938,0.6917052268981934,98.26600646972656,-37.77778625488281,281.7115478515625
1700075628,1.6094512939453125,-0.14959716796875,0.05438232421875,0.3611653745174408,-0.6444940567016602,0.6714327335357666,99.37831115722656,-37.79833984375,281.2119445800781
1700075628,1.611907958984375,-0.2093963623046875,0.168365478515625,0.3707093596458435,-0.6565951704978943,0.6561136841773987,100.75152587890624,-38.72480773925781,280.75048828125
1700075628,1.56591796875,-0.2615203857421875,0.23138427734375,0.3892151415348053,-0.6501210331916809,0.6232516169548035,101.63027954101562,-39.29852294921875,280.9454040527344
1700075628,1.4842376708984375,-0.3466949462890625,0.2401885986328125,0.423980563879013,-0.6180576086044312,0.5768042206764221,103.11302185058594,-40.144317626953125,281.07720947265625
1700075628,1.382720947265625,-0.437225341796875,0.2175445556640625,0.3901776075363159,-0.4886218905448913,0.5844511985778809,103.90496826171876,-41.00685119628906,281.2091369628906
1700075628,1.2414093017578125,-0.452117919921875,-0.0006103515625,0.3221290409564972,-0.3111799955368042,0.8329134583473206,104.86529541015624,-41.98915100097656,280.8717041015625
1700075628,1.073944091796875,-0.2747344970703125,-0.4109649658203125,-0.1292666494846344,-0.0737975239753723,1.4054601192474363,105.53164672851562,-43.25422668457031,281.237060546875
1700075628,0.83734130859375,0.0785675048828125,-0.9443359375,-0.8745450973510742,0.1164792105555534,1.970081448554993,106.54939270019533,-44.528106689453125,281.4363708496094
1700075628,0.7439422607421875,0.2336883544921875,-1.1628265380859375,-1.5387648344039917,0.3171169757843017,2.2959578037261963,107.45594787597656,-45.15396118164063,282.0670166015625
1700075628,0.9080047607421876,0.2129669189453125,-1.0533447265625,-1.813979148864746,0.4230630993843078,2.603705406188965,107.71726989746094,-46.44819641113281,282.29766845703125
1700075628,1.1099395751953125,0.397247314453125,-0.8442535400390625,-1.6600334644317627,0.525413990020752,2.9366700649261475,108.0155792236328,-46.88742065429688,282.97637939453125
1700075628,1.1173858642578125,0.6693267822265625,-0.737213134765625,-1.3206887245178225,0.5128499865531921,3.282835960388184,108.9279327392578,-47.19084167480469,282.905517578125
1700075628,1.131988525390625,0.9287261962890624,-0.51751708984375,-0.9640073180198668,0.6218446493148804,3.5102803707122803,108.83570861816406,-47.540374755859375,283.1741943359375
1700075628,1.2295379638671875,1.141204833984375,-0.3442840576171875,-0.403584212064743,0.9288498759269714,3.4332733154296875,109.04827880859376,-47.59175109863281,281.62921142578125
1700075628,1.361083984375,1.1538238525390625,-0.426849365234375,0.1661833822727203,0.98223876953125,3.405235528945923,108.65950012207033,-47.605499267578125,281.9608154296875
1700075628,1.418609619140625,1.128662109375,-0.5367889404296875,0.2881361842155456,0.829582154750824,3.3724710941314697,108.6842041015625,-47.22300720214844,281.6412353515625
1700075628,1.4696807861328125,0.9232940673828124,-0.5670928955078125,0.3277126252651214,0.7758355736732483,3.2817933559417725,108.69740295410156,-47.203948974609375,281.8816223144531
1700075628,1.444854736328125,0.528594970703125,-0.4840850830078125,0.3384893834590912,0.7790396213531494,3.266491413116455,108.25021362304688,-46.864288330078125,282.7207336425781
1700075628,1.3207855224609375,0.3301239013671875,-0.440826416015625,0.2971504628658294,0.7176215052604675,3.307858943939209,107.90827941894533,-46.884521484375,282.26776123046875
1700075628,1.207000732421875,0.2938385009765625,-0.4418487548828125,0.2441567480564117,0.5872262120246887,3.3013856410980225,107.8002471923828,-46.16802978515625,282.65155029296875
1700075628,1.1425323486328125,0.279632568359375,-0.428192138671875,0.1946102231740951,0.4451526999473572,3.1903645992279053,107.92196655273438,-46.08378601074219,282.32080078125
1700075628,1.08880615234375,0.2543487548828125,-0.40338134765625,0.1194691359996795,0.310370922088623,3.0207176208496094,107.72201538085938,-45.99696350097656,282.8123779296875
1700075628,1.0169830322265625,0.2177581787109375,-0.3553924560546875,0.0638104081153869,0.2116054594516754,2.826049566268921,107.479248046875,-45.65007019042969,282.3289794921875
1700075628,0.91961669921875,0.1579437255859375,-0.3111724853515625,0.0068288776092231,0.1295438706874847,2.6252713203430176,107.05723571777344,-45.50599670410156,282.4504089355469
1700075628,0.7982025146484375,0.077911376953125,-0.320037841796875,-0.1508763283491134,0.0594295039772987,2.454575538635254,106.67430114746094,-44.82931518554688,282.00177001953125
1700075628,0.6691131591796875,0.0262451171875,-0.3601531982421875,-0.4238921403884887,-0.0501241534948349,2.305065155029297,106.74885559082033,-44.83126831054688,282.176025390625
1700075628,0.57305908203125,0.0052947998046875,-0.3472137451171875,-0.7222341299057007,-0.2175296545028686,2.1233673095703125,106.87539672851562,-44.67301940917969,282.85498046875
1700075628,0.5202789306640625,-0.023529052734375,-0.29071044921875,-0.9268807172775269,-0.4033567905426025,1.8751519918441768,106.82260131835938,-44.545928955078125,282.6702880859375
1700075628,0.490203857421875,-0.0783538818359375,-0.1886444091796875,-1.050973892211914,-0.581233024597168,1.5885322093963623,106.52215576171876,-44.39454650878906,282.7398986816406
1700075628,0.4524078369140625,-0.1386260986328125,-0.0915679931640625,-1.1785407066345217,-0.7438365817070007,1.2879433631896973,106.49920654296876,-44.7601318359375,282.39276123046875
1700075628,0.40289306640625,-0.185455322265625,-0.0726318359375,-1.3170106410980225,-0.8895245790481567,0.996654450893402,106.67131042480467,-44.62681579589844,282.2729187011719
1700075628,0.3519134521484375,-0.2256317138671875,-0.098846435546875,-1.4552114009857178,-1.0425306558609009,0.7431218028068542,106.55856323242188,-44.93748474121094,282.07550048828125
1700075628,0.298095703125,-0.2421417236328125,-0.139068603515625,-1.631548285484314,-1.181666612625122,0.5209177732467651,106.5163116455078,-45.06655883789063,282.7831115722656
1700075628,0.2584075927734375,-0.2205352783203125,-0.201171875,-1.8299293518066408,-1.2999986410140991,0.303244024515152,106.58177185058594,-45.13227844238281,282.6588134765625
1700075628,0.2440338134765625,-0.168701171875,-0.2833251953125,-2.0242724418640137,-1.4446836709976196,0.0692320689558982,106.31045532226562,-44.98016357421875,283.0225830078125
1700075628,0.2626953125,-0.1167755126953125,-0.3432159423828125,-2.1560168266296387,-1.6351518630981443,-0.1979769915342331,106.48593139648438,-44.839935302734375,283.18731689453125
1700075628,0.30902099609375,-0.0832977294921875,-0.3458099365234375,-2.1890666484832764,-1.825412392616272,-0.4685725271701813,106.49285888671876,-45.1275634765625,282.4257202148437
1700075628,0.3585052490234375,-0.0818328857421875,-0.29852294921875,-2.1750643253326416,-1.9831290245056152,-0.7359493970870972,106.60348510742188,-45.61976623535156,282.5673828125
1700075628,0.37896728515625,-0.107391357421875,-0.250640869140625,-2.222062349319458,-2.1403348445892334,-0.9981591701507568,106.69613647460938,-45.694732666015625,282.94677734375
1700075628,0.3841400146484375,-0.1437530517578125,-0.2290191650390625,-2.298438549041748,-2.3125908374786377,-1.2322195768356323,106.80282592773438,-45.85102844238281,283.33758544921875
1700075628,0.3935546875,-0.17047119140625,-0.24078369140625,-2.361433744430542,-2.452509880065918,-1.458780288696289,106.64430236816406,-46.30757141113281,283.73846435546875
1700075628,0.4102020263671875,-0.1816864013671875,-0.2564849853515625,-2.400099277496338,-2.578399896621704,-1.6477453708648682,106.88194274902344,-46.74859619140625,284.1405029296875
1700075628,0.4406280517578125,-0.163360595703125,-0.2654571533203125,-2.433193683624268,-2.714295148849488,-1.8293991088867188,106.66983032226562,-46.52058410644531,284.2538452148437
1700075628,0.5028076171875,-0.137786865234375,-0.2736358642578125,-2.468878030776977,-2.8315694332122803,-2.030155897140503,106.7537078857422,-46.92393493652344,284.4680480957031
1700075628,0.5806732177734375,-0.094146728515625,-0.292205810546875,-2.497670888900757,-2.941851854324341,-2.2242114543914795,106.70138549804688,-47.1787109375,284.953857421875
1700075628,0.6391448974609375,-0.0159454345703125,-0.331390380859375,-2.4784512519836426,-3.078118085861206,-2.436931610107422,106.86424255371094,-47.68634033203125,285.0185546875
1700075628,0.7082366943359375,0.07757568359375,-0.37890625,-2.375744581222534,-3.220905065536499,-2.6694018840789795,106.74392700195312,-47.843505859375,284.74041748046875
1700075628,0.80255126953125,0.1592559814453125,-0.38641357421875,-2.2316887378692627,-3.3409547805786133,-2.927605390548706,106.80458068847656,-48.13018798828125,285.1020812988281
1700075628,0.9044647216796876,0.18060302734375,-0.3526153564453125,-2.078110694885254,-3.41937255859375,-3.179208517074585,107.08238220214844,-48.480865478515625,285.2663269042969
1700075628,0.9786834716796876,0.1233978271484375,-0.3290863037109375,-2.0956413745880127,-3.419829130172729,-3.3266420364379883,106.73394775390624,-48.73040771484375,285.2387084960937
1700075628,0.9794158935546876,0.0619964599609375,-0.3977508544921875,-2.278890609741211,-3.400209188461304,-3.34002685546875,106.8020477294922,-49.16842651367188,285.9847412109375
1700075628,0.9449462890625,0.044403076171875,-0.50079345703125,-2.5608553886413574,-3.3996171951293945,-3.3585526943206787,106.8490753173828,-49.377044677734375,286.012939453125
1700075628,0.995025634765625,0.0402679443359375,-0.5977783203125,-3.0816986560821533,-3.415838718414306,-3.3573882579803467,106.76588439941406,-49.65306091308594,285.8374938964844
1700075628,1.09967041015625,0.09912109375,-0.7100372314453125,-3.7546226978302,-3.461758136749268,-3.314728260040283,106.8606414794922,-49.99015808105469,286.2271728515625
1700075628,1.203277587890625,0.1866607666015625,-0.7584686279296875,-4.39431095123291,-3.4795491695404053,-3.206306934356689,106.62326049804688,-49.72564697265625,286.27618408203125
1700075628,1.292572021484375,0.2425537109375,-0.780548095703125,-4.906289577484131,-3.486295461654663,-3.016386032104492,106.56686401367188,-50.223052978515625,286.77642822265625
1700075628,1.3328857421875,0.3181610107421875,-0.8291778564453125,-5.354918479919434,-3.5207345485687256,-2.79732632637024,106.74830627441406,-50.4464111328125,287.3807373046875
1700075629,1.3825531005859375,0.395477294921875,-0.926666259765625,-5.7244062423706055,-3.565706729888916,-2.580939769744873,106.90956115722656,-50.88227844238281,286.86651611328125
1700075629,1.443878173828125,0.491943359375,-1.01910400390625,-5.906189441680908,-3.5959291458129883,-2.325566291809082,107.04759216308594,-51.02777099609375,287.1132202148437
1700075629,1.4641876220703125,0.6260223388671875,-1.0711517333984375,-5.891839027404785,-3.583525896072388,-2.046246290206909,106.91323852539062,-51.33462524414063,287.5121459960937
1700075629,1.42938232421875,0.7554168701171875,-1.0936737060546875,-5.91325569152832,-3.5079145431518555,-1.809565186500549,106.85856628417967,-51.37081909179688,287.9501342773437
1700075629,1.3230438232421875,0.8406524658203125,-1.1569671630859375,-5.977846622467041,-3.3256759643554688,-1.6218265295028689,106.7642059326172,-51.39439392089844,288.50421142578125
1700075629,1.2364654541015625,0.859100341796875,-1.24761962890625,-5.986429214477539,-3.0528080463409424,-1.4092588424682615,106.54661560058594,-51.7840576171875,288.49786376953125
1700075629,1.2214813232421875,0.8303985595703125,-1.3676300048828125,-5.930189609527588,-2.765770435333252,-1.2367554903030396,106.73448181152344,-52.03932189941406,288.336669921875
1700075629,1.2017669677734375,0.7518768310546875,-1.483367919921875,-5.802017211914063,-2.450783491134644,-1.0660088062286377,106.6439208984375,-52.41203308105469,288.19256591796875
1700075629,1.0775909423828125,0.7057952880859375,-1.532867431640625,-5.594962596893311,-1.984148979187012,-0.9984246492385864,106.66667175292967,-52.42979431152344,288.46630859375
1700075629,0.898345947265625,0.624908447265625,-1.535980224609375,-5.222280025482178,-1.3727236986160278,-0.9355141520500184,106.62394714355467,-52.622589111328125,288.412109375
1700075629,0.6541595458984375,0.5165863037109375,-1.5164642333984375,-4.5266876220703125,-0.6674448847770691,-0.7610262632369995,106.46096801757812,-52.45921325683594,288.6537475585937
1700075629,0.485687255859375,0.49310302734375,-1.5193634033203125,-3.61215877532959,-0.14225435256958,-0.5166327357292175,106.6123046875,-52.75779724121094,288.9049987792969
1700075629,0.5282745361328125,0.55926513671875,-1.389923095703125,-2.823512077331543,0.242245927453041,-0.3515577614307403,106.2317352294922,-52.666351318359375,289.4017333984375
1700075629,0.67401123046875,0.652130126953125,-1.2410430908203125,-2.1369638442993164,0.5272529125213623,-0.2687406539916992,106.56634521484376,-52.73013305664063,289.3912353515625
1700075629,0.7292022705078125,0.6907501220703125,-1.0706787109375,-1.4709943532943726,0.6953843832015991,-0.2339616268873214,106.244873046875,-52.75541687011719,289.57232666015625
1700075629,0.7338714599609375,0.5987396240234375,-0.8849639892578125,-1.06403911113739,0.796791136264801,-0.0410864502191543,106.37619018554688,-52.59979248046875,290.2865600585937
1700075629,0.77777099609375,0.49005126953125,-0.7034759521484375,-1.0149037837982178,0.8836908936500549,0.1018765643239021,106.0220184326172,-52.46652221679688,290.3251953125
1700075629,0.680328369140625,0.463653564453125,-0.72430419921875,-0.8610916137695312,0.7799592018127441,0.0032194955274462,105.86305236816406,-52.77317810058594,290.2493591308594
1700075629,0.8745269775390625,0.1469268798828125,-0.2778778076171875,-0.5547327399253845,0.1056896746158599,-0.2233249694108963,105.43870544433594,-52.73371887207031,290.462890625
1700075629,1.5430908203125,-0.4144134521484375,1.2162933349609375,-1.0605897903442385,1.1192642450332642,0.31792151927948,105.83694458007812,-52.70274353027344,290.9584655761719
1700075629,2.004058837890625,-0.3977203369140625,0.7723541259765625,-1.7240567207336426,1.7223434448242188,0.7014811635017395,105.87161254882812,-52.30839538574219,290.9188232421875
1700075629,1.9948883056640625,-0.175018310546875,-0.5828094482421875,-1.9791052341461184,1.309251308441162,0.8118308186531067,105.765380859375,-52.42034912109375,291.23748779296875
1700075629,1.9224395751953125,-0.0635986328125,-0.4756011962890625,-1.8700014352798464,0.7784321308135986,0.7032985091209412,105.84016418457033,-52.292572021484375,291.8661499023437
1700075629,1.28802490234375,0.13092041015625,-0.338134765625,-2.046401262283325,0.7346076965332031,0.2549902200698852,105.14447021484376,-51.82443237304688,292.2958984375
1700075629,0.7944793701171875,0.3125762939453125,0.119110107421875,-1.3929970264434814,1.0240557193756104,0.0540003851056098,105.2383270263672,-51.74085998535156,292.80743408203125
1700075629,0.53704833984375,0.8411102294921875,0.446380615234375,-0.1806264966726303,1.0637376308441162,0.1811689883470535,105.07382202148438,-51.77658081054688,292.6621398925781
1700075629,0.6890716552734375,1.2079620361328125,0.126861572265625,0.4165801703929901,0.7863689064979553,-0.2191499322652816,104.46818542480467,-51.16802978515625,293.626220703125
1700075629,1.2646026611328125,1.0023193359375,0.0369873046875,0.753603458404541,0.8247445225715637,-0.7127971649169922,104.7376708984375,-50.97799682617188,293.89752197265625
1700075629,1.425140380859375,0.4698944091796875,-0.00286865234375,0.7640449404716492,0.8255602121353149,-0.7241094708442688,104.3413543701172,-50.85139465332031,294.10137939453125
1700075629,1.0968780517578125,0.1426544189453125,-0.1482086181640625,0.241240307688713,0.7701246738433838,-0.594527542591095,104.42897033691406,-50.5242919921875,294.65203857421875
1700075629,0.988616943359375,-0.115478515625,-0.2763214111328125,-0.5529558658599854,0.6799862384796143,-0.4676220417022705,104.15818786621094,-49.68743896484375,294.6131896972656
1700075629,0.9790802001953124,-0.3120880126953125,-0.3752593994140625,-1.0789974927902222,0.5645536780357361,-0.3162197470664978,104.18223571777344,-48.99259948730469,295.3666381835937
1700075629,0.95697021484375,-0.3883819580078125,-0.393341064453125,-1.1686030626296997,0.4378572404384613,-0.1543930321931839,104.0234832763672,-48.02589416503906,295.6920166015625
1700075629,0.966217041015625,-0.37713623046875,-0.300750732421875,-1.124860167503357,0.3716907203197479,-0.0322695225477218,103.75588989257812,-47.22784423828125,295.40435791015625
1700075629,0.9669189453125,-0.181121826171875,-0.2119140625,-1.0758986473083496,0.3325739502906799,-0.0386528521776199,103.7900390625,-45.84696960449219,295.8277282714844
1700075629,0.994384765625,0.050567626953125,-0.11004638671875,-0.9551331400871276,0.3501284420490265,-0.1167191565036773,103.47550964355467,-43.68844604492188,294.8583068847656
1700075629,1.0012359619140625,0.1688385009765625,-0.0111541748046875,-0.7283247709274292,0.4043967425823211,-0.165106400847435,102.84245300292967,-41.633575439453125,294.3890991210937
1700075629,0.9763031005859376,0.15045166015625,0.031280517578125,-0.5722091794013977,0.4503578543663025,-0.1721696406602859,102.51516723632812,-39.99177551269531,293.9970397949219
1700075629,0.9660491943359376,0.026336669921875,-0.00628662109375,-0.5925677418708801,0.4734863340854645,-0.1405941247940063,101.8261260986328,-37.9246826171875,293.4393310546875
1700075629,0.9727630615234376,-0.072113037109375,-0.11322021484375,-0.6742905378341675,0.4665876924991607,-0.088078461587429,100.85765075683594,-36.31217956542969,293.3168640136719
1700075629,0.9886627197265624,-0.1035003662109375,-0.148468017578125,-0.7289053201675415,0.4738064408302307,-0.0389260947704315,100.26422119140624,-35.151397705078125,293.1268310546875
1700075629,0.9929351806640624,-0.081817626953125,-0.134674072265625,-0.6935949921607971,0.4824281632900238,-0.0289616100490093,99.42100524902344,-33.487152099609375,292.3502502441406
1700075629,0.9862823486328124,-0.0435028076171875,-0.1053466796875,-0.6426863074302673,0.5003714561462402,-0.0275405477732419,98.68341064453124,-32.517303466796875,292.5815734863281
1700075629,0.965972900390625,-0.025421142578125,-0.13201904296875,-0.6141566634178162,0.5027576684951782,-0.0020256002899259,97.82823181152344,-31.766586303710938,292.3658447265625
1700075629,0.945404052734375,-0.0381011962890625,-0.164337158203125,-0.6273730993270874,0.4925630986690521,0.0344522483646869,97.16424560546876,-31.18173217773437,293.126953125
1700075629,0.9527587890625,-0.061676025390625,-0.1683502197265625,-0.654900312423706,0.4708370268344879,0.0719753876328468,96.90994262695312,-30.408416748046875,293.4115295410156
1700075629,0.971771240234375,-0.0583343505859375,-0.134979248046875,-0.6208038926124573,0.4709177315235138,0.1087155640125274,96.20773315429688,-29.592269897460938,294.1094970703125
1700075629,1.00439453125,-0.0210113525390625,-0.10479736328125,-0.5691132545471191,0.4618675112724304,0.1186408996582031,95.80958557128906,-28.59068298339844,293.4579467773437
1700075629,1.0344390869140625,0.054229736328125,-0.1201324462890625,-0.525114893913269,0.485176533460617,0.0925235450267791,95.24716186523438,-27.9168701171875,293.7489013671875
1700075629,1.0580291748046875,0.0919952392578125,-0.1083526611328125,-0.4585220217704773,0.4989887773990631,0.0553269051015377,94.76429748535156,-26.903717041015625,293.00909423828125
1700075629,1.0320587158203125,0.0666961669921875,-0.12750244140625,-0.405823141336441,0.4864745736122131,0.044993307441473,94.58439636230467,-26.23741149902344,293.3037109375
1700075629,1.0060882568359375,-0.0151519775390625,-0.1611328125,-0.4347589015960693,0.4644717872142792,0.0726704746484756,94.46023559570312,-25.753387451171875,293.0106811523437
1700075629,0.9836273193359376,-0.072967529296875,-0.2173004150390625,-0.514944851398468,0.4040931463241577,0.1233392432332038,94.34649658203124,-25.063766479492188,292.5439758300781
1700075629,0.9697723388671876,-0.062896728515625,-0.265869140625,-0.5881500840187073,0.3395383954048157,0.1477583050727844,94.1273956298828,-24.718414306640625,292.2642822265625
1700075629,0.9749298095703124,-0.03009033203125,-0.2798614501953125,-0.5962370038032532,0.282321959733963,0.158193901181221,94.76199340820312,-24.581039428710938,291.9455871582031
1700075629,0.9691314697265624,0.000640869140625,-0.2682342529296875,-0.5403527021408081,0.2403694540262222,0.1622008830308914,95.38258361816406,-24.108322143554688,292.206787109375
1700075629,0.96551513671875,0.006805419921875,-0.229705810546875,-0.5046042799949646,0.2315442711114883,0.1811024099588394,95.48074340820312,-23.86297607421875,292.1983337402344
1700075629,0.9677581787109376,-0.001251220703125,-0.1933441162109375,-0.4990617334842682,0.2401968836784362,0.2028026431798935,95.82754516601562,-23.664520263671875,291.5191650390625
1700075629,0.9673309326171876,-0.001708984375,-0.1868133544921875,-0.5178908109664917,0.2363161295652389,0.2254144847393036,96.60470581054688,-23.59419250488281,291.22100830078125
1700075629,0.976715087890625,0.006988525390625,-0.19696044921875,-0.5125192403793335,0.2267886698246002,0.2438044100999832,97.53361511230467,-23.44911193847656,291.32403564453125
1700075629,0.984405517578125,0.01031494140625,-0.19696044921875,-0.4730122983455658,0.219311311841011,0.2357512712478637,98.46109008789062,-23.19764709472656,290.2843017578125
1700075629,0.9954833984375,-0.0106658935546875,-0.196868896484375,-0.4221296608448028,0.2087689191102981,0.235075369477272,99.4028778076172,-23.593658447265625,290.80792236328125
1700075629,0.9980316162109376,-0.0363006591796875,-0.1933746337890625,-0.3913621604442596,0.1977548897266388,0.2688676714897156,100.57949829101562,-23.52401733398437,289.6605224609375
1700075629,0.9901123046875,-0.0298004150390625,-0.215850830078125,-0.3803153932094574,0.1570045351982116,0.2944737076759338,102.2915496826172,-23.513092041015625,289.1371459960937
1700075629,0.987884521484375,0.0007476806640625,-0.2397613525390625,-0.3873634338378906,0.128229334950447,0.2940992712974548,103.78091430664062,-23.461959838867188,288.827880859375
1700075629,0.9847259521484376,0.023712158203125,-0.240325927734375,-0.3987657725811004,0.1344736516475677,0.283470869064331,104.98931884765624,-23.545242309570312,288.2572631835937
1700075629,0.9561767578125,0.048187255859375,-0.217315673828125,-0.403216689825058,0.1357682198286056,0.3140996098518371,106.89797973632812,-24.190109252929688,287.62255859375
1700075629,0.92852783203125,0.080108642578125,-0.1844482421875,-0.3796080350875854,0.1598493158817291,0.2965919971466064,108.60853576660156,-24.75180053710937,287.21978759765625
1700075629,0.9365692138671876,0.0489501953125,-0.1734466552734375,-0.3416968882083893,0.1894956231117248,0.2840303778648376,110.22477722167967,-24.986404418945312,287.0517883300781
1700075629,0.952880859375,0.0141754150390625,-0.1882171630859375,-0.3147627413272857,0.1867073029279709,0.2977629899978637,111.860107421875,-25.831588745117188,286.7498779296875
1700075629,0.9803619384765624,-0.010772705078125,-0.2033233642578125,-0.3078936338424682,0.1746759414672851,0.3352094292640686,113.98362731933594,-26.727615356445312,286.65985107421875
1700075629,0.9943389892578124,-0.031219482421875,-0.229461669921875,-0.322182834148407,0.1496712565422058,0.3738625347614288,115.4357452392578,-27.7327880859375,286.850830078125
1700075629,0.994873046875,-0.0322723388671875,-0.253753662109375,-0.3300389051437378,0.118780180811882,0.396109789609909,116.94474792480467,-28.31170654296875,288.07403564453125
1700075629,0.9822235107421876,-0.012451171875,-0.2598419189453125,-0.3257650434970855,0.1007388606667518,0.4153364896774292,118.77084350585938,-29.52354431152344,287.90594482421875
1700075629,0.96173095703125,0.0397186279296875,-0.2477264404296875,-0.3111504316329956,0.0905275046825409,0.4207392334938049,120.22080993652344,-30.357940673828125,288.5007629394531
1700075629,0.9603729248046876,0.076263427734375,-0.2144622802734375,-0.2160976827144622,0.1260056048631668,0.4207030236721039,121.53665161132812,-31.205368041992188,288.8398742675781
1700075629,0.95343017578125,0.0522003173828125,-0.1797332763671875,-0.160604327917099,0.1420924216508865,0.4652696847915649,122.1332550048828,-31.454391479492188,289.74072265625
1700075629,0.9405059814453124,0.061004638671875,-0.1631622314453125,-0.1467891782522201,0.1668499708175659,0.4808699488639831,122.97225952148438,-32.366424560546875,289.94122314453125
1700075629,0.985565185546875,0.0001068115234375,-0.1349334716796875,-0.214494988322258,0.2140952497720718,0.5400805473327637,123.81005859375,-32.33338928222656,290.111083984375
1700075629,1.0056304931640625,-0.0870208740234375,-0.151947021484375,-0.3561658263206482,0.1943814605474472,0.6301379799842834,124.12165832519533,-32.66151428222656,291.2078857421875
1700075629,0.9966278076171876,-0.123504638671875,-0.28656005859375,-0.4393432736396789,0.0785901471972465,0.7204865217208862,124.52862548828124,-32.64811706542969,290.61773681640625
1700075629,1.0130767822265625,-0.107269287109375,-0.364776611328125,-0.4769929349422455,-0.0076187714003026,0.7931138873100281,124.63832092285156,-32.45637512207031,290.60186767578125
1700075629,1.0094757080078125,-0.0318756103515625,-0.314849853515625,-0.459624320268631,-0.0281746461987495,0.7631719708442688,124.31466674804688,-32.40596008300781,290.62725830078125
1700075629,0.9810638427734376,0.10211181640625,-0.250946044921875,-0.3928681910037994,-0.0240233112126588,0.723185658454895,124.58258056640624,-32.7452392578125,290.75360107421875
1700075629,0.970428466796875,0.2332916259765625,-0.2035369873046875,-0.2743149101734161,-0.0194594524800777,0.685458779335022,124.23158264160156,-32.657470703125,291.0115966796875
1700075629,0.9811553955078124,0.2597808837890625,-0.178192138671875,-0.1874005198478698,-0.0152111770585179,0.6801396608352661,124.41622924804688,-32.828216552734375,291.0002746582031
1700075629,0.9851837158203124,0.1829986572265625,-0.180206298828125,-0.2152502536773681,-0.0317888222634792,0.7093875408172607,123.9669952392578,-32.25297546386719,291.50262451171875
1700075629,0.964691162109375,0.0553741455078125,-0.2330322265625,-0.3317539691925049,-0.0691066309809684,0.7569329738616943,123.46304321289062,-31.52476501464844,291.8176574707031
1700075629,0.96697998046875,-0.0477752685546875,-0.3215484619140625,-0.3831329941749573,-0.1421640664339065,0.8533327579498291,123.29061889648438,-30.273208618164062,291.891845703125
1700075629,0.98358154296875,-0.0786895751953125,-0.3440093994140625,-0.3272771835327148,-0.1954523175954818,0.9633268713951112,122.98837280273438,-29.63287353515625,291.4593505859375
1700075629,0.9833984375,-0.038330078125,-0.2804718017578125,-0.3121507167816162,-0.2251199334859848,0.999852418899536,122.79388427734376,-28.96763610839844,290.7757568359375
1700075629,0.969024658203125,0.109039306640625,-0.219970703125,-0.3354965150356293,-0.257058173418045,0.966611623764038,122.60130310058594,-28.937057495117188,291.1319274902344
1700075629,0.9922943115234376,0.2690277099609375,-0.165435791015625,-0.4007410407066345,-0.2700559794902801,1.0344996452331543,122.4376983642578,-28.748611450195312,290.4796142578125
1700075629,0.9891815185546876,0.4002227783203125,-0.1171722412109375,-0.3911656439304352,-0.2488202005624771,0.9915207028388976,122.36849975585938,-28.82652282714844,290.39178466796875
1700075629,1.0298004150390625,0.3115386962890625,-0.1003265380859375,-0.3182749152183532,-0.2187179625034332,0.9836257696151732,122.83746337890624,-28.865753173828125,290.3997802734375
1700075629,1.0527801513671875,0.123291015625,-0.180084228515625,-0.295691043138504,-0.27092045545578,1.0620495080947876,122.81703186035156,-28.993911743164062,290.205810546875
1700075629,1.075103759765625,0.030303955078125,-0.2904510498046875,-0.3396781980991363,-0.3131062388420105,1.1010384559631348,122.3568115234375,-29.38287353515625,290.55670166015625
1700075629,1.1401519775390625,-0.0065155029296875,-0.3540802001953125,-0.2650183439254761,-0.3406526446342468,1.1160149574279783,122.95762634277344,-29.64662170410156,290.3728332519531
1700075629,1.1588134765625,-0.032989501953125,-0.3327484130859375,-0.182679533958435,-0.3459100127220154,1.1497331857681274,122.88560485839844,-29.609390258789062,290.677490234375
1700075630,1.131439208984375,0.041717529296875,-0.3058929443359375,-0.1052955314517021,-0.3708752691745758,1.132053256034851,122.96492004394533,-29.90342712402344,290.0926513671875
1700075630,1.12774658203125,0.16192626953125,-0.23724365234375,-0.0279405545443296,-0.3721213638782501,1.0848826169967651,123.04620361328124,-30.0318603515625,290.433837890625
1700075630,1.1490020751953125,0.2432861328125,-0.16668701171875,0.0212648082524538,-0.3593682944774627,1.068017840385437,123.0497589111328,-30.277114868164062,290.6171875
1700075630,1.16082763671875,0.2735595703125,-0.1169891357421875,0.0920985043048858,-0.3878092467784881,1.121888518333435,123.19059753417967,-30.59423828125,290.2665405273437
1700075630,1.1822662353515625,0.25262451171875,-0.0628204345703125,0.1347237229347229,-0.4282128512859344,1.2065099477767944,123.3184051513672,-30.705322265625,290.81903076171875
1700075630,1.2146453857421875,0.180694580078125,-0.0667572021484375,0.107931263744831,-0.4214388430118561,1.2732006311416626,123.342529296875,-31.12998962402344,290.8217468261719
1700075630,1.2166290283203125,0.086395263671875,-0.1187286376953125,0.0413770005106925,-0.4134317934513092,1.2831066846847534,123.50747680664062,-31.70887756347656,290.8104858398437
1700075630,1.2069244384765625,-0.0109405517578125,-0.173797607421875,-0.0531713441014289,-0.4412471652030945,1.3124524354934692,123.09031677246094,-31.66856384277344,291.7519226074219
1700075630,1.1804656982421875,-0.0440216064453125,-0.2001800537109375,-0.2565985023975372,-0.4759449660778045,1.3840333223342896,123.3812255859375,-32.16847229003906,291.4379272460937
1700075630,1.1016387939453125,-0.00115966796875,-0.2333221435546875,-0.4838372468948364,-0.5333051681518555,1.4330099821090698,123.38557434082033,-32.88398742675781,291.4627685546875
1700075630,1.027252197265625,0.043701171875,-0.22393798828125,-0.7981062531471252,-0.5806271433830261,1.476649045944214,123.3368682861328,-33.140167236328125,292.2884521484375
1700075630,0.953582763671875,0.1165618896484375,-0.21160888671875,-1.1996065378189087,-0.6521252989768982,1.510554552078247,123.00340270996094,-33.80810546875,292.4697265625
1700075630,0.88824462890625,0.21343994140625,-0.2053680419921875,-1.6014032363891602,-0.6788339018821716,1.5421617031097412,123.1414031982422,-34.132843017578125,292.37353515625
1700075630,0.839324951171875,0.3240203857421875,-0.2346649169921875,-1.9695615768432613,-0.7044820189476013,1.5591593980789185,123.10295104980467,-34.849273681640625,292.60772705078125
1700075630,0.7897796630859375,0.4669647216796875,-0.2996063232421875,-2.3447587490081787,-0.7561886310577393,1.5394405126571655,123.1808624267578,-34.91087341308594,292.87164306640625
1700075630,0.77471923828125,0.613037109375,-0.34027099609375,-2.6997339725494385,-0.9111526012420654,1.410879611968994,123.50363159179688,-35.319183349609375,293.0738830566406
1700075630,0.8270416259765625,0.6759796142578125,-0.244415283203125,-3.021591186523437,-1.047374606132507,1.1059151887893677,123.2805633544922,-35.915435791015625,293.4534912109375
1700075630,0.90985107421875,0.46514892578125,-0.0368804931640625,-3.4612319469451904,-0.9970694184303284,0.928520679473877,123.63365173339844,-36.05668640136719,293.522216796875
1700075630,0.80419921875,0.105072021484375,-0.0580291748046875,-4.115241527557373,-0.9720950722694396,0.8188030123710632,123.34771728515624,-36.987579345703125,294.0704345703125
1700075630,0.6688995361328125,-0.169097900390625,-0.2462158203125,-4.885287761688232,-0.9883022904396056,0.7028553485870361,123.28361511230467,-37.64360046386719,294.89678955078125
1700075630,0.600738525390625,-0.3612213134765625,-0.3688201904296875,-5.331881523132324,-1.0083467960357666,0.5336458086967468,123.31822204589844,-37.84068298339844,294.6425476074219
1700075630,0.577117919921875,-0.4934844970703125,-0.3664093017578125,-5.217222690582275,-1.053753137588501,0.5057372450828552,123.35972595214844,-38.16954040527344,294.8577880859375
1700075630,0.5571441650390625,-0.43548583984375,-0.2942047119140625,-4.930985450744629,-1.1665407419204712,0.5446428060531616,123.30876159667967,-38.53424072265625,294.69451904296875
1700075630,0.5584716796875,-0.154937744140625,-0.2977142333984375,-4.477090358734131,-1.299427151679993,0.364468514919281,123.31607055664062,-38.87062072753906,295.10955810546875
1700075630,0.69390869140625,0.11346435546875,-0.255340576171875,-3.88202166557312,-1.3952308893203735,0.0887655541300773,123.29620361328124,-39.1251220703125,295.4578857421875
1700075630,0.7974853515625,0.352447509765625,-0.17852783203125,-3.278648853302002,-1.440196514129639,-0.2017632126808166,123.49984741210938,-39.63368225097656,295.99578857421875
1700075630,0.870635986328125,0.5291290283203125,-0.11065673828125,-2.7891664505004883,-1.4761971235275269,-0.5146902203559875,123.00959777832033,-40.21807861328125,296.6669311523437
1700075630,0.953643798828125,0.5386505126953125,-0.103302001953125,-2.409900665283203,-1.529247522354126,-0.7254501581192017,122.90957641601562,-40.23809814453125,296.91851806640625
1700075630,0.9618988037109376,0.387115478515625,-0.1496734619140625,-2.2295823097229004,-1.5656061172485352,-0.7995789647102356,123.29470825195312,-40.3802490234375,296.7367248535156
1700075630,0.882781982421875,0.242279052734375,-0.21685791015625,-2.2337234020233154,-1.5332441329956057,-0.8344338536262512,122.8916015625,-41.0660400390625,297.49713134765625
1700075630,0.82843017578125,0.138702392578125,-0.2852020263671875,-2.3786063194274902,-1.4754040241241455,-0.855593204498291,123.01707458496094,-40.92616271972656,297.7450561523437
1700075630,0.8246002197265625,0.09765625,-0.3555755615234375,-2.5659384727478027,-1.4262197017669678,-0.8611083626747131,122.54988098144533,-41.51194763183594,297.8524780273437
1700075630,0.874542236328125,0.1251678466796875,-0.40191650390625,-2.7160000801086426,-1.391619086265564,-0.8641270399093628,122.5587158203125,-41.624542236328125,297.63592529296875
1700075630,0.9315643310546876,0.191925048828125,-0.403717041015625,-2.8031105995178223,-1.3452457189559937,-0.8877301216125488,122.63233947753906,-41.88311767578125,297.963134765625
1700075630,0.9584808349609376,0.268218994140625,-0.3819122314453125,-2.854467868804932,-1.297746181488037,-0.914314329624176,122.79470825195312,-42.23333740234375,297.3059997558594
1700075630,0.9502105712890624,0.333343505859375,-0.3535614013671875,-2.8833823204040527,-1.2541099786758425,-0.920452892780304,122.57478332519533,-42.51966857910156,297.3556823730469
1700075630,0.95660400390625,0.3568572998046875,-0.34039306640625,-2.8849477767944336,-1.2408394813537598,-0.8815765976905823,122.65162658691406,-42.71253967285156,298.5785522460937
1700075630,0.9962005615234376,0.359832763671875,-0.3240203857421875,-2.840047597885132,-1.248159646987915,-0.8045840859413147,122.23126220703124,-42.56355285644531,298.58233642578125
1700075630,1.0421600341796875,0.37255859375,-0.3083953857421875,-2.757310390472412,-1.2491415739059448,-0.7358428835868835,122.141845703125,-42.58781433105469,298.57293701171875
1700075630,1.074676513671875,0.386810302734375,-0.313018798828125,-2.6416661739349365,-1.2299647331237793,-0.6861479878425598,122.37635803222656,-42.26364135742188,298.4527587890625
1700075630,1.0746002197265625,0.38507080078125,-0.3310089111328125,-2.516986608505249,-1.172651290893555,-0.6501553654670715,122.0661163330078,-42.302520751953125,298.61505126953125
1700075630,1.0524749755859375,0.3558502197265625,-0.352935791015625,-2.415499448776245,-1.0906726121902466,-0.60811847448349,122.2273406982422,-41.76615905761719,298.7623596191406
1700075630,1.0270843505859375,0.3145751953125,-0.3899383544921875,-2.312631607055664,-0.995686173439026,-0.5663198828697205,122.00717163085938,-41.70671081542969,298.82281494140625
1700075630,1.0066375732421875,0.284271240234375,-0.4038848876953125,-2.206796169281006,-0.8819249868392944,-0.5128191113471985,121.95736694335938,-41.53953552246094,298.3944702148437
1700075630,0.98565673828125,0.2794647216796875,-0.409698486328125,-2.065650224685669,-0.772430419921875,-0.4702852070331573,122.1435546875,-41.2049560546875,298.5068359375
1700075630,0.96478271484375,0.297637939453125,-0.4026641845703125,-1.860594630241394,-0.6592748165130615,-0.4633780419826507,122.07215881347656,-40.39250183105469,298.4461669921875
1700075630,0.9619140625,0.316009521484375,-0.365997314453125,-1.5862743854522705,-0.557392418384552,-0.4615700244903564,121.69764709472656,-39.68527221679688,298.264892578125
1700075630,0.953857421875,0.3383636474609375,-0.3190460205078125,-1.2675267457962036,-0.4670894145965576,-0.4614520370960235,121.5635986328125,-39.23382568359375,298.2884521484375
1700075630,0.9611358642578124,0.3565673828125,-0.2977752685546875,-0.92215496301651,-0.3970000743865967,-0.4650654196739197,121.6978759765625,-38.93206787109375,297.99932861328125
1700075630,0.968841552734375,0.3757171630859375,-0.275909423828125,-0.57906574010849,-0.3528177142143249,-0.4079648554325104,121.86781311035156,-37.80635070800781,297.6025390625
1700075630,0.982757568359375,0.425689697265625,-0.2264404296875,-0.3838438093662262,-0.2360444813966751,-0.3667367100715637,121.87811279296876,-37.03776550292969,298.03790283203125
1700075630,0.97637939453125,0.4281158447265625,-0.28668212890625,-0.2816961407661438,-0.1346169263124466,-0.2890129089355469,121.35484313964844,-36.76319885253906,297.28887939453125
1700075630,0.939849853515625,0.3975067138671875,-0.345123291015625,-0.2171360403299331,-0.0397932194173336,-0.1427941620349884,121.6159210205078,-35.79277038574219,297.2543334960937
1700075630,0.9211578369140624,0.4034423828125,-0.4026641845703125,-0.0140817305073142,-0.0448345839977264,0.0513252392411232,120.85800170898438,-35.06300354003906,297.2532958984375
1700075630,0.9155731201171876,0.49359130859375,-0.341552734375,0.1792496442794799,0.0286558791995048,0.0964027047157287,121.4211883544922,-34.726409912109375,297.2730712890625
1700075630,0.9665374755859376,0.548919677734375,-0.30712890625,0.3343457579612732,0.1066745147109031,0.0738840773701667,121.03627014160156,-33.94404602050781,297.2406005859375
1700075630,0.9421844482421876,0.578521728515625,-0.280731201171875,0.4646947085857391,0.0768985077738761,-0.0665854215621948,120.73410034179688,-33.83343505859375,296.8714599609375
1700075630,1.0067901611328125,0.425537109375,-0.1741485595703125,0.480692595243454,0.0049963565543293,-0.1811740547418594,120.51716613769533,-33.43101501464844,297.29217529296875
1700075630,1.0571136474609375,0.204498291015625,-0.0597991943359375,0.4022952616214752,-0.0204743817448616,-0.2333879917860031,120.46734619140624,-32.8260498046875,297.552490234375
1700075630,0.9806671142578124,0.030853271484375,-0.034637451171875,0.243280827999115,-0.0183353312313556,-0.2160766422748565,120.134033203125,-32.38929748535156,297.80535888671875
1700075630,0.90869140625,-0.065216064453125,-0.069610595703125,0.0282241813838481,-0.0163917560130357,-0.1604471951723098,120.10610961914062,-32.140472412109375,297.79901123046875
1700075630,0.8885650634765625,-0.0579071044921875,-0.12628173828125,-0.1551475077867508,-0.0337571650743484,-0.1180989444255828,120.23762512207033,-32.134368896484375,298.19500732421875
1700075630,0.9285736083984376,0.0201263427734375,-0.15203857421875,-0.2467408031225204,-0.0472394190728664,-0.1208459958434104,119.76243591308594,-31.8223876953125,298.3509521484375
1700075630,0.9978179931640624,0.1082000732421875,-0.1499176025390625,-0.2421367317438125,-0.0431839562952518,-0.1324299424886703,119.6453857421875,-31.77037048339844,298.52252197265625
1700075630,1.024139404296875,0.182830810546875,-0.13983154296875,-0.1619441658258438,-0.0460266135632991,-0.1587542295455932,119.77288818359376,-31.556625366210938,298.9146728515625
1700075630,1.02197265625,0.2240753173828125,-0.1107330322265625,0.0145331360399723,-0.0341830030083656,-0.2348146438598632,119.57452392578124,-30.94427490234375,299.2313232421875
1700075630,1.0278167724609375,0.2112579345703125,-0.100189208984375,0.1383975595235824,-0.0420808754861354,-0.2464095056056976,119.21257019042967,-30.587158203125,300.1389465332031
1700075630,1.0135345458984375,0.234771728515625,-0.0965423583984375,0.2347022593021392,-0.0287922341376543,-0.2607684731483459,119.21868896484376,-30.928375244140625,300.1506042480469
1700075630,1.004791259765625,0.2481689453125,-0.091064453125,0.3115975558757782,-0.0328916385769844,-0.2813422083854675,119.06434631347656,-30.67933654785156,300.92144775390625
1700075630,1.0126953125,0.2165679931640625,-0.0858001708984375,0.3373881578445434,-0.0142673524096608,-0.2808692157268524,119.16299438476562,-30.74267578125,302.09234619140625
1700075630,1.000823974609375,0.1600341796875,-0.06939697265625,0.3346410989761352,0.0114499945193529,-0.2881838679313659,118.98805236816406,-30.722381591796875,302.7193603515625
1700075630,0.99639892578125,0.056640625,-0.0612945556640625,0.2748342156410217,0.0380965173244476,-0.2676226496696472,119.13923645019533,-30.48516845703125,303.289306640625
1700075630,1.0016632080078125,-0.0279693603515625,-0.0788421630859375,0.1557379364967346,0.054468035697937,-0.1958744376897812,119.32476806640624,-30.55575561523437,303.7288513183594
1700075630,0.99798583984375,-0.0485076904296875,-0.1229248046875,0.0852792114019393,0.0490988381206989,-0.1244575083255767,119.68919372558594,-30.512176513671875,304.83721923828125
1700075630,0.999359130859375,-0.0184326171875,-0.1351318359375,0.1297377496957779,0.0297363232821226,-0.0855932012200355,119.78752136230467,-30.6060791015625,305.9830322265625
1700075630,1.0145416259765625,0.0436859130859375,-0.1036834716796875,0.2912576794624328,0.0180375892668962,-0.0809201523661613,120.29847717285156,-30.65565490722656,306.8265380859375
1700075630,0.9987945556640624,0.1352081298828125,-0.0646820068359375,0.5527276396751404,0.0372911803424358,-0.1277747452259063,120.81082153320312,-30.429351806640625,306.7938842773437
1700075630,0.97723388671875,0.1983795166015625,-0.030853271484375,0.8861492872238159,0.0549031943082809,-0.1904162764549255,121.2385711669922,-30.095977783203125,307.7958374023437
1700075630,0.969573974609375,0.238189697265625,-0.0345001220703125,1.2363336086273191,0.0641614124178886,-0.2488572150468826,121.9599609375,-28.82504272460937,307.77557373046875
1700075630,0.9819793701171876,0.2648773193359375,-0.0539398193359375,1.4544726610183716,0.088910162448883,-0.3417317569255829,121.82406616210938,-27.324539184570312,307.464599609375
1700075630,1.0168914794921875,0.2042236328125,-0.0779571533203125,1.6053502559661863,0.0940852165222168,-0.3660309910774231,122.09661865234376,-25.01802062988281,306.47186279296875
1700075630,0.994476318359375,0.1108856201171875,-0.0734100341796875,1.7700268030166626,0.0710824355483055,-0.3000066876411438,122.36344909667967,-23.130279541015625,305.9232177734375
1700075630,0.9487152099609376,0.0916748046875,-0.0267181396484375,1.910758376121521,0.0423373356461524,-0.2525121569633484,122.380615234375,-20.70738220214844,305.5508117675781
1700075630,0.955963134765625,0.1264495849609375,0.03802490234375,1.9709978103637693,0.0282518770545721,-0.2894938588142395,121.86473083496094,-18.580093383789062,304.19708251953125
1700075630,0.9816436767578124,0.1695404052734375,0.104827880859375,1.975728869438172,0.0313075892627239,-0.3771864175796509,121.9390869140625,-16.268112182617188,304.21978759765625
1700075630,0.9911346435546876,0.14593505859375,0.1307830810546875,1.8604353666305544,0.0267016515135765,-0.4575752913951874,121.49034118652344,-14.795608520507812,303.529052734375
1700075630,0.9864349365234376,0.0594024658203125,0.11737060546875,1.5629045963287354,0.0121626565232872,-0.440531313419342,120.94496154785156,-13.726760864257812,303.9205322265625
1700075630,0.9803924560546876,-0.0286712646484375,0.08935546875,1.073233127593994,0.0377950482070446,-0.4700205028057098,120.72125244140624,-12.388595581054688,303.77117919921875
1700075630,1.0110015869140625,-0.146728515625,1.52587890625e-05,0.3962751626968384,0.146464005112648,-0.4763668179512024,120.66030883789062,-11.356369018554688,304.24176025390625
1700075630,0.9957122802734376,-0.2824554443359375,-0.1647491455078125,-0.1320419162511825,0.2019403129816055,-0.4470667243003845,120.1754913330078,-10.377609252929688,304.5513916015625
1700075630,0.970672607421875,-0.3448333740234375,-0.3296966552734375,-0.2841536998748779,0.1943300664424896,-0.2082456201314926,119.46188354492188,-9.56396484375,305.07275390625
1700075630,0.9842987060546876,-0.167327880859375,-0.397369384765625,-0.3736337721347809,0.1584490239620208,-0.0574795380234718,119.16961669921876,-8.613662719726562,305.044189453125
1700075630,1.015533447265625,0.113800048828125,-0.4552764892578125,-0.4017740786075592,0.0812362655997276,-0.1474768072366714,118.61219787597656,-7.620391845703125,305.9163818359375
1700075630,1.10986328125,0.2302703857421875,-0.3019561767578125,-0.3339667916297912,0.0820250958204269,-0.2905758917331695,117.9733428955078,-6.726364135742188,306.1739196777344
1700075630,1.089996337890625,0.269775390625,-0.1977691650390625,-0.0925869271159172,0.0776151642203331,-0.3808424174785614,117.6304168701172,-5.7836761474609375,307.16571044921875
1700075630,0.9997100830078124,0.2133331298828125,-0.1715545654296875,0.1396044939756393,0.0547881461679935,-0.4126110076904297,117.87501525878906,-4.7744140625,307.7416381835937
1700075630,0.963043212890625,0.1118316650390625,-0.131805419921875,0.1880380809307098,0.0537103675305843,-0.4033240377902984,117.19241333007812,-3.9404144287109375,308.7489013671875
1700075630,0.955047607421875,0.0272369384765625,-0.1107177734375,0.1039780676364898,0.0686134174466133,-0.3806967437267303,116.96427917480467,-2.899169921875,308.91064453125
1700075630,0.9597930908203124,-0.0343017578125,-0.08941650390625,-0.0182927213609218,0.0856685638427734,-0.3499577343463897,116.275634765625,-1.743377685546875,309.685546875
1700075630,0.9787445068359376,-0.073150634765625,-0.09576416015625,-0.1404327452182769,0.099988117814064,-0.3070515394210815,116.39305114746094,-0.3894500732421875,310.0154724121094
1700075631,0.9830474853515624,-0.05255126953125,-0.1261749267578125,-0.2284214496612548,0.1035218611359596,-0.2932305335998535,116.19288635253906,0.5885467529296875,310.8414306640625
1700075631,0.9945831298828124,-0.01129150390625,-0.1356658935546875,-0.2504977285861969,0.1033570170402526,-0.3035124838352203,115.70785522460938,1.7181854248046875,310.53826904296875
1700075631,1.0011138916015625,0.0316619873046875,-0.110107421875,-0.2067020386457443,0.1113321185111999,-0.3026584088802337,115.2308349609375,3.021881103515625,311.1896057128906
1700075631,0.9948577880859376,0.042388916015625,-0.081390380859375,-0.1277220100164413,0.1230612099170684,-0.2929551601409912,115.04092407226562,4.170913696289063,310.9638671875
1700075631,0.9904327392578124,0.01068115234375,-0.077728271484375,-0.0694714859127998,0.133312776684761,-0.2751942873001098,115.28562927246094,5.6898345947265625,311.81304931640625
1700075631,0.987548828125,-0.042083740234375,-0.1017913818359375,-0.0445863753557205,0.1361293494701385,-0.2349054515361786,115.21694946289062,6.796844482421875,311.96209716796875
1700075631,0.979095458984375,-0.0724334716796875,-0.126068115234375,-0.0504221618175506,0.1333556622266769,-0.1912639737129211,115.02394104003906,8.08892822265625,311.5167541503906
1700075631,0.971405029296875,-0.082916259765625,-0.140777587890625,-0.0553884245455265,0.138463869690895,-0.1506190747022628,115.02011108398438,9.416305541992188,311.7106018066406
1700075631,0.966949462890625,-0.085205078125,-0.1416778564453125,-0.0607885159552097,0.1423393040895462,-0.1078305914998054,115.14453125,10.295318603515623,311.60894775390625
1700075631,0.968902587890625,-0.073638916015625,-0.130615234375,-0.0665145814418792,0.1438450515270233,-0.0770519077777862,115.49961853027344,11.61065673828125,311.411865234375
1700075631,0.979766845703125,-0.0633544921875,-0.1235809326171875,-0.0671350955963134,0.1525807529687881,-0.0513452142477035,115.6416015625,12.76812744140625,310.96636962890625
1700075631,0.9852142333984376,-0.057525634765625,-0.1276092529296875,-0.0801321193575859,0.1535618603229522,-0.02899463288486,115.92527770996094,13.637420654296877,310.81842041015625
1700075631,0.9831695556640624,-0.0431060791015625,-0.1345062255859375,-0.0880190730094909,0.153687834739685,-0.0165198538452386,116.85153198242188,14.473709106445312,309.85137939453125
1700075631,0.98541259765625,-0.0203399658203125,-0.1337738037109375,-0.0772836059331893,0.1536268442869186,-0.0251503605395555,117.80389404296876,14.799468994140623,309.0272521972656
1700075631,0.9977874755859376,0.0009613037109375,-0.113311767578125,-0.0574992448091506,0.1661556810140609,-0.0362658612430095,118.5530242919922,15.3424072265625,308.169677734375
1700075631,1.0073394775390625,0.0079498291015625,-0.10101318359375,-0.0468359477818012,0.1719027906656265,-0.0391758978366851,119.46438598632812,15.291793823242188,307.8326110839844
1700075631,1.007537841796875,0.0024871826171875,-0.1060638427734375,-0.0292617492377758,0.1919971406459808,-0.0646847188472747,120.5502471923828,15.0892333984375,307.6593322753906
1700075631,1.0027313232421875,-0.0127105712890625,-0.1409912109375,0.1089448556303978,0.271076500415802,-0.1804320961236953,122.13517761230467,14.61407470703125,306.54119873046875
1700075631,1.003387451171875,-0.092681884765625,-0.1978759765625,0.0347225591540336,0.2270709723234176,-0.1242987811565399,123.5586395263672,13.775634765625,306.125244140625
1700075631,0.97247314453125,-0.0550537109375,-0.1243896484375,-0.0845604240894317,0.1829887330532074,-0.0360863655805587,125.41502380371094,12.6033935546875,306.3602294921875
1700075631,0.9498443603515624,0.0371856689453125,-0.1197662353515625,-0.0704770982265472,0.1706383228302002,-0.0128833083435893,127.14857482910156,10.813705444335938,306.18377685546875
1700075631,0.963897705078125,0.0137176513671875,-0.115447998046875,-0.047986701130867,0.1726468801498413,-0.0156215699389576,128.76885986328125,8.570953369140625,306.3623046875
1700075631,0.9809722900390624,-0.00860595703125,-0.12579345703125,-0.0209990255534648,0.1688295006752014,-0.0126324379816651,130.3544921875,6.265960693359375,306.1128845214844
1700075631,0.9999542236328124,-0.0164947509765625,-0.13116455078125,0.0100318612530827,0.1726996004581451,-0.0269711632281541,131.6360626220703,4.058151245117188,306.5418701171875
1700075631,1.0143890380859375,-0.0193634033203125,-0.1421356201171875,0.0133078154176473,0.1664049625396728,-0.030599720776081,132.92306518554688,1.943267822265625,305.894775390625
1700075631,1.0075225830078125,-0.0067138671875,-0.1577301025390625,-0.0111874071881175,0.158028244972229,-0.0372674763202667,133.6490478515625,-0.1442718505859375,305.43951416015625
1700075631,1.00067138671875,0.016143798828125,-0.162384033203125,-0.0182799380272626,0.1531141847372055,-0.0541007854044437,134.2909393310547,-2.4470977783203125,303.9921875
1700075631,0.9976806640625,0.028594970703125,-0.1491546630859375,-0.0117192398756742,0.1579523533582687,-0.0762092843651771,134.46920776367188,-4.346481323242188,303.19268798828125
1700075631,0.996612548828125,0.01025390625,-0.127197265625,-0.0358847640454769,0.172389879822731,-0.0739341452717781,134.25189208984375,-5.595458984375,302.0181884765625
1700075631,0.9866790771484376,-0.01739501953125,-0.133453369140625,-0.0642719268798828,0.1705818623304367,-0.0604233965277671,133.61407470703125,-7.468170166015625,300.6346435546875
1700075631,0.980865478515625,-0.0255126953125,-0.1468048095703125,-0.080161415040493,0.1728418171405792,-0.0556302405893802,133.19577026367188,-8.469024658203125,299.06915283203125
1700075631,0.9848175048828124,-0.0169830322265625,-0.1378936767578125,-0.0783525928854942,0.1931169927120208,-0.0704217031598091,132.5004119873047,-9.976470947265623,298.0260009765625
1700075631,0.991668701171875,-0.0462188720703125,-0.1061553955078125,-0.1032030805945396,0.2084850370883941,-0.0635629966855049,131.6667022705078,-10.705413818359377,296.3367004394531
1700075631,0.9846954345703124,-0.082672119140625,-0.1181488037109375,-0.1246793493628501,0.1854809075593948,-0.0169398356229066,130.47979736328125,-11.293746948242188,294.2737731933594
1700075631,0.967071533203125,-0.003173828125,-0.1934814453125,-0.1026632636785507,0.1676337420940399,-0.0220509730279445,130.05072021484375,-11.7664794921875,292.5839233398437
1700075631,0.9981536865234376,0.041259765625,-0.166748046875,-0.0385423339903354,0.1578767150640487,-0.0561985559761524,129.25631713867188,-12.404678344726562,291.07598876953125
1700075631,1.0069732666015625,-0.0059661865234375,-0.15301513671875,-0.0094451671466231,0.1450882107019424,-0.0512277670204639,128.45343017578125,-12.960556030273438,289.2082824707031
1700075631,0.983642578125,-0.0446624755859375,-0.1900787353515625,-0.0268209613859653,0.1293718367815017,-0.0301927905529737,128.2052459716797,-13.756149291992188,287.3232116699219
1700075631,0.982330322265625,-0.056640625,-0.195648193359375,-0.0612335316836833,0.1136397495865821,-0.0263738166540861,127.82371520996094,-13.825424194335938,285.1209411621094
1700075631,0.98687744140625,-0.04315185546875,-0.19085693359375,-0.0792607367038726,0.1031945645809173,-0.0253932401537895,127.90982055664062,-14.00335693359375,282.88671875
1700075631,0.9847259521484376,-0.006988525390625,-0.1844635009765625,-0.0406185314059257,0.1034422367811203,-0.0483755208551883,127.75376892089844,-14.727813720703123,281.2999572753906
1700075631,1.0020294189453125,-0.0375518798828125,-0.141204833984375,-0.0366371050477027,0.1059469357132911,-0.0426388047635555,128.15476989746094,-14.953033447265623,280.5814819335937
1700075631,0.99920654296875,-0.0697479248046875,-0.1692047119140625,-0.0792977511882782,0.0958724692463874,-0.0119517343118786,128.50875854492188,-15.186691284179688,278.94207763671875
1700075631,0.982086181640625,-0.0490570068359375,-0.208099365234375,-0.1237238049507141,0.0895317494869232,-0.0024564997293055,128.7554931640625,-15.3035888671875,278.2548217773437
1700075631,0.980804443359375,-0.03472900390625,-0.204925537109375,-0.1252721697092056,0.0884363874793052,-0.0031683626584708,128.99273681640625,-14.9459228515625,277.75360107421875
1700075631,0.9725189208984376,-0.0137481689453125,-0.1947784423828125,-0.0736451894044876,0.0874459594488143,-0.0051263188943266,129.57969665527344,-15.63323974609375,276.3843688964844
1700075631,0.9730682373046876,-0.005035400390625,-0.1716766357421875,-0.0252052210271358,0.0981140509247779,-0.0094323838129639,129.79441833496094,-15.484527587890623,275.9920654296875
1700075631,0.9776763916015624,-0.0209808349609375,-0.1530914306640625,-0.0135187385603785,0.1143697202205658,0.0043939496390521,129.82472229003906,-15.960174560546877,276.07427978515625
1700075631,0.98321533203125,-0.0720367431640625,-0.1458740234375,-0.0448513589799404,0.1069144681096077,0.0360120646655559,129.64617919921875,-15.630126953125,274.462890625
1700075631,0.9818115234375,-0.0836944580078125,-0.191558837890625,-0.0876603424549102,0.0955536887049675,0.0567913763225078,129.09812927246094,-15.587570190429688,272.5279846191406
1700075631,0.9894866943359376,-0.0562896728515625,-0.1964569091796875,-0.1017133146524429,0.0909493491053581,0.0648844540119171,128.46124267578125,-15.068191528320312,270.7060852050781
1700075631,0.9844207763671876,-0.03192138671875,-0.18914794921875,-0.085252046585083,0.0784881487488746,0.056334912776947,128.35775756835938,-15.050796508789062,269.0416259765625
1700075631,0.9822998046875,-0.0182037353515625,-0.1942901611328125,-0.0577538423240184,0.068734586238861,0.0535066351294517,128.04132080078125,-15.088150024414062,267.5487670898437
1700075631,0.9844512939453124,-0.00860595703125,-0.1952362060546875,-0.0334354564547538,0.0620764195919036,0.051249872893095,127.93199157714844,-15.450851440429688,266.222900390625
1700075631,0.985443115234375,-0.0002593994140625,-0.19024658203125,-0.0204442888498306,0.056554090231657,0.0474141202867031,128.0263214111328,-15.321884155273438,266.0877990722656
1700075631,0.9832611083984376,-0.000274658203125,-0.1881561279296875,-0.0174620803445577,0.0582340098917484,0.048720933496952,128.1845245361328,-15.522872924804688,265.27276611328125
1700075631,0.978179931640625,-0.014739990234375,-0.1798248291015625,-0.0282276440411806,0.0647174790501594,0.0593565329909324,128.38487243652344,-16.244964599609375,265.4158935546875
1700075631,0.979217529296875,-0.052093505859375,-0.1710052490234375,-0.0469547249376773,0.0642735287547111,0.0862267613410949,128.51441955566406,-16.537872314453125,265.4447631835937
1700075631,0.9732208251953124,-0.0644073486328125,-0.1872711181640625,-0.0638708546757698,0.060212206095457,0.0913197919726371,128.66830444335938,-16.965118408203125,264.71539306640625
1700075631,0.983123779296875,-0.0521392822265625,-0.1868743896484375,-0.0598497502505779,0.0553719140589237,0.0922385826706886,128.89044189453125,-16.828506469726562,263.3865051269531
1700075631,0.9933013916015624,-0.0306854248046875,-0.18994140625,-0.0395892225205898,0.0338836647570133,0.0852813422679901,128.98582458496094,-17.550186157226562,263.0610046386719
1700075631,0.9924163818359376,0.0154876708984375,-0.2053070068359375,-0.0178517010062932,0.0259804669767618,0.0632753744721412,128.68104553222656,-17.705535888671875,262.23223876953125
1700075631,0.993133544921875,0.0314483642578125,-0.1924591064453125,0.0068206219002604,0.0273890141397714,0.0492005683481693,128.6522216796875,-17.623748779296875,260.6205444335937
1700075631,0.9763336181640624,0.0127716064453125,-0.1812591552734375,0.0025012409314513,0.0289520230144262,0.0498860664665699,129.04144287109375,-17.804794311523438,261.0648803710937
1700075631,0.9685516357421876,-0.0212249755859375,-0.1822052001953125,-0.0195659771561622,0.0315020009875297,0.0675548091530799,128.48866271972656,-17.749725341796875,259.7616882324219
1700075631,0.97021484375,-0.0342254638671875,-0.1910400390625,-0.0422356054186821,0.0226504504680633,0.082867719233036,128.5863037109375,-18.259597778320312,259.4882202148437
1700075631,0.972808837890625,-0.0240936279296875,-0.196929931640625,-0.0412230715155601,0.0200679842382669,0.0937584489583969,128.72666931152344,-18.35955810546875,259.0809326171875
1700075631,0.9723968505859376,-0.0106658935546875,-0.19610595703125,-0.0051449607126414,0.0151166347786784,0.0978131145238876,128.7256317138672,-18.49769592285156,258.16046142578125
1700075631,0.9711456298828124,-0.0054779052734375,-0.1870269775390625,0.0370805226266384,0.018765166401863,0.0991060733795166,128.69610595703125,-18.99127197265625,257.46044921875
1700075631,0.9776153564453124,-0.014862060546875,-0.177337646484375,0.0656072422862052,0.0193942040205001,0.1054294854402542,128.89927673339844,-19.045486450195312,256.61627197265625
1700075631,0.9818115234375,-0.02703857421875,-0.1776580810546875,0.068202756345272,0.0171068143099546,0.1181476786732673,128.8893280029297,-19.21737670898437,256.56451416015625
1700075631,0.9899749755859376,-0.031097412109375,-0.184173583984375,0.0646224021911621,0.0101386541500687,0.1211490631103515,129.03785705566406,-19.51206970214844,255.3563690185547
1700075631,0.990631103515625,-0.0254364013671875,-0.1879730224609375,0.0586872808635234,0.0109285479411482,0.1197524964809417,128.7421875,-19.56211853027344,254.5464630126953
1700075631,0.987335205078125,-0.0215911865234375,-0.187164306640625,0.0556283742189407,0.0101264035329222,0.1199503690004348,128.85513305664062,-19.53852844238281,254.12127685546875
1700075631,0.9861297607421876,-0.0168914794921875,-0.1813812255859375,0.0645595490932464,0.0095016257837414,0.1112745925784111,128.44696044921875,-19.96429443359375,253.51715087890625
1700075631,0.99212646484375,-0.011810302734375,-0.1735076904296875,0.0704070553183555,0.0215159449726343,0.0929421931505203,128.24147033691406,-19.6785888671875,252.74853515625
1700075631,0.9914093017578124,-0.003204345703125,-0.1709747314453125,0.0781517922878265,0.0433698445558548,0.0656735524535179,128.20005798339844,-19.8463134765625,252.2298278808593
1700075631,0.9841766357421876,-0.0062713623046875,-0.1791229248046875,0.1995887458324432,0.1267552822828292,-0.0613813363015651,128.04934692382812,-20.042068481445312,252.15695190429688
1700075631,0.999603271484375,-0.0878448486328125,-0.2322235107421875,0.2105934619903564,0.0868158563971519,-0.0510069914162159,127.82786560058594,-20.338348388671875,251.0929107666016
1700075631,0.9888763427734376,-0.1055450439453125,-0.178741455078125,-0.0173092149198055,0.0294372513890266,0.1064556017518043,127.78598022460938,-19.75057983398437,251.2230224609375
1700075631,0.9385223388671876,0.062530517578125,-0.1714630126953125,-0.0186655633151531,0.0417013727128505,0.1149004846811294,127.73776245117188,-20.198486328125,250.20358276367188
1700075631,0.957183837890625,0.04833984375,-0.18841552734375,0.0350405424833297,0.0451962389051914,0.0869641900062561,127.39981079101562,-20.09266662597656,249.6840362548828
1700075631,0.9835968017578124,0.01947021484375,-0.166839599609375,0.1141145899891853,0.0446875765919685,0.0774335414171218,127.76701354980467,-20.37664794921875,249.35516357421875
1700075631,0.9948883056640624,0.0104522705078125,-0.1696014404296875,0.141061782836914,0.057337325066328,0.1031652688980102,127.19221496582033,-20.30682373046875,248.9352264404297
1700075631,0.9832763671875,0.02978515625,-0.1982574462890625,0.0921813249588012,0.0544384755194187,0.1080894544720649,126.94439697265624,-20.280487060546875,248.83204650878903
1700075631,0.979095458984375,0.04217529296875,-0.2028045654296875,0.0367108769714832,0.0618593730032444,0.1036177352070808,126.72998046875,-20.41734313964844,248.05409240722656
1700075631,0.993896484375,0.02471923828125,-0.18963623046875,0.0288518872112035,0.0663079172372818,0.0965161547064781,126.9949951171875,-20.509994506835938,248.2777099609375
1700075631,0.9845123291015624,0.0154571533203125,-0.1878814697265625,0.0343369357287883,0.0740601122379303,0.0939704403281211,126.40708923339844,-20.659896850585938,247.6116638183593
1700075631,0.9915771484375,0.015869140625,-0.1819000244140625,0.0346069782972335,0.0762079507112503,0.0884049609303474,126.53302001953124,-20.444564819335938,247.0702362060547
1700075631,0.9925384521484376,0.0344390869140625,-0.1863250732421875,0.0316759049892425,0.0819662362337112,0.0729698166251182,126.06948852539062,-20.243179321289062,245.9805450439453
1700075631,0.99664306640625,0.0258026123046875,-0.1837921142578125,0.0149312792345881,0.0897120460867881,0.0617901310324668,125.91197204589844,-20.53350830078125,246.85289001464844
1700075631,0.9907989501953124,-0.0161895751953125,-0.176055908203125,-0.0072888056747615,0.098454937338829,0.073844663798809,125.91708374023438,-20.318374633789062,246.5629272460937
1700075631,0.968048095703125,-0.0433197021484375,-0.1712799072265625,-0.0243080034852027,0.1035524904727935,0.0881594195961952,125.92416381835938,-20.31195068359375,246.2001342773437
1700075631,0.9576873779296876,-0.019561767578125,-0.1735687255859375,-0.0214243326336145,0.109562449157238,0.0743570551276207,125.23014831542967,-19.642501831054688,246.028060913086
1700075631,0.9727020263671876,0.0247955322265625,-0.1793670654296875,-0.0091668665409088,0.1188571453094482,0.0522671975195407,125.53453063964844,-19.69990539550781,245.5043487548828
1700075631,0.98626708984375,0.04119873046875,-0.1768341064453125,0.0027073696255683,0.1315854638814926,0.0341542400419712,125.08990478515624,-19.84527587890625,244.7172698974609
1700075631,0.986114501953125,0.0284881591796875,-0.1797332763671875,-0.0015675366157665,0.1315604299306869,0.0241713821887969,125.28741455078124,-19.910797119140625,245.14035034179688
1700075631,0.982513427734375,0.0146942138671875,-0.18896484375,-0.0065886606462299,0.1347383707761764,0.0244081374257802,125.07463073730467,-19.893844604492188,244.8226928710937
1700075631,0.9878387451171876,0.0099029541015625,-0.1920623779296875,-0.0073577812872827,0.1346757858991623,0.0228469930589199,124.66549682617188,-19.534652709960938,244.4674072265625
1700075632,0.98455810546875,0.021759033203125,-0.1963958740234375,-0.0001145159258157,0.1364723592996597,0.0096550239250063,124.6305694580078,-19.20623779296875,244.9549560546875
1700075632,0.9850311279296876,0.0338592529296875,-0.1860198974609375,0.0273016616702079,0.1471337974071502,-0.0081575289368629,124.39723205566406,-19.33819580078125,244.7194061279297
1700075632,0.9851531982421876,0.0311737060546875,-0.179229736328125,0.0524240583181381,0.1549783945083618,-0.0167257171124219,123.91824340820312,-18.97509765625,244.5326538085937
1700075632,0.9814910888671876,0.030731201171875,-0.1830596923828125,0.0594691857695579,0.1626360565423965,-0.0280132591724395,123.96939086914062,-19.15440368652344,244.185287475586
1700075632,0.981903076171875,0.028289794921875,-0.1858673095703125,0.0597874335944652,0.1785633563995361,-0.0339529067277908,123.8565673828125,-19.16497802734375,243.9886779785156
1700075632,0.978240966796875,0.0188140869140625,-0.1835479736328125,0.0512243062257766,0.1888791024684906,-0.0399753786623477,123.49180603027344,-19.12568664550781,243.29830932617188
1700075632,0.9726104736328124,0.00335693359375,-0.192169189453125,0.0196011308580636,0.1963844299316406,-0.0324538126587867,123.10848999023438,-18.481460571289062,243.7395782470703
1700075632,0.966766357421875,-0.0067901611328125,-0.205078125,-0.0153523245826363,0.2033965289592743,-0.0231868121773004,123.05441284179688,-18.357498168945312,243.413803100586
1700075632,0.963104248046875,0.0048980712890625,-0.224151611328125,-0.0226810779422521,0.2019142210483551,-0.0215023625642061,122.8350830078125,-17.866287231445312,242.7120819091797
1700075632,0.9670257568359376,0.0281219482421875,-0.232574462890625,-0.0067519121803343,0.2053949683904647,-0.025912556797266,122.41676330566406,-17.731918334960938,243.0735015869141
1700075632,0.9731292724609376,0.0389404296875,-0.2216949462890625,0.0052837114781141,0.2170598804950714,-0.0266385357826948,122.05294799804688,-17.364822387695312,243.11610412597656
1700075632,0.9734039306640624,0.032806396484375,-0.2045440673828125,0.0096757970750331,0.226801186800003,-0.0217646844685077,121.8483428955078,-17.296768188476562,243.0987548828125
1700075632,0.968658447265625,0.0096435546875,-0.2101287841796875,0.0094188014045357,0.2312643826007843,-0.0017539578257128,121.25604248046876,-16.987991333007812,243.0636749267578
1700075632,0.957061767578125,-0.00445556640625,-0.2252197265625,-0.002184324664995,0.2291461080312729,0.0195579882711172,121.07440185546876,-16.834060668945312,242.5322265625
1700075632,0.9557952880859376,-0.0037078857421875,-0.2301788330078125,-0.0087604681029915,0.2236666530370712,0.0353084541857242,120.90682983398438,-16.613113403320312,242.1483612060547
1700075632,0.9687347412109376,-0.0014495849609375,-0.2358245849609375,-4.52737367595e-05,0.2077302932739257,0.0565727315843105,120.97348022460938,-16.218124389648438,242.2965545654297
1700075632,0.9706268310546876,0.003326416015625,-0.245361328125,0.0187111031264066,0.1946235448122024,0.0684786587953567,120.31338500976562,-15.712310791015623,242.2562866210937
1700075632,0.96453857421875,0.0107879638671875,-0.2463226318359375,0.0453776009380817,0.1914615780115127,0.0833470895886421,119.75228881835938,-15.289901733398438,242.5213317871093
1700075632,0.953887939453125,0.0221405029296875,-0.228271484375,0.0656176283955574,0.1792853325605392,0.0920710712671279,119.57815551757812,-14.887741088867188,242.91603088378903
1700075632,0.9571685791015624,0.020538330078125,-0.225982666015625,0.0614718832075595,0.1733883023262024,0.1066801100969314,118.96560668945312,-14.5858154296875,242.2911376953125
1700075632,0.965545654296875,-0.010040283203125,-0.2350921630859375,0.0291951689869165,0.1613265722990036,0.130585178732872,118.85894775390624,-14.096755981445312,241.8907928466797
1700075632,0.971282958984375,-0.04193115234375,-0.254669189453125,0.0146926594898104,0.1449593156576156,0.1556756198406219,118.04444885253906,-13.870086669921877,242.047607421875
1700075632,0.9701385498046876,-0.04473876953125,-0.278411865234375,0.0094270575791597,0.1195809915661811,0.1507892459630966,117.985107421875,-13.085418701171877,242.09474182128903
1700075632,0.9825592041015624,-0.0310821533203125,-0.256744384765625,0.021229388192296,0.099568136036396,0.1285095065832138,117.84596252441406,-12.992813110351562,242.1778564453125
1700075632,0.998626708984375,-0.0130462646484375,-0.2629852294921875,0.0228153001517057,0.0698738917708396,0.1352158784866333,117.48768615722656,-12.4134521484375,242.1467742919922
1700075632,0.99945068359375,0.0631256103515625,-0.2926177978515625,0.0500879362225532,0.0491278655827045,0.1017074510455131,116.87681579589844,-11.851715087890623,242.1861114501953
1700075632,1.01446533203125,0.0691986083984375,-0.2709503173828125,0.0770154222846031,0.0370874479413032,0.0703386142849922,115.77252197265624,-11.471939086914062,241.75587463378903
1700075632,0.9905548095703124,0.0611419677734375,-0.267120361328125,0.0638167932629585,0.0367657393217086,0.0621520541608333,115.50881958007812,-10.684661865234377,242.3688201904297
1700075632,0.978363037109375,0.0628814697265625,-0.2445220947265625,0.0643552839756012,0.0367465615272522,0.0554251745343208,115.22029113769533,-10.484054565429688,242.3288726806641
1700075632,0.9809112548828124,0.03533935546875,-0.2274322509765625,0.075359471142292,0.0337899215519428,0.0477334335446357,114.97640991210938,-10.354965209960938,242.54513549804688
1700075632,0.988616943359375,0.0052337646484375,-0.2344512939453125,0.0925626903772354,0.0206751842051744,0.056486178189516,114.25315856933594,-9.606201171875,242.68585205078125
1700075632,0.9853515625,0.0204620361328125,-0.264739990234375,0.1073698624968528,0.0009068063227459,0.0522671975195407,113.70436096191406,-9.154190063476562,243.32876586914065
1700075632,0.990814208984375,0.020416259765625,-0.2610931396484375,0.1367136389017105,-0.0208424311131238,0.0477661900222301,112.94490051269533,-8.400665283203125,243.3203887939453
1700075632,0.978759765625,0.0150604248046875,-0.2831268310546875,0.1609641164541244,-0.0422049760818481,0.049097504466772,112.52351379394533,-7.961761474609375,243.9112091064453
1700075632,0.96453857421875,0.032501220703125,-0.2843780517578125,0.169589564204216,-0.0529385805130004,0.0409607477486133,111.74566650390624,-7.427658081054687,244.00474548339844
1700075632,0.96832275390625,0.0321807861328125,-0.247344970703125,0.1782315224409103,-0.0520578734576702,0.0507430732250213,111.19664001464844,-6.9517364501953125,244.07899475097656
1700075632,0.9644317626953124,0.028045654296875,-0.2548370361328125,0.1754405349493026,-0.0534768067300319,0.0654245465993881,110.22032165527344,-6.565109252929688,244.4813232421875
1700075632,0.9663543701171876,0.03021240234375,-0.2428436279296875,0.1806086599826812,-0.0459139607846736,0.0812575742602348,109.63168334960938,-5.9651947021484375,244.24972534179688
1700075632,0.9706268310546876,0.018829345703125,-0.233154296875,0.1743366420269012,-0.0445094108581543,0.1051274836063385,108.9276123046875,-5.706588745117188,244.6610412597656
1700075632,0.96514892578125,0.006317138671875,-0.2366180419921875,0.1641801446676254,-0.0348309502005577,0.135237455368042,108.30502319335938,-5.451904296875,244.9432373046875
1700075632,0.9583740234375,-0.0205230712890625,-0.2312164306640625,0.1656691282987594,-0.0317366234958171,0.174908697605133,107.39700317382812,-5.413742065429688,244.3859100341797
1700075632,0.95843505859375,-0.0563201904296875,-0.2332611083984375,0.15025395154953,-0.0331329181790351,0.2280387580394745,106.76954650878906,-4.87420654296875,244.0632476806641
1700075632,0.9552001953125,-0.0361328125,-0.257904052734375,0.1297428160905838,-0.0297123547643423,0.2665699124336242,106.26760864257812,-4.6120452880859375,242.58116149902344
1700075632,0.95025634765625,0.000152587890625,-0.24920654296875,0.1326818764209747,-0.0253977682441473,0.295575737953186,105.66566467285156,-4.7227783203125,241.625244140625
1700075632,0.9394989013671876,0.0103759765625,-0.255523681640625,0.1312592178583145,-0.0196035280823707,0.331405371427536,104.70590209960938,-5.320159912109375,239.73312377929688
1700075632,0.941497802734375,0.0114593505859375,-0.244140625,0.1188566088676452,-0.0081748394295573,0.3608343601226806,104.52316284179688,-5.7550048828125,239.241943359375
1700075632,0.955963134765625,0.000640869140625,-0.2292327880859375,0.12794890999794,0.0046048718504607,0.3954386711120605,103.89631652832033,-6.3993988037109375,237.46414184570312
1700075632,0.9654388427734376,-0.01190185546875,-0.2385406494140625,0.0863103866577148,0.0128883682191371,0.4451921284198761,104.3965301513672,-7.1343994140625,234.739013671875
1700075632,0.9624786376953124,0.01922607421875,-0.2354888916015625,0.0614244788885116,0.0309302192181348,0.4760866463184356,104.5889129638672,-8.736495971679688,232.1629943847656
1700075632,0.9560089111328124,0.0379486083984375,-0.2248687744140625,0.0895304158329963,0.0469832196831703,0.5050423741340637,104.986083984375,-10.256301879882812,229.8077087402344
1700075632,0.9482269287109376,0.032806396484375,-0.2158355712890625,0.1051751524209976,0.0564448982477188,0.5315461754798889,105.3493194580078,-11.73834228515625,227.47735595703125
1700075632,0.954986572265625,0.023406982421875,-0.2109527587890625,0.1101328954100608,0.0746340230107307,0.5626577734947205,105.94667053222656,-13.464065551757812,224.81021118164065
1700075632,0.960205078125,0.01715087890625,-0.227935791015625,0.1007867977023124,0.0852190256118774,0.6061224341392517,106.70648193359376,-14.802825927734377,223.376953125
1700075632,0.9600067138671876,0.0435028076171875,-0.2337188720703125,0.0849500447511673,0.0885405167937278,0.6448572874069214,107.45816040039062,-16.386489868164062,222.3841857910156
1700075632,0.9596710205078124,0.06695556640625,-0.243194580078125,0.0652636885643005,0.089304581284523,0.6754961609840393,108.72496032714844,-17.62017822265625,221.20152282714844
1700075632,0.95709228515625,0.06494140625,-0.2552642822265625,0.0807169526815414,0.0867090597748756,0.7118091583251953,109.86669921875,-19.182861328125,220.83160400390625
1700075632,0.9473876953125,0.0548248291015625,-0.2388916015625,0.0954745933413505,0.0873335748910904,0.7486161589622498,111.48030090332033,-20.290267944335938,220.15904235839844
1700075632,0.953887939453125,0.064544677734375,-0.23236083984375,0.1180281043052673,0.0866677835583686,0.7743361592292786,112.59463500976562,-21.727218627929688,219.7463836669922
1700075632,0.9787139892578124,0.0754547119140625,-0.24774169921875,0.1436605006456375,0.0877162665128707,0.7792814373970032,114.0185546875,-22.771072387695312,219.8246917724609
1700075632,0.98358154296875,0.100555419921875,-0.2464599609375,0.1621830463409423,0.086811326444149,0.8010261058807373,115.45606994628906,-23.56971740722656,219.09771728515625
1700075632,0.9775390625,0.141815185546875,-0.2339935302734375,0.1889331638813018,0.0791147947311401,0.8149003982543945,116.96551513671876,-25.011703491210938,219.1454315185547
1700075632,0.9653472900390624,0.1713714599609375,-0.2431182861328125,0.232933908700943,0.0699979960918426,0.8367905020713806,118.19050598144533,-26.713165283203125,218.9296417236328
1700075632,0.9658355712890624,0.1625823974609375,-0.2469635009765625,0.2551065981388092,0.0598838403820991,0.869408130645752,119.30079650878906,-28.441619873046875,218.5770263671875
1700075632,0.9639434814453124,0.1374053955078125,-0.2472991943359375,0.2957482933998108,0.0489710047841072,0.9123560786247252,120.9394073486328,-29.897140502929688,218.7966766357422
1700075632,0.9782257080078124,0.1005706787109375,-0.2530975341796875,0.3270963728427887,0.0176362507045269,0.9719741344451904,122.4622039794922,-31.464263916015625,218.1985015869141
1700075632,0.9868316650390624,0.1002349853515625,-0.2987060546875,0.3524690866470337,-0.0116678411141037,1.0340849161148071,123.83602905273438,-33.61787414550781,217.04052734375
1700075632,1.0050048828125,0.1045074462890625,-0.2883453369140625,0.3950195014476776,-0.0185598358511924,1.105282425880432,125.16229248046876,-35.27513122558594,217.6178741455078
1700075632,0.996124267578125,0.1183319091796875,-0.2740936279296875,0.4651117622852325,-0.0289605446159839,1.1623576879501345,126.1297607421875,-36.95652770996094,217.3129119873047
1700075632,0.984588623046875,0.133148193359375,-0.2514495849609375,0.5142031311988831,-0.0024684839881956,1.2704119682312012,127.4503936767578,-38.43879699707031,217.58306884765625
1700075632,0.9761199951171876,0.1604156494140625,-0.23443603515625,0.5876275300979614,0.0191808845847845,1.357772707939148,128.58546447753906,-39.893096923828125,217.9428253173828
1700075632,0.9952239990234376,0.1510772705078125,-0.204254150390625,0.6465678215026855,0.0434332266449928,1.4534214735031128,129.4332275390625,-41.5076904296875,217.48521423339844
1700075632,1.0505523681640625,0.1231842041015625,-0.198760986328125,0.6625633239746094,0.0076334187760949,1.5859800577163696,130.1187744140625,-43.48747253417969,217.6666412353516
1700075632,1.1587982177734375,0.120574951171875,-0.2333984375,0.6657814979553223,-0.0077308900654315,1.6722965240478516,131.02938842773438,-44.44529724121094,218.2469024658203
1700075632,1.3232421875,0.096160888671875,-0.285980224609375,0.7225906848907471,-0.016113456338644,1.7596911191940308,132.1629180908203,-45.31535339355469,218.1889495849609
1700075632,1.363739013671875,0.0669708251953125,-0.2538604736328125,0.7879942059516907,-0.0079969400539994,1.893484592437744,132.96702575683594,-46.774261474609375,217.70849609375
1700075632,1.3667755126953125,0.062347412109375,-0.1595916748046875,0.7299279570579529,-0.0032906017731875,2.0330402851104736,133.34616088867188,-47.58102416992188,217.5258636474609
1700075632,1.41192626953125,0.0898895263671875,-0.1448974609375,0.6321678757667542,-0.0520557425916194,2.1536922454833984,133.9598846435547,-48.44804382324219,218.1966094970703
1700075632,1.519622802734375,0.0771026611328125,-0.10986328125,0.502474308013916,-0.0880917757749557,2.313650131225586,134.8429412841797,-49.44551086425781,218.4327392578125
1700075632,1.61041259765625,0.0576629638671875,-0.08074951171875,0.346830666065216,-0.1443608999252319,2.5103933811187744,135.45201110839844,-50.18247985839844,218.3604888916016
1700075632,1.68695068359375,0.0203857421875,-0.0357818603515625,0.2129460871219635,-0.0533455125987529,2.64631986618042,135.73724365234375,-50.47848510742188,218.02780151367188
1700075632,1.75,-0.0948333740234375,-0.0546112060546875,0.2881012856960296,0.1218286976218223,2.648752212524414,135.69288635253906,-50.87374877929688,217.9777374267578
1700075632,1.7390289306640625,-0.275390625,-0.0754547119140625,0.2728120982646942,0.1970901638269424,2.7213358879089355,136.18438720703125,-50.72259521484375,217.8890686035156
1700075632,1.659271240234375,-0.3275299072265625,-0.1385955810546875,0.208792358636856,0.2302004396915435,2.7541732788085938,136.15377807617188,-51.00691223144531,218.29611206054688
1700075632,1.595458984375,-0.3632049560546875,-0.2537994384765625,0.2329541593790054,0.3151994943618774,2.62852144241333,135.8236846923828,-50.72315979003906,217.27120971679688
1700075632,1.534515380859375,-0.498443603515625,-0.362091064453125,0.1907611638307571,0.4613282084465027,2.604213237762451,135.9003448486328,-50.43708801269531,217.47659301757807
1700075632,1.365203857421875,-0.455047607421875,-0.555755615234375,-0.0014335796004161,0.5288518667221069,2.705519199371338,135.7698974609375,-50.21470642089844,217.9054412841797
1700075632,1.161376953125,-0.234283447265625,-0.756317138671875,-0.2592102587223053,0.403622031211853,2.859547615051269,135.7557830810547,-50.433197021484375,218.0572967529297
1700075632,0.9697723388671876,0.037384033203125,-0.8383331298828125,-0.4559020102024078,0.282804012298584,2.7621235847473145,135.79782104492188,-50.23439025878906,218.5590057373047
1700075632,0.8333740234375,0.2191314697265625,-0.9272613525390624,-0.5897599458694458,0.3786588907241821,2.359370231628418,135.8206329345703,-50.477783203125,218.5774841308593
1700075632,0.7461395263671875,0.4364013671875,-1.026580810546875,-0.5860109925270081,0.4291002154350281,1.9351221323013303,136.0053253173828,-50.59909057617188,218.4906768798828
1700075632,0.6964874267578125,0.829833984375,-0.8275146484375,-0.5563215613365173,0.1321433931589126,1.5384982824325562,136.4774169921875,-50.76728820800781,218.1199493408203
1700075632,0.8421478271484375,1.124847412109375,-0.2804718017578125,-0.0480900295078754,0.046567503362894,0.7975110411643982,136.05081176757812,-50.744873046875,217.8378753662109
1700075632,1.0239105224609375,0.699676513671875,0.0497589111328125,0.4788366258144378,0.0803784653544426,0.3523692190647125,136.49893188476562,-50.67414855957031,218.52101135253903
1700075632,0.7904052734375,0.2196197509765625,-0.040008544921875,0.5287495851516724,-0.0188285484910011,0.2012074142694473,136.1286163330078,-51.00431823730469,218.60110473632807
1700075632,0.529266357421875,0.0665130615234375,-0.188751220703125,0.136728286743164,-0.1241363286972045,0.030778419226408,136.65394592285156,-51.34904479980469,217.85379028320312
1700075632,0.4131927490234375,-0.158782958984375,-0.3038787841796875,-0.3744612336158752,-0.1346323788166046,-0.264200747013092,136.41099548339844,-51.44915771484375,218.7390594482422
1700075632,0.352264404296875,-0.391326904296875,-0.3389129638671875,-0.745750367641449,-0.0519430935382843,-0.6944557428359985,135.9576416015625,-51.058990478515625,218.5002593994141
1700075632,0.3198394775390625,-0.5498809814453125,-0.3501434326171875,-0.8413674235343933,0.0465344786643981,-1.142810940742493,136.3474884033203,-51.45457458496094,219.14356994628903
1700075632,0.3068084716796875,-0.599029541015625,-0.3798065185546875,-0.7956382632255554,0.0675404295325279,-1.4126884937286377,136.31600952148438,-51.58805847167969,218.60792541503903
1700075632,0.283172607421875,-0.46624755859375,-0.4052276611328125,-0.8725376129150391,0.0283829048275947,-1.6886036396026611,136.27093505859375,-51.40402221679688,218.5076141357422
1700075633,0.340850830078125,-0.1958465576171875,-0.3937530517578125,-0.9189074635505676,-0.0135224666446447,-2.038832426071167,136.51243591308594,-51.63914489746094,218.8277282714844
1700075633,0.452789306640625,0.0135955810546875,-0.2952423095703125,-0.9317241907119752,-0.0983345583081245,-2.3980562686920166,136.36720275878906,-51.34236145019531,218.9169158935547
1700075633,0.5640411376953125,0.1895904541015625,-0.154510498046875,-0.8493225574493408,-0.219087615609169,-2.758007764816284,136.3896942138672,-51.52153015136719,218.3904571533203
1700075633,0.6685333251953125,0.301422119140625,-0.073211669921875,-0.6134445071220398,-0.3190277814865112,-3.0849621295928955,135.93283081054688,-51.65835571289063,218.7856292724609
1700075633,0.714874267578125,0.2854461669921875,-0.050079345703125,-0.3943534195423126,-0.4157878756523132,-3.376204490661621,136.18606567382812,-51.71672058105469,218.838134765625
1700075633,0.7258758544921875,0.2020721435546875,-0.0404510498046875,-0.3015190958976745,-0.5086299180984497,-3.5891170501708984,136.2278289794922,-51.29362487792969,219.26251220703125
1700075633,0.72894287109375,0.1471710205078125,-0.0462799072265625,-0.3192869126796722,-0.5627347230911255,-3.728320837020874,136.1629638671875,-50.93836975097656,218.8339233398437
1700075633,0.735595703125,0.1380767822265625,-0.080780029296875,-0.4914522767066955,-0.5793709754943848,-3.8219106197357178,135.84873962402344,-50.90499877929688,218.98751831054688
1700075633,0.7541656494140625,0.16546630859375,-0.1365203857421875,-0.7312688827514648,-0.5975627303123474,-3.9024558067321777,135.99813842773438,-50.62739562988281,219.53672790527344
1700075633,0.8120269775390625,0.2039794921875,-0.1505889892578125,-0.9816861748695374,-0.6254249811172485,-3.9565913677215576,135.89491271972656,-49.688507080078125,219.74777221679688
1700075633,0.9035491943359376,0.2503814697265625,-0.15264892578125,-1.1748348474502563,-0.6654065251350403,-3.9531033039093018,135.8209686279297,-49.14085388183594,220.111328125
1700075633,0.984893798828125,0.3302154541015625,-0.14776611328125,-1.2804584503173828,-0.7235800623893738,-3.8908958435058594,135.39952087402344,-48.39839172363281,220.8200225830078
1700075633,1.0409088134765625,0.458984375,-0.1580963134765625,-1.2646806240081787,-0.8064017295837402,-3.785496711730957,135.6172637939453,-47.688323974609375,221.0530700683593
1700075633,1.1043853759765625,0.6337432861328125,-0.1883544921875,-1.1097376346588137,-0.8790665864944458,-3.662977933883667,135.5884552001953,-47.16566467285156,221.246810913086
1700075633,1.1932220458984375,0.8238677978515625,-0.248504638671875,-0.9134895205497742,-0.9609079360961914,-3.579676389694214,135.5585174560547,-46.47653198242188,222.07896423339844
1700075633,1.3023834228515625,1.02197265625,-0.3165740966796875,-0.7954497337341309,-1.0431714057922363,-3.551016092300415,135.43185424804688,-46.22755432128906,222.4084014892578
1700075633,1.4181060791015625,1.160186767578125,-0.344879150390625,-0.7518846988677979,-1.095884084701538,-3.5446367263793945,135.63226318359375,-46.09274291992188,222.74920654296875
1700075633,1.4674224853515625,1.1482086181640625,-0.3151702880859375,-0.6542393565177917,-1.121579885482788,-3.363262176513672,135.74557495117188,-46.45309448242188,223.12759399414065
1700075633,1.3596038818359375,1.07061767578125,-0.24566650390625,-0.6579731106758118,-1.1153779029846191,-3.033289909362793,135.91851806640625,-46.81208801269531,222.7040557861328
1700075633,1.18487548828125,0.975555419921875,-0.2645721435546875,-0.6781646609306335,-1.0481700897216797,-2.725280284881592,136.0594024658203,-46.88346862792969,223.143798828125
1700075633,1.0725250244140625,0.8811187744140625,-0.362823486328125,-0.6827306151390076,-0.9745758175849916,-2.4649105072021484,135.91326904296875,-46.76481628417969,222.2756805419922
1700075633,1.0112762451171875,0.849945068359375,-0.4379119873046875,-0.6937276124954224,-0.9225879907608032,-2.216667652130127,135.8920135498047,-47.11103820800781,222.5232696533203
1700075633,0.977996826171875,0.8733062744140625,-0.4440155029296875,-0.6833357214927673,-0.8461453914642334,-2.02694034576416,135.79574584960938,-47.65386962890625,222.49087524414065
1700075633,0.9544677734375,0.8658599853515625,-0.397003173828125,-0.569948673248291,-0.7566541433334351,-1.87430477142334,135.4190216064453,-47.6461181640625,222.45138549804688
1700075633,0.937042236328125,0.81744384765625,-0.3217620849609375,-0.3655366897583008,-0.6709746718406677,-1.7288095951080322,135.4363555908203,-47.89703369140625,222.7671813964844
1700075633,0.9174041748046876,0.740875244140625,-0.258331298828125,-0.1368537247180938,-0.5978594422340393,-1.5860692262649536,135.46022033691406,-47.833526611328125,222.67095947265625
1700075633,0.8927001953125,0.6576080322265625,-0.2191925048828125,0.066235214471817,-0.5264968276023865,-1.4326746463775637,135.343505859375,-48.27552795410156,222.7345428466797
1700075633,0.8785400390625,0.5829925537109375,-0.178466796875,0.2191632390022277,-0.457044780254364,-1.265722155570984,135.7093963623047,-48.58583068847656,223.09559631347656
1700075633,0.8762664794921875,0.51849365234375,-0.1704559326171875,0.3142892122268677,-0.3956567943096161,-1.0882807970046997,135.65821838378906,-49.01377868652344,222.9871826171875
1700075633,0.8635406494140625,0.4533538818359375,-0.1701812744140625,0.3965731859207153,-0.339182585477829,-0.9147832989692688,135.55458068847656,-49.84811401367188,222.5895538330078
1700075633,0.84222412109375,0.3946533203125,-0.15576171875,0.4763665497303009,-0.2960886359214782,-0.7539584636688232,135.43605041503906,-49.57633972167969,222.1625061035156
1700075633,0.815948486328125,0.3558502197265625,-0.1318359375,0.5429218411445618,-0.2654215395450592,-0.5940667986869812,135.64547729492188,-49.44065856933594,222.5906219482422
1700075633,0.79486083984375,0.3265228271484375,-0.111907958984375,0.6022270321846008,-0.227322906255722,-0.43523108959198,135.4669647216797,-49.97434997558594,222.272689819336
1700075633,0.7951202392578125,0.2802581787109375,-0.102752685546875,0.666037917137146,-0.1827410459518432,-0.2918289303779602,135.20892333984375,-50.24186706542969,222.15640258789065
1700075633,0.823455810546875,0.220367431640625,-0.09600830078125,0.6792823672294617,-0.157668188214302,-0.147921547293663,135.24676513671875,-50.21922302246094,221.90689086914065
1700075633,0.862945556640625,0.1815338134765625,-0.09686279296875,0.643470287322998,-0.1368204355239868,0.0006117281154729,135.53256225585938,-50.53886413574219,221.4663848876953
1700075633,0.887847900390625,0.1624298095703125,-0.1045989990234375,0.5840248465538025,-0.1436911225318908,0.119746908545494,135.4317169189453,-50.78507995605469,221.6514892578125
