timestamp,acc-x,acc-y,acc-z,gyr-x,gyr-y,gyr-z,mag-x,mag-y,mag-z
1700075465,0.6613311767578125,0.5069732666015625,-0.288848876953125,0.9706833362579346,0.0050647999159991,-0.6438916325569153,79.56182861328125,-61.467315673828125,262.13116455078125
1700075465,0.6239776611328125,0.3385162353515625,-0.36334228515625,0.710336446762085,0.1499250531196594,-0.4180006980895996,79.70620727539062,-61.48832702636719,261.9065246582031
1700075465,0.6278533935546875,0.202850341796875,-0.3938140869140625,0.4247100055217743,0.2284712493419647,-0.1517437249422073,79.40614318847656,-61.45118713378906,262.1610412597656
1700075465,0.669219970703125,0.113861083984375,-0.4174346923828125,0.1537991464138031,0.2375174760818481,0.1100601926445961,79.72467041015625,-60.83033752441406,262.0233764648437
1700075465,0.7350921630859375,0.0357818603515625,-0.4067535400390625,-0.1092734932899475,0.245372474193573,0.3527601957321167,79.67433166503906,-60.68116760253906,261.9801025390625
1700075465,0.768798828125,-0.0145263671875,-0.4053497314453125,-0.3830626904964447,0.8698307275772095,0.607606828212738,79.6678466796875,-60.38204956054688,261.6565246582031
1700075465,0.686065673828125,0.0748291015625,-0.853485107421875,-0.3935062885284424,0.8105101585388184,1.1449637413024902,79.19259643554688,-60.56817626953125,262.1705322265625
1700075465,0.29052734375,0.410003662109375,-0.95050048828125,-0.2452512979507446,0.7364806532859802,1.6607307195663452,79.36239624023438,-60.18634033203125,261.67486572265625
1700075465,0.5516357421875,0.6829376220703125,-0.774261474609375,0.3494722545146942,2.836930990219116,1.6439874172210691,79.31541442871094,-59.75445556640625,262.0755920410156
1700075466,0.43133544921875,0.620025634765625,-2.10491943359375,1.3246009349822998,2.943305969238281,2.557469606399536,79.06352233886719,-59.80255126953125,261.5013427734375
1700075466,-0.067626953125,1.5411376953125,-2.9736785888671875,-0.2627695798873901,-2.0583138465881348,2.7152040004730225,79.24595642089844,-59.71278381347656,261.6178894042969
1700075466,3.4287567138671875,1.0131988525390625,1.72088623046875,-0.2049068063497543,0.6894804239273071,0.636143147945404,79.17317199707031,-59.1490478515625,261.86431884765625
1700075466,3.63519287109375,-1.427947998046875,0.5192108154296875,1.221314787864685,2.3660571575164795,0.0027417242527008,79.32940673828125,-58.89457702636719,261.5224304199219
1700075466,1.536529541015625,-1.305328369140625,1.2183074951171875,1.1900324821472168,1.6060848236083984,0.3614098727703094,79.04310607910156,-58.29353332519531,262.199462890625
1700075466,0.850189208984375,-0.2223663330078125,0.56103515625,0.134918138384819,0.8230898976325989,0.7422786355018616,79.04557800292969,-58.176361083984375,261.25323486328125
1700075466,0.6932220458984375,-0.0989532470703125,-0.3177032470703125,-0.6115531325340271,0.6290636658668518,0.8372398018836975,78.8427734375,-57.54611206054688,261.5283203125
1700075466,0.99774169921875,-0.482177734375,-0.2360076904296875,-1.0522676706314087,0.8585165739059448,0.876665472984314,79.04335021972656,-57.59904479980469,261.9208374023437
1700075466,1.4347991943359375,-0.6434783935546875,-0.14288330078125,-1.1817289590835571,0.830399215221405,1.136130928993225,79.13206481933594,-56.85398864746094,261.6701965332031
1700075466,1.8894805908203125,-0.4787750244140625,-0.079559326171875,-1.139726161956787,0.713472843170166,1.6980328559875488,79.3175048828125,-56.62103271484375,261.979248046875
1700075466,1.9128570556640625,-0.0456695556640625,-0.1831817626953125,-0.9248875975608826,0.5264720320701599,2.005377531051636,79.27931213378906,-55.559326171875,261.38360595703125
1700075466,1.607757568359375,0.222442626953125,-0.09893798828125,-0.8990997076034546,0.2255955785512924,1.7617961168289185,79.42343139648438,-55.39863586425781,261.65399169921875
1700075466,1.2572174072265625,0.2997894287109375,-0.0450286865234375,-1.1180981397628784,0.3736833035945892,1.279438018798828,79.33724975585938,-54.345794677734375,261.3372802734375
1700075466,1.237457275390625,0.2301025390625,-0.1832427978515625,-0.6297355890274048,0.6908045411109924,0.9912349581718444,79.33155822753906,-53.63372802734375,260.4219970703125
1700075466,1.6292724609375,0.031402587890625,-0.1012115478515625,-0.0032900692895054,0.7357608079910278,1.128757119178772,79.52204895019531,-52.907958984375,260.46295166015625
1700075466,1.8035125732421875,0.15655517578125,-0.172271728515625,0.2716988921165466,0.4429116547107696,1.465277910232544,79.73811340332031,-51.67610168457031,260.2123718261719
1700075466,1.546600341796875,0.51055908203125,-0.408660888671875,0.2772102952003479,-0.0044903559610247,1.3168383836746216,80.41070556640625,-51.27705383300781,259.5208740234375
1700075466,1.1787261962890625,0.6040496826171875,-0.5424652099609375,-0.0328322499990463,-0.2114576548337936,0.8382291197776794,80.99313354492188,-50.14825439453125,259.5955810546875
1700075466,0.89898681640625,0.5934600830078125,-0.5531005859375,0.0340410582721233,-0.0692400559782981,0.4389161169528961,81.11984252929688,-49.07402038574219,259.6713562011719
1700075466,0.717681884765625,0.5310516357421875,-0.3218231201171875,0.32318976521492,0.070425160229206,0.2981653809547424,81.5328369140625,-48.18780517578125,258.8179016113281
1700075466,0.6695404052734375,0.2741851806640625,-0.2160797119140625,0.3839231729507446,0.0230422019958496,0.3409035205841064,82.22474670410156,-47.26315307617188,259.44146728515625
1700075466,0.74322509765625,0.094635009765625,-0.35821533203125,0.3328133821487427,-0.0753946229815483,0.5196735262870789,82.37808227539062,-46.28997802734375,259.3729858398437
1700075466,0.8256378173828125,0.0588836669921875,-0.3903350830078125,0.1363051086664199,-0.0450564250349998,0.6404998302459717,83.50328063964844,-45.30093383789063,259.131591796875
1700075466,0.9176483154296876,-0.013031005859375,-0.308441162109375,-0.0823161751031875,0.0914731919765472,0.6709453463554382,84.01860046386719,-45.29292297363281,258.90509033203125
1700075466,0.9798431396484376,-0.0402374267578125,-0.2332763671875,-0.1398263424634933,0.1561954617500305,0.7454949617385864,85.05215454101562,-44.73188781738281,259.8104248046875
1700075466,0.9708404541015624,0.0119171142578125,-0.24224853515625,-0.0617738850414752,0.186792254447937,0.831604540348053,86.02525329589844,-44.83451843261719,259.550537109375
1700075466,0.9424896240234376,0.1148834228515625,-0.3376617431640625,0.0972767546772956,0.1944206058979034,0.8551916480064392,86.99543762207031,-44.4310302734375,260.2364501953125
1700075466,0.9489898681640624,0.2024078369140625,-0.31732177734375,0.1909230798482895,0.2384823411703109,0.8675793409347534,88.21104431152344,-44.57527160644531,260.10565185546875
1700075466,0.9327850341796876,0.2538299560546875,-0.249176025390625,0.2744459509849548,0.2911239862442016,0.8852033019065857,88.88265991210938,-44.98675537109375,260.11376953125
1700075466,0.8955230712890625,0.2037200927734375,-0.2169036865234375,0.4382074475288391,0.3139214515686035,0.9617966413497924,89.9415283203125,-45.21827697753906,259.7471618652344
1700075466,0.8228759765625,0.11285400390625,-0.2708587646484375,0.5428707599639893,0.3804168403148651,1.0403457880020142,90.903076171875,-45.20838928222656,259.59246826171875
1700075466,0.7996978759765625,0.1070098876953125,-0.3722076416015625,0.6069501042366028,0.417073130607605,1.1896097660064695,92.06765747070312,-45.595733642578125,258.93524169921875
1700075466,0.8529815673828125,0.114776611328125,-0.297271728515625,0.6077179312705994,0.5200181603431702,1.318779468536377,92.72836303710938,-46.51849365234375,258.0609130859375
1700075466,0.9296875,0.1019134521484375,-0.215057373046875,0.6388670206069946,0.6392667889595032,1.4539456367492676,93.87547302246094,-47.22331237792969,257.1874389648437
1700075466,0.985382080078125,0.084381103515625,-0.205169677734375,0.712046205997467,0.7265042066574097,1.5983906984329224,94.6927490234375,-48.51910400390625,255.92578125
1700075466,1.021240234375,0.0858154296875,-0.2553558349609375,0.6995263695716858,0.7547017931938171,1.7187261581420898,95.96961975097656,-49.5506591796875,255.33010864257807
1700075466,1.0280609130859375,0.136871337890625,-0.325469970703125,0.7000358700752258,0.7732986211776733,1.8712499141693115,96.8744659423828,-50.72384643554688,254.4110565185547
1700075466,0.9018402099609376,0.188995361328125,-0.4322967529296875,0.7720102071762085,0.7461447715759277,1.9165688753128047,97.9163055419922,-52.01029968261719,253.9869842529297
1700075466,0.7671051025390625,0.25311279296875,-0.4314727783203125,0.7981557846069336,0.787225067615509,1.891303777694702,98.93002319335938,-53.37660217285156,252.4286346435547
1700075466,0.7068023681640625,0.3907012939453125,-0.3736419677734375,0.9063072800636292,0.8299728035926819,1.8537598848342896,100.4589385986328,-55.112701416015625,252.23008728027344
1700075466,0.7899322509765625,0.504791259765625,-0.242523193359375,1.0135974884033203,0.8917597532272339,1.83905041217804,101.39175415039062,-56.72314453125,251.56689453125
1700075466,0.9882965087890624,0.48406982421875,-0.21142578125,1.079444169998169,0.9344315528869628,1.9099469184875488,102.34857177734376,-58.2183837890625,251.67779541015625
1700075466,1.1068572998046875,0.3922271728515625,-0.3341217041015625,1.0355159044265747,0.9524273872375488,2.006704092025757,103.390625,-59.33587646484375,250.9571228027344
1700075466,1.1741485595703125,0.3259124755859375,-0.4081268310546875,0.9515612721443176,1.0072215795516968,2.1494529247283936,104.74232482910156,-61.71725463867188,251.23779296875
1700075466,1.120269775390625,0.22882080078125,-0.4586639404296875,0.9801977276802064,1.0639249086380005,2.3167500495910645,105.73445129394533,-63.520751953125,250.6255645751953
1700075466,0.909698486328125,0.1710052490234375,-0.4761962890625,1.0167800188064575,1.052975296974182,2.362210512161255,106.853515625,-65.631103515625,251.1444396972656
1700075466,0.772552490234375,0.278350830078125,-0.488128662109375,1.053513765335083,1.029677391052246,2.296306848526001,107.6100616455078,-67.77818298339844,251.2117156982422
1700075466,0.6544342041015625,0.507965087890625,-0.5225830078125,1.2113516330718994,1.033128023147583,2.1672186851501465,108.51260375976562,-69.74374389648438,252.08444213867188
1700075466,0.707366943359375,0.7163543701171875,-0.479461669921875,1.372868895530701,1.0209635496139526,2.1122875213623047,109.49705505371094,-71.47511291503906,251.67330932617188
1700075466,1.0110321044921875,0.8074951171875,-0.3952484130859375,1.339444637298584,0.925672709941864,2.1607277393341064,109.654052734375,-73.8387451171875,252.3493194580078
1700075466,1.4759674072265625,0.7060394287109375,-0.40338134765625,1.1380504369735718,0.7352891564369202,2.2950103282928467,110.04222106933594,-75.83143615722656,251.869384765625
1700075466,1.712432861328125,0.460052490234375,-0.4502410888671875,1.025055170059204,0.6143473386764526,2.5763635635375977,110.45442199707033,-78.42518615722656,252.2196502685547
1700075466,1.617584228515625,0.316253662109375,-0.4961395263671875,0.9026550054550172,0.4999839961528778,2.730386018753052,110.36341857910156,-80.31419372558594,252.0418395996093
1700075466,1.7742462158203125,0.2976531982421875,-0.4979705810546875,0.7353576421737671,0.355350911617279,2.77146053314209,110.24601745605467,-82.46037292480469,251.9713134765625
1700075466,1.8646392822265625,0.274810791015625,-0.5155029296875,0.5935221910476685,0.2582677602767944,2.7347543239593506,110.4876708984375,-84.702392578125,251.5308837890625
1700075466,1.772674560546875,0.2153167724609375,-0.5721282958984375,0.4067435264587402,0.1094061210751533,2.583646059036255,110.05628967285156,-86.37873840332031,251.6866455078125
1700075466,1.67474365234375,0.161346435546875,-0.5950469970703125,0.1935263276100158,-0.1052510514855384,2.326622247695923,109.90843200683594,-87.85887145996094,251.4228057861328
1700075466,1.511444091796875,0.11285400390625,-0.5616302490234375,0.010186324827373,-0.2454204112291336,2.0363070964813232,109.5653839111328,-89.32044982910156,250.7946929931641
1700075466,1.125335693359375,0.104248046875,-0.5475006103515625,0.1819399744272232,-0.2171626687049865,1.3631994724273682,109.46055603027344,-90.46214294433594,251.42703247070312
1700075466,0.8137359619140625,-0.1022491455078125,-0.4518890380859375,0.0145488493144512,-0.2249814569950103,1.0170212984085083,109.01132202148438,-91.2724609375,251.3899841308593
1700075466,0.3470001220703125,-0.0730133056640625,-0.45269775390625,-0.216155469417572,-0.1992646306753158,0.7196564078330994,108.86679077148438,-91.96337890625,250.6963348388672
1700075466,-0.2128143310546875,0.077728271484375,-0.32733154296875,0.1512776613235473,-0.2662322223186493,0.0416997745633125,108.69357299804688,-92.92463684082033,250.85992431640625
1700075466,-0.4362335205078125,-0.0468902587890625,0.1215972900390625,0.725883960723877,-0.5351667404174805,-0.8393498063087463,109.0625,-93.3962860107422,251.3941345214844
1700075466,-0.5431671142578125,-0.1201324462890625,0.3899688720703125,0.7031943798065186,-0.7490881085395813,-1.5990711450576782,109.13166809082033,-93.97335815429688,251.40719604492188
1700075466,-0.52069091796875,-0.27349853515625,0.1757659912109375,0.0289634745568037,-0.8187544941902161,-2.23063325881958,109.23660278320312,-93.93014526367188,251.2151641845703
1700075466,-0.2719879150390625,-0.4866943359375,-0.3582916259765625,-0.3562244176864624,-0.7640867233276367,-2.825939416885376,109.47792053222656,-93.97010803222656,251.4789123535156
1700075466,0.0240325927734375,-0.696807861328125,-0.4378509521484375,-0.4289207458496094,-0.7293804287910461,-3.4084417819976807,109.87977600097656,-93.52639770507812,251.9266052246093
1700075466,0.3196563720703125,-0.8598785400390625,-0.259796142578125,-0.2629951536655426,-0.7615045309066772,-3.6729483604431152,110.31289672851562,-93.64198303222656,252.0031890869141
1700075466,0.49920654296875,-0.7864837646484375,-0.061737060546875,-0.3433080911636352,-0.7305495738983154,-3.623725175857544,110.6335906982422,-93.31195068359376,252.30889892578125
1700075466,0.5447235107421875,-0.4771575927734375,-0.0695343017578125,-0.6944085955619812,-0.699810266494751,-3.6842782497406006,110.83956909179688,-92.42439270019533,252.8656005859375
1700075466,0.6470184326171875,-0.20245361328125,-0.1316070556640625,-1.0082157850265503,-0.672087550163269,-3.775928020477295,111.48684692382812,-92.72744750976562,252.599349975586
1700075466,0.732086181640625,0.0121002197265625,-0.151580810546875,-1.1325907707214355,-0.6798275113105774,-3.91616439819336,111.1901397705078,-93.10235595703124,253.1238250732422
1700075466,0.7939605712890625,0.1952056884765625,-0.2054901123046875,-1.1090779304504397,-0.7806915640830994,-4.100118160247803,110.87844848632812,-93.90504455566406,252.8948516845703
1700075466,0.874603271484375,0.3567047119140625,-0.2541656494140625,-1.0061521530151367,-0.9818374514579772,-4.252865314483643,110.94439697265624,-93.8453369140625,252.38438415527344
1700075466,0.99334716796875,0.563262939453125,-0.15960693359375,-0.8185933828353882,-1.1869914531707764,-4.382084369659424,111.36398315429688,-93.22183227539062,252.03028869628903
1700075466,1.0702667236328125,0.786590576171875,0.02618408203125,-0.4881055057048797,-1.28042471408844,-4.60268497467041,111.62687683105467,-92.07048034667967,252.28594970703125
1700075466,1.0672454833984375,0.904937744140625,0.0268707275390625,0.0157217048108577,-1.3024394512176514,-4.8179612159729,111.73512268066406,-91.03843688964844,252.5153961181641
1700075466,1.0699310302734375,0.8905029296875,-0.0742950439453125,0.3990461826324463,-1.2803179025650024,-4.895638942718506,112.26527404785156,-90.95133972167967,252.449935913086
1700075466,1.0608978271484375,0.8453521728515625,-0.1332550048828125,0.5093353986740112,-1.240149974822998,-4.808163642883301,112.54742431640624,-90.34953308105467,252.9524688720703
1700075466,0.993927001953125,0.856658935546875,-0.1781005859375,0.4455265998840332,-1.2705475091934204,-4.536428451538086,112.52043151855467,-89.74348449707031,252.5368804931641
1700075466,0.957000732421875,0.9224700927734376,-0.149444580078125,0.3354030251502991,-1.335058331489563,-4.174663543701172,112.50819396972656,-89.34780883789062,252.491455078125
1700075466,1.022674560546875,1.0027008056640625,-0.1450042724609375,0.1289723664522171,-1.409236192703247,-3.8087198734283447,112.48228454589844,-89.0433349609375,252.3707275390625
1700075466,1.2039947509765625,1.07379150390625,-0.2303924560546875,-0.2984109222888946,-1.421710968017578,-3.5554511547088623,112.55767822265624,-89.01286315917969,252.25112915039065
1700075466,1.4423370361328125,1.109405517578125,-0.41839599609375,-0.832641065120697,-1.4503263235092163,-3.353499174118042,112.41566467285156,-88.50492858886719,251.23887634277344
1700075466,1.633453369140625,1.1358184814453125,-0.5615386962890625,-1.2653371095657349,-1.5237669944763184,-3.169717788696289,112.45948791503906,-88.04486083984375,250.7943725585937
1700075466,1.5955963134765625,1.121429443359375,-0.6050262451171875,-1.467459797859192,-1.591173529624939,-2.8742785453796387,112.40299987792967,-87.75189208984375,251.1527709960937
1700075466,1.30596923828125,1.0930328369140625,-0.6144866943359375,-1.5265953540802002,-1.576696276664734,-2.471294641494751,112.82374572753906,-87.20431518554688,251.05767822265625
1700075466,0.98590087890625,1.035369873046875,-0.57830810546875,-1.570333480834961,-1.437510967254639,-2.061211347579956,113.04939270019533,-87.04330444335938,250.9814453125
1700075466,0.829559326171875,0.9443206787109376,-0.523284912109375,-1.5930267572402954,-1.262359619140625,-1.691144347190857,112.73548889160156,-86.76792907714844,251.0672912597656
1700075466,0.804443359375,0.8792724609375,-0.458770751953125,-1.58078134059906,-1.0535191297531128,-1.4334213733673096,112.64271545410156,-86.71342468261719,250.6756134033203
1700075466,0.844573974609375,0.792633056640625,-0.4635772705078125,-1.4737787246704102,-0.8257002830505371,-1.1690778732299805,112.53565979003906,-86.65321350097656,250.8712615966797
1700075466,0.8136444091796875,0.7487945556640625,-0.549713134765625,-1.167236089706421,-0.621644914150238,-0.9031724333763124,112.97097778320312,-86.01521301269531,250.2940216064453
1700075466,0.7531280517578125,0.768768310546875,-0.62811279296875,-0.6669588685035706,-0.4358127415180206,-0.6963239312171936,113.0726318359375,-85.45988464355469,250.14654541015625
1700075466,0.7288818359375,0.7959442138671875,-0.63128662109375,-0.134640097618103,-0.2857281565666199,-0.5118409395217896,112.98016357421876,-85.70988464355469,250.1781463623047
1700075466,0.706451416015625,0.820220947265625,-0.51617431640625,0.2995502352714538,-0.0545535236597061,-0.3029361665248871,112.88832092285156,-85.18214416503906,250.8267059326172
1700075466,0.6350250244140625,0.7970428466796875,-0.3964080810546875,0.6970248818397522,0.2902920246124267,-0.0613373927772045,113.23435974121094,-84.48341369628906,250.4303741455078
1700075466,0.543182373046875,0.6860809326171875,-0.3809661865234375,1.044463276863098,0.9994342923164368,0.2874437570571899,113.0573272705078,-84.46612548828125,250.6559600830078
1700075466,0.39422607421875,0.72802734375,-0.7619476318359375,1.1220587491989136,1.0489752292633057,0.89936763048172,113.20030212402344,-83.92041015625,250.33425903320312
1700075466,0.3017120361328125,0.9677581787109376,-0.8417510986328125,1.0400911569595337,1.3253774642944336,0.9976086616516112,112.6923828125,-83.70584106445312,250.300537109375
1700075467,0.802703857421875,0.7096099853515625,-1.01605224609375,1.4109054803848269,3.651289939880371,1.231961011886597,113.60328674316406,-83.28138732910156,249.61578369140625
1700075467,0.484375,0.7226715087890625,-2.4200897216796875,1.1486924886703491,2.644458770751953,1.8492982387542725,113.08412170410156,-82.97616577148438,249.863021850586
1700075467,0.5557708740234375,1.1591796875,-2.2947235107421875,-0.0214717369526624,-1.0756683349609375,0.7966918349266052,113.20970153808594,-82.65997314453125,249.71202087402344
1700075467,3.807342529296875,-0.388916015625,1.2515106201171875,-0.3745898604393005,0.1482115685939788,-1.122187614440918,113.36314392089844,-82.296875,249.9355010986328
1700075467,3.5356903076171875,-1.661224365234375,-0.041778564453125,0.7900496125221252,0.9799122214317322,-0.8130114078521729,113.47093200683594,-81.94917297363281,249.831283569336
1700075467,1.4672698974609375,-1.4238128662109375,0.58984375,2.4488446712493896,1.2463120222091677,1.2344529628753662,113.36386108398438,-81.43173217773438,249.8270721435547
1700075467,0.4385223388671875,-1.28448486328125,1.2745513916015625,1.0385187864303589,1.0251364707946775,2.232886552810669,113.83230590820312,-81.38587951660156,249.4401397705078
1700075467,0.495330810546875,-0.8785858154296875,0.42047119140625,-1.201665997505188,1.0651293992996216,2.136815309524536,113.54934692382812,-80.59820556640625,249.3210906982422
1700075467,0.8271026611328125,-0.71746826171875,-0.14788818359375,-2.178823471069336,1.3568485975265503,2.028501033782959,113.472412109375,-80.44401550292969,249.1862945556641
1700075467,0.9871826171875,-0.5142974853515625,-0.0711669921875,-2.343719482421875,1.3441791534423828,2.193402051925659,113.6941375732422,-79.78274536132812,249.177474975586
1700075467,1.3360748291015625,-0.17620849609375,-0.123260498046875,-2.175579071044922,1.257330060005188,2.2423171997070312,113.7665557861328,-79.61607360839844,249.3296356201172
1700075467,1.769012451171875,0.0516357421875,-0.3993988037109375,-1.061772704124451,0.8213005065917969,1.99247407913208,113.8796844482422,-79.30963134765625,249.1559295654297
1700075467,1.94879150390625,0.196380615234375,-0.32940673828125,-0.331444501876831,0.2803871929645538,1.767201542854309,113.7821807861328,-78.56362915039062,248.7464599609375
1700075467,1.9709014892578125,0.4488983154296875,-0.11663818359375,-0.578913688659668,0.2368644773960113,1.6714121103286743,113.49626159667967,-78.16069030761719,248.61962890625
1700075467,2.213409423828125,0.6707763671875,-0.0751953125,-0.4063565731048584,0.6117994785308838,1.4688832759857178,113.89451599121094,-77.79788208007812,248.9589691162109
1700075467,2.16241455078125,0.6368865966796875,0.0850372314453125,0.0965566337108612,0.7653512358665466,1.3168561458587646,113.5740203857422,-77.0963134765625,248.44532775878903
1700075467,1.3651885986328125,0.5955963134765625,0.0241241455078125,0.4076982736587524,0.6833876371383667,1.0973461866378784,113.54791259765624,-75.89312744140625,248.1168212890625
1700075467,0.692535400390625,0.5916900634765625,-0.418548583984375,0.3623755276203155,0.3618287742137909,0.7490707635879517,113.5880889892578,-75.06611633300781,248.0116424560547
1700075467,0.4560394287109375,0.611541748046875,-0.650299072265625,0.1890207827091217,0.2153874188661575,0.3562526404857635,113.41911315917967,-74.72892761230469,247.0731964111328
1700075467,0.5848236083984375,0.5561676025390625,-0.53045654296875,0.4283177852630615,0.245915487408638,0.1026640608906745,113.23983764648438,-73.39463806152344,246.5730438232422
1700075467,0.776702880859375,0.3157196044921875,-0.2932891845703125,0.6034946441650391,0.2017901092767715,0.1549182087182998,112.89723205566406,-72.53573608398438,246.3278961181641
1700075467,0.875213623046875,0.1775054931640625,-0.253997802734375,0.5261349081993103,0.161871463060379,0.2515155971050262,113.0205078125,-71.35748291015625,245.134506225586
1700075467,1.0542144775390625,0.0541534423828125,-0.3272552490234375,0.3551695346832275,0.1621047556400299,0.2980591356754303,112.52914428710938,-70.59968566894531,244.800537109375
1700075467,1.1504974365234375,-0.0476226806640625,-0.4285430908203125,0.1782299280166626,0.115016870200634,0.4194731712341308,112.1946258544922,-69.23255920410156,244.5733642578125
1700075467,1.119415283203125,-0.0501251220703125,-0.4568634033203125,0.1109126657247543,0.0349840819835662,0.6212297081947327,111.99368286132812,-68.08436584472656,243.4520721435547
1700075467,1.036041259765625,0.0104522705078125,-0.4091949462890625,0.0744457393884658,0.024736238643527,0.7336332201957703,111.68618774414062,-66.95365905761719,242.534423828125
1700075467,0.991912841796875,0.043548583984375,-0.369537353515625,0.0544597804546356,0.0629837587475776,0.7816630601882935,111.16641235351562,-65.93785095214844,242.2626800537109
1700075467,0.9134674072265624,0.0782623291015625,-0.335968017578125,0.0945536717772483,0.1043053641915321,0.8301637768745422,110.61508178710938,-64.873779296875,241.85145568847656
1700075467,0.80157470703125,0.1385498046875,-0.3104248046875,0.0994520187377929,0.1225714534521102,0.8603131175041199,110.76113891601562,-63.74855041503906,241.2071075439453
1700075467,0.76275634765625,0.2499542236328125,-0.2860870361328125,0.119556225836277,0.1806059926748275,0.7961037755012512,109.93821716308594,-62.871826171875,241.455810546875
1700075467,0.8169403076171875,0.3059844970703125,-0.2480621337890625,0.2953669428825378,0.2969499230384826,0.728859543800354,109.63121032714844,-61.51591491699219,240.39268493652344
1700075467,0.8931427001953125,0.2581024169921875,-0.2127227783203125,0.5526032447814941,0.3859309256076813,0.8052131533622742,109.14247131347656,-60.86164855957031,240.2899169921875
1700075467,0.9466094970703124,0.1887054443359375,-0.22119140625,0.7077813744544983,0.4373853206634521,0.9604663848876952,108.81539916992188,-59.58746337890625,240.1463165283203
1700075467,0.9973297119140624,0.1149749755859375,-0.229461669921875,0.7798857092857361,0.4866399466991424,1.130190134048462,108.16754150390624,-58.85295104980469,238.899154663086
1700075467,1.00311279296875,0.0339202880859375,-0.25164794921875,0.7434666752815247,0.558957576751709,1.2987123727798462,107.55992126464844,-57.66844177246094,238.6586303710937
1700075467,0.9556427001953124,-0.0249786376953125,-0.3578338623046875,0.6818802952766418,0.5710235238075256,1.4802477359771729,107.00430297851562,-56.19194030761719,238.19972229003903
1700075467,0.8715057373046875,0.003509521484375,-0.4184417724609375,0.662815272808075,0.567549467086792,1.6308574676513672,106.3364715576172,-55.13229370117188,238.1232452392578
1700075467,0.780792236328125,0.1172027587890625,-0.419342041015625,0.6292769908905029,0.5798484683036804,1.643999695777893,105.08213806152344,-53.49040222167969,237.5032958984375
1700075467,0.6945343017578125,0.3039398193359375,-0.355865478515625,0.6101655960083008,0.6542789936065674,1.548668622970581,104.8264617919922,-52.39566040039063,237.4583282470703
1700075467,0.6551055908203125,0.4770355224609375,-0.2651519775390625,0.6953721046447754,0.6990563273429871,1.4232723712921145,103.97218322753906,-51.19488525390625,236.9934539794922
1700075467,0.703765869140625,0.5545501708984375,-0.1901092529296875,0.8266553282737732,0.7677797675132751,1.4122644662857056,103.0081024169922,-49.9625244140625,236.8965301513672
1700075467,0.8464508056640625,0.514739990234375,-0.2685699462890625,0.9359645247459412,0.7880514860153198,1.4965468645095823,101.96212768554688,-48.88401794433594,237.0840301513672
1700075467,1.0737457275390625,0.3668670654296875,-0.3272247314453125,0.922090470790863,0.8194666504859924,1.6595098972320557,101.04640197753906,-47.7535400390625,236.875
1700075467,1.2222900390625,0.200164794921875,-0.3653411865234375,0.82212233543396,0.8425027132034302,1.8511992692947388,100.54409790039062,-45.88517761230469,236.434326171875
1700075467,1.1814727783203125,0.13262939453125,-0.4354400634765625,0.7753828167915344,0.8374629616737366,2.126175165176392,99.14991760253906,-45.16014099121094,236.3934631347656
1700075467,1.035369873046875,0.1718597412109375,-0.443450927734375,0.7206356525421143,0.8403245210647583,2.2455739974975586,98.14691162109376,-43.61553955078125,236.42559814453125
1700075467,0.9365692138671876,0.294342041015625,-0.4075775146484375,0.6335257887840271,0.8255642056465149,2.2108404636383057,96.83120727539062,-42.48016357421875,236.6499938964844
1700075467,0.7893524169921875,0.47393798828125,-0.380828857421875,0.6558553576469421,0.8058105111122131,2.079637289047241,96.27005004882812,-41.63600158691406,237.1027069091797
1700075467,0.589019775390625,0.5911712646484375,-0.359771728515625,0.8059998154640198,0.7911332845687866,1.9683517217636108,95.23365783691406,-40.80245971679688,237.52137756347656
1700075467,0.4567108154296875,0.6980743408203125,-0.3774871826171875,0.9204092621803284,0.761599063873291,1.8775520324707031,94.8528289794922,-40.37319946289063,236.88259887695312
1700075467,0.6399993896484375,0.755218505859375,-0.3838043212890625,0.9724649786949158,0.7283623218536377,1.8840032815933228,93.86154174804688,-39.92366027832031,237.3211669921875
1700075467,0.9995269775390624,0.6957550048828125,-0.3924713134765625,0.9149129986763,0.7062453031539917,1.986518383026123,93.07615661621094,-39.61036682128906,237.3561553955078
1700075467,1.40582275390625,0.5554351806640625,-0.4489288330078125,0.8377460241317749,0.6471704840660095,2.237961769104004,92.90818786621094,-39.925323486328125,237.1132659912109
1700075467,1.6615753173828125,0.430419921875,-0.5194244384765625,0.8620274066925049,0.5159357786178589,2.5520129203796387,92.78083801269533,-39.85826110839844,237.77867126464844
1700075467,1.7866973876953125,0.306304931640625,-0.5081787109375,0.828619122505188,0.3954868614673614,2.820159912109375,92.77049255371094,-40.44526672363281,237.2378387451172
1700075467,1.83355712890625,0.298919677734375,-0.4858856201171875,0.7013115286827087,0.3265988826751709,3.035820722579956,93.42153930664062,-40.82929992675781,237.6953887939453
1700075467,1.7097930908203125,0.311981201171875,-0.4994659423828125,0.6107478141784668,0.2021733373403549,3.149430513381958,94.24159240722656,-41.98316955566406,237.669189453125
1700075467,1.6023101806640625,0.3579559326171875,-0.5560760498046875,0.531828761100769,-0.0160229094326496,3.0487499237060547,94.9249267578125,-42.83981323242188,238.1109619140625
1700075467,1.6196441650390625,0.40435791015625,-0.54632568359375,0.4138219356536865,-0.1814579367637634,2.8057923316955566,96.24105834960938,-44.04777526855469,238.446044921875
1700075467,1.6790618896484375,0.3795013427734375,-0.45159912109375,0.2632787823677063,-0.2535046935081482,2.511746883392334,96.93722534179688,-45.67115783691406,238.93338012695312
1700075467,1.6203155517578125,0.293487548828125,-0.43316650390625,0.0614252761006355,-0.2048588693141937,2.1964187622070312,98.35531616210938,-46.78175354003906,239.35894775390625
1700075467,1.278106689453125,0.1974945068359375,-0.662750244140625,-0.0748215094208717,-0.1734974831342697,1.607552170753479,99.41764831542967,-48.51765441894531,239.80075073242188
1700075467,0.8874053955078125,-0.004425048828125,-0.7590789794921875,-0.4618501961231231,-0.1603057831525802,1.3062317371368408,100.28749084472656,-50.351654052734375,239.4925537109375
1700075467,0.4092864990234375,-0.0349884033203125,-0.7125701904296875,-1.0625243186950684,0.0095953689888119,1.1870545148849487,101.21339416503906,-52.36711120605469,239.87501525878903
1700075467,-0.178802490234375,0.0558929443359375,-0.7250213623046875,-1.0182862281799316,0.0435818322002887,0.614475429058075,101.982177734375,-54.67135620117188,239.9929351806641
1700075467,-0.4367828369140625,-0.1959991455078125,-0.3049468994140625,-0.3065519332885742,-0.181090697646141,-0.2201640605926513,102.88912963867188,-57.27015686035156,240.26028442382807
1700075467,-0.6501312255859375,-0.4401092529296875,0.3189697265625,0.163291722536087,-0.493731141090393,-0.9839187264442444,103.8690948486328,-59.71551513671875,240.36819458007807
1700075467,-0.577728271484375,-0.4722900390625,0.5958709716796875,0.0389740318059921,-0.8010058999061584,-1.6740680932998655,104.43392944335938,-62.37745666503906,240.154541015625
1700075467,-0.0539703369140625,-0.2889404296875,0.2929840087890625,0.0289698652923107,-1.079155445098877,-2.5267703533172607,104.86434936523438,-64.74197387695312,241.4409637451172
1700075467,0.3226165771484375,-0.4919891357421875,0.0113067626953125,0.3462189137935638,-1.1221541166305542,-3.046398401260376,105.22395324707033,-66.7935791015625,241.62196350097656
1700075467,0.34112548828125,-0.66241455078125,0.0999755859375,0.3458841741085052,-1.118390440940857,-3.161214590072632,105.20027160644533,-68.65673828125,242.441635131836
1700075467,0.2922210693359375,-0.46966552734375,0.0691070556640625,-0.0949089378118515,-1.1986017227172852,-3.320101022720337,105.52378845214844,-70.91667175292969,242.20689392089844
1700075467,0.4107208251953125,-0.3012542724609375,-0.0118865966796875,-0.6609755158424377,-1.334896445274353,-3.5545287132263184,105.63606262207033,-72.6981201171875,243.15939331054688
1700075467,0.5208282470703125,-0.234619140625,-0.0653839111328125,-0.9660494327545166,-1.426287055015564,-3.777327060699463,105.53732299804688,-74.26382446289062,243.54307556152344
1700075467,0.573333740234375,-0.1701202392578125,-0.150115966796875,-1.0509984493255615,-1.3773261308670044,-3.9468295574188232,105.93858337402344,-75.90525817871094,244.3529663085937
1700075467,0.5790252685546875,-0.033905029296875,-0.26556396484375,-1.1714468002319336,-1.3235151767730713,-4.107902050018311,105.39263916015624,-77.74101257324219,244.83485412597656
1700075467,0.630584716796875,0.136688232421875,-0.3440093994140625,-1.332136631011963,-1.3868738412857056,-4.254847526550293,105.74972534179688,-79.02436828613281,244.91455078125
1700075467,0.7849578857421875,0.2638702392578125,-0.3304595947265625,-1.4331082105636597,-1.592830777168274,-4.406027317047119,104.98150634765624,-80.71856689453125,245.27325439453125
1700075467,0.9573211669921876,0.346832275390625,-0.2254486083984375,-1.412983536720276,-1.804173350334168,-4.513965129852295,105.2342529296875,-81.88084411621094,246.7475128173828
1700075467,1.0845947265625,0.450439453125,-0.1438446044921875,-1.1406166553497314,-1.9872395992279053,-4.534904479980469,105.12307739257812,-82.83100891113281,246.70770263671875
1700075467,1.147491455078125,0.5820465087890625,-0.1109619140625,-0.6048150658607483,-1.9863569736480715,-4.519967079162598,105.16419982910156,-83.7366943359375,247.04405212402344
1700075467,1.178009033203125,0.7094268798828125,-0.2174530029296875,0.163197174668312,-1.7936594486236572,-4.610056400299072,105.177490234375,-84.63337707519531,247.6510772705078
1700075467,1.2207489013671875,0.785675048828125,-0.4300384521484375,0.7659789323806763,-1.748405694961548,-4.710931301116943,104.64144897460938,-84.76939392089844,247.21432495117188
1700075467,1.2733154296875,0.9081878662109376,-0.5236358642578125,0.8431189656257629,-1.6756422519683838,-4.709854602813721,104.72560119628906,-85.57281494140625,247.441146850586
1700075467,1.3127899169921875,1.0731658935546875,-0.669158935546875,0.4405723214149475,-1.4568796157836914,-4.643801689147949,104.31832885742188,-85.41987609863281,247.84239196777344
1700075467,1.4047698974609375,1.206085205078125,-0.8548431396484375,-0.0716065391898155,-1.3597067594528198,-4.547865390777588,104.06126403808594,-85.18675231933594,247.42559814453125
1700075467,1.5186920166015625,1.1986541748046875,-0.7906951904296875,-0.3027705252170563,-1.2460927963256836,-4.460886478424072,104.1812744140625,-86.08395385742188,247.25439453125
1700075467,1.587646484375,1.0101165771484375,-0.666534423828125,-0.1357703506946563,-1.112773895263672,-4.172496795654297,103.69601440429688,-86.09829711914062,246.91094970703125
1700075467,1.53179931640625,0.9372711181640624,-0.5981597900390625,0.1239610910415649,-1.1107405424118042,-3.6955392360687256,103.782958984375,-85.93693542480469,247.5878295898437
1700075467,1.3609466552734375,0.9538726806640624,-0.5560302734375,0.0802186727523803,-1.1430656909942627,-3.2568278312683105,103.57316589355467,-86.22193908691406,246.7740173339844
1700075467,1.1900634765625,0.928558349609375,-0.5617828369140625,0.0946439504623413,-1.1058955192565918,-2.855974197387696,103.36369323730467,-85.63548278808594,246.118408203125
1700075467,1.103790283203125,0.8778839111328125,-0.4372711181640625,0.3102814257144928,-0.9790818691253662,-2.509711742401123,103.11344909667967,-85.73873901367188,246.6472625732422
1700075467,1.034698486328125,0.8085479736328125,-0.28839111328125,0.6105472445487976,-0.7790923118591309,-2.24007534980774,102.809814453125,-85.33950805664062,246.3369903564453
1700075467,0.9656219482421876,0.7386016845703125,-0.26812744140625,0.9145728945732116,-0.6420993208885193,-2.008344888687134,103.07369995117188,-84.9344482421875,246.2457427978516
1700075467,0.8989105224609375,0.669647216796875,-0.274200439453125,1.190235614776611,-0.522270679473877,-1.7850399017333984,102.72618103027344,-84.44648742675781,245.65760803222656
1700075467,0.848663330078125,0.59368896484375,-0.3065338134765625,1.336102843284607,-0.365063726902008,-1.582214117050171,101.92498779296876,-82.38325500488281,243.2317047119141
1700075467,0.813018798828125,0.496002197265625,-0.3422698974609375,1.2924760580062866,-0.1893717944622039,-1.330586075782776,102.46542358398438,-81.74871826171875,243.0469970703125
1700075467,0.7513885498046875,0.4220428466796875,-0.3469390869140625,1.1774433851242063,-0.0227250196039676,-0.9845991134643556,103.10882568359376,-81.8802490234375,244.4331817626953
1700075467,0.6772918701171875,0.4013214111328125,-0.3349151611328125,1.1084779500961304,0.0971321389079094,-0.60939621925354,102.73960876464844,-81.20729064941406,243.3050079345703
1700075467,0.6569671630859375,0.3827362060546875,-0.3077239990234375,1.062283277511597,0.1618216633796692,-0.2656359374523163,102.48834228515624,-81.26144409179688,242.3954162597656
1700075468,0.7146148681640625,0.3510589599609375,-0.2623748779296875,0.973430633544922,0.2161565274000167,0.0149485897272825,102.15487670898438,-80.64573669433594,241.85574340820312
1700075468,0.80010986328125,0.31842041015625,-0.231231689453125,0.8291323184967041,0.3020373582839966,0.2417345941066742,101.70271301269533,-80.74876403808594,242.03073120117188
1700075468,0.8384857177734375,0.26385498046875,-0.2420806884765625,0.5988053679466248,0.3810389637947082,0.4816537201404571,101.87989807128906,-80.56570434570312,241.500717163086
1700075468,0.838775634765625,0.224151611328125,-0.2861480712890625,0.3203710913658142,0.422974944114685,0.630541205406189,101.63392639160156,-80.47096252441406,241.601303100586
1700075468,0.8068084716796875,0.1346282958984375,-0.290313720703125,-5.16653235536e-05,0.5072826743125916,0.7798478603363037,101.48516845703124,-79.89619445800781,241.26914978027344
1700075468,0.76861572265625,0.0350341796875,-0.269287109375,-0.4196521341800689,0.906612753868103,0.9910317659378052,101.52316284179688,-79.34042358398438,241.03323364257807
1700075468,0.74505615234375,0.056854248046875,-0.4394989013671875,-0.7947911024093628,1.021462321281433,1.0802627801895142,101.44929504394533,-79.11614990234375,241.27410888671875
1700075468,0.5558624267578125,0.0997161865234375,-0.571044921875,-1.0275039672851562,0.6187641620635986,1.389296293258667,101.53363037109376,-78.7884521484375,241.55328369140625
1700075468,0.8714752197265625,0.24200439453125,-0.17657470703125,-1.4896396398544312,1.73486065864563,1.5362788438796997,101.32814025878906,-78.32017517089844,240.5123291015625
1700075468,0.91375732421875,0.1903839111328125,-0.915008544921875,-0.79117751121521,4.673187255859375,1.9854531288146973,101.35845947265624,-77.99472045898438,240.3138732910156
1700075468,-0.20648193359375,0.910614013671875,-3.4098663330078125,-0.3589208722114563,-0.3870840668678283,2.751473426818848,101.1698760986328,-77.19493103027344,239.748275756836
1700075468,1.5405426025390625,1.2551727294921875,-0.10955810546875,-0.859184205532074,-1.362605333328247,1.30814528465271,101.40768432617188,-76.78262329101562,239.7801055908203
1700075468,4.225357055664063,-0.471527099609375,0.92120361328125,0.4579420089721679,0.7965978384017944,0.137983962893486,100.99620056152344,-76.07748413085938,239.8626251220703
1700075468,2.4386749267578125,-1.1333160400390625,0.1894683837890625,1.3375729322433472,1.422640681266785,0.4133558869361877,101.11874389648438,-76.09384155273438,239.9435272216797
1700075468,0.9477691650390624,-0.621856689453125,1.132965087890625,0.9495018720626832,1.179413914680481,0.9708228707313538,101.28500366210938,-75.64500427246094,240.435287475586
1700075468,0.5699920654296875,-0.2720794677734375,0.4055938720703125,0.1681434661149978,0.8136902451515198,1.1398364305496216,101.30094909667967,-75.61752319335938,240.268295288086
1700075468,0.5235748291015625,-0.202911376953125,-0.1404876708984375,-0.2472137808799743,0.6490610837936401,0.914683997631073,101.673583984375,-75.25967407226562,239.8184814453125
1700075468,0.9645233154296876,-0.33038330078125,-0.1121368408203125,-0.7464067935943604,0.714372992515564,0.99016672372818,101.44656372070312,-75.0394287109375,240.301498413086
1700075468,1.4097137451171875,-0.156097412109375,-0.058929443359375,-0.8632391691207886,0.7165210843086243,1.155959129333496,101.72471618652344,-74.78071594238281,240.0227203369141
1700075468,1.816162109375,0.0584259033203125,-0.0117645263671875,-0.7265923619270325,0.6418899893760681,1.1432076692581177,101.37150573730467,-74.45993041992188,239.86122131347656
1700075468,1.9871368408203125,0.1972808837890625,-0.16192626953125,-0.5123527646064758,0.3508155345916748,1.0025017261505127,101.7825927734375,-74.27885437011719,239.42135620117188
1700075468,1.8133697509765625,0.271026611328125,-0.18682861328125,-0.3286737501621246,0.0994070172309875,1.0376418828964231,101.33804321289062,-74.0380859375,239.5246124267578
1700075468,1.3818817138671875,0.3140106201171875,-0.100189208984375,-0.2796103358268738,0.1868806630373001,1.0398539304733276,101.3606414794922,-73.54591369628906,239.50503540039065
1700075468,1.076263427734375,0.1037445068359375,-0.08489990234375,-0.1177039965987205,0.3940277397632599,0.8613200783729553,101.58853149414062,-73.161376953125,239.50621032714844
1700075468,1.182861328125,-0.2119903564453125,-0.15576171875,-0.0207950267940759,0.4792555272579193,0.8390611410140991,101.16978454589844,-72.82049560546875,239.49575805664065
1700075468,1.4197235107421875,-0.2485809326171875,-0.2299041748046875,-0.0663670375943183,0.3902596235275268,1.1578702926635742,101.22091674804688,-72.32102966308594,239.5228271484375
1700075468,1.4398345947265625,0.023895263671875,-0.3505096435546875,-0.0505007244646549,0.2302744835615158,1.3872320652008057,100.8966064453125,-71.37173461914062,239.4170379638672
1700075468,1.2579193115234375,0.252899169921875,-0.431793212890625,0.0528520308434963,-0.0262699536979198,1.2535837888717651,100.9077606201172,-70.76219177246094,239.0717620849609
1700075468,1.033050537109375,0.3837738037109375,-0.46661376953125,-0.0045886263251304,-0.1779510974884033,0.907292664051056,100.77972412109376,-70.12843322753906,239.1891021728516
1700075468,0.91058349609375,0.4860382080078125,-0.45794677734375,0.0420856662094593,-0.1142155230045318,0.5983909964561462,100.17274475097656,-69.28448486328125,238.0883331298828
1700075468,0.86212158203125,0.482879638671875,-0.2921905517578125,0.1791364699602127,-0.0096680736169219,0.5031177401542664,100.13587951660156,-68.28797912597656,237.78823852539065
1700075468,0.8277587890625,0.2830047607421875,-0.2141571044921875,0.2137298583984375,-0.0355316288769245,0.570918083190918,100.3342742919922,-67.20860290527344,237.9646148681641
1700075468,0.864349365234375,0.084197998046875,-0.2667694091796875,0.1016248911619186,-0.0351742319762706,0.7573297619819641,99.53213500976562,-66.33526611328125,237.6277770996093
1700075468,0.917572021484375,-0.0396270751953125,-0.3004913330078125,-0.0598984882235527,0.0437866300344467,0.943686842918396,99.40260314941406,-65.52890014648438,237.58737182617188
1700075468,0.9330291748046876,-0.1710205078125,-0.2897491455078125,-0.185086503624916,0.1443691700696945,1.1132210493087769,99.06419372558594,-64.63827514648438,236.93667602539065
1700075468,0.9152679443359376,-0.249114990234375,-0.238494873046875,-0.2116115838289261,0.2094091475009918,1.2905853986740112,98.70594787597656,-63.68717956542969,236.5784454345703
1700075468,0.8898162841796875,-0.228271484375,-0.236358642578125,-0.1514158844947815,0.2771189510822296,1.4134775400161743,98.047607421875,-62.52006530761719,236.22265625
1700075468,0.862396240234375,-0.103240966796875,-0.27764892578125,-0.0091442298144102,0.2953323125839233,1.4282269477844238,97.09437561035156,-61.48188781738281,236.2474975585937
1700075468,0.834503173828125,0.136505126953125,-0.2832794189453125,0.1091525852680206,0.3188397586345672,1.374965786933899,96.74278259277344,-60.30145263671875,235.5173492431641
1700075468,0.872039794921875,0.353729248046875,-0.2134857177734375,0.2318342924118042,0.432420939207077,1.3159900903701782,96.09906005859376,-59.367279052734375,235.5922241210937
1700075468,0.9386749267578124,0.45989990234375,-0.16748046875,0.5487147569656372,0.5199222564697266,1.281266450881958,95.54411315917967,-58.37971496582031,235.57540893554688
1700075468,0.9918212890625,0.374420166015625,-0.145721435546875,0.9363805055618286,0.6195554137229919,1.3983427286148071,94.89363098144533,-57.24476623535156,235.3912353515625
1700075468,1.00897216796875,0.1823272705078125,-0.1395416259765625,1.077721357345581,0.7113808989524841,1.60125994682312,94.26588439941406,-55.807952880859375,235.1034240722656
1700075468,0.98046875,-0.004730224609375,-0.20867919921875,0.8717823028564453,0.7516641616821289,1.7725731134414673,93.47628784179688,-54.99537658691406,234.6454925537109
1700075468,0.911712646484375,-0.0774383544921875,-0.3624114990234375,0.669461727142334,0.7342090010643005,1.9911720752716064,92.82284545898438,-54.01152038574219,234.86627197265625
1700075468,0.8050994873046875,-0.07440185546875,-0.444580078125,0.6390801072120667,0.7896237969398499,2.134371042251587,92.13462829589844,-52.97767639160156,234.7992401123047
1700075468,0.7339935302734375,-0.0020751953125,-0.47271728515625,0.6854952573776245,0.8006631135940552,2.0917856693267822,91.64727783203124,-51.48065185546875,234.5248107910156
1700075468,0.777435302734375,0.267364501953125,-0.39111328125,0.7982995510101318,0.8625994920730591,2.0228774547576904,90.7044677734375,-50.20188903808594,234.6614532470703
1700075468,0.9063568115234376,0.5562286376953125,-0.2926177978515625,0.975715398788452,0.8617826700210571,1.946730256080628,90.00709533691406,-49.41682434082031,234.3529052734375
1700075468,1.03582763671875,0.66162109375,-0.2179107666015625,1.1791092157363892,0.825412392616272,1.952799320220948,88.84400939941406,-48.12173461914063,235.0775604248047
1700075468,1.103515625,0.5881195068359375,-0.2542266845703125,1.2322139739990234,0.851031482219696,2.021120071411133,88.31755065917969,-46.87730407714844,234.26710510253903
1700075468,1.1491546630859375,0.3752593994140625,-0.3566436767578125,1.1873258352279663,0.8924372792243958,2.171633243560791,87.53260803222656,-46.42634582519531,234.9375457763672
1700075468,1.0711212158203125,0.2405242919921875,-0.4137725830078125,1.1474847793579102,0.9275174736976624,2.3415307998657227,86.92073059082031,-46.12348937988281,234.67010498046875
1700075468,0.9973907470703124,0.187744140625,-0.4209136962890625,1.1577078104019165,0.9929957985877992,2.4350900650024414,86.75595092773438,-45.47795104980469,234.2995147705078
1700075468,0.978515625,0.2060394287109375,-0.43878173828125,1.1975494623184204,1.0054773092269895,2.4666988849639893,86.62013244628906,-44.79158020019531,234.40792846679688
1700075468,1.031005859375,0.3584442138671875,-0.4741668701171875,1.25209641456604,0.9859935641288756,2.4885354042053223,86.10232543945312,-44.66920471191406,234.65155029296875
1700075468,1.152557373046875,0.50238037109375,-0.502288818359375,1.2787591218948364,0.9199399948120116,2.5193023681640625,86.32766723632812,-44.84413146972656,234.36102294921875
1700075468,1.396575927734375,0.5478515625,-0.49981689453125,1.2762943506240845,0.7171338796615601,2.5380334854125977,86.2025146484375,-45.12336730957031,234.64797973632807
1700075468,1.76263427734375,0.4889984130859375,-0.532562255859375,1.2809364795684814,0.5510988235473633,2.6165874004364014,86.54568481445312,-45.033721923828125,235.1977996826172
1700075468,1.9275054931640625,0.3617401123046875,-0.51025390625,1.1480807065963743,0.4530210196971893,2.693605899810791,87.54222106933594,-44.95368957519531,234.92575073242188
1700075468,1.93402099609375,0.1601409912109375,-0.4750518798828125,0.8971422910690308,0.354981005191803,2.67943811416626,88.17855834960938,-45.57603454589844,235.3007354736328
1700075468,1.972625732421875,-0.0090789794921875,-0.5018463134765625,0.7379736304283142,0.1729134619235992,2.493560314178467,89.00477600097656,-46.80619812011719,234.78707885742188
1700075468,1.8996734619140625,-0.1472625732421875,-0.5743255615234375,0.8566667437553406,0.0140841277316212,2.0262205600738525,90.07528686523438,-48.2034912109375,235.48385620117188
1700075468,1.673309326171875,-0.3027801513671875,-0.6263275146484375,0.6612637042999268,-0.0314298272132873,1.8195443153381348,91.03211975097656,-49.12690734863281,235.8308868408203
1700075468,0.9667510986328124,-0.1710205078125,-0.7274017333984375,0.1113179996609687,0.0280918218195438,1.7849669456481934,92.2271728515625,-50.609710693359375,235.7404022216797
1700075468,0.253448486328125,0.0702362060546875,-0.65313720703125,-0.1360108256340026,0.0862198397517204,1.2019224166870115,92.55682373046876,-52.24897766113281,236.19834899902344
1700075468,-0.1358642578125,0.0658721923828125,-0.4486846923828125,0.3142745792865753,0.0782820209860801,0.1561629772186279,93.7714385986328,-53.97727966308594,235.71095275878903
1700075468,-0.4354705810546875,-0.036712646484375,0.0554046630859375,0.84879070520401,0.0085905585438013,-0.7757724523544312,94.82040405273438,-55.376861572265625,235.8364715576172
1700075468,-0.8003692626953125,-0.1657867431640625,0.4755401611328125,0.5305333733558655,-0.1796326041221618,-1.4493939876556396,95.2432098388672,-57.01071166992188,235.69276428222656
1700075468,-0.6552276611328125,-0.3868865966796875,-0.01776123046875,0.0605259276926517,-0.2858876883983612,-2.09938645362854,96.08599853515624,-58.9208984375,235.9935607910156
1700075468,0.041656494140625,-0.782501220703125,-0.30706787109375,-0.3250941932201385,-0.2291817814111709,-2.804538488388061,96.81983947753906,-61.10301208496094,236.23046875
1700075468,0.38812255859375,-1.136932373046875,-0.1515350341796875,-0.7530418038368225,-0.2304121702909469,-3.00372314453125,97.32501220703124,-62.81141662597656,236.66769409179688
1700075468,0.373443603515625,-0.99920654296875,-0.233551025390625,-1.0753402709960938,-0.3202054500579834,-2.8917689323425293,98.1281280517578,-64.54118347167969,236.8821258544922
1700075468,0.27978515625,-0.510589599609375,-0.303985595703125,-1.2793914079666138,-0.3827369809150696,-3.2283451557159424,98.94497680664062,-66.19819641113281,237.478744506836
1700075468,0.3915557861328125,-0.2611846923828125,-0.2840728759765625,-1.3621277809143066,-0.3621749877929687,-3.691213369369507,99.30520629882812,-68.0343017578125,238.21990966796875
1700075468,0.441162109375,-0.0500640869140625,-0.1920928955078125,-1.3335784673690796,-0.3000620901584625,-4.0567779541015625,99.7165069580078,-69.22988891601562,239.0980224609375
1700075468,0.4976806640625,0.1272735595703125,-0.13153076171875,-1.1620333194732666,-0.3060499429702759,-4.248398303985596,99.98846435546876,-70.90446472167969,239.09600830078125
1700075468,0.6038055419921875,0.2519683837890625,-0.1266937255859375,-0.8573243021965027,-0.3557080328464508,-4.254751205444336,100.3328857421875,-72.18733215332031,239.8646545410156
1700075468,0.7297821044921875,0.4027099609375,-0.148529052734375,-0.3868563771247864,-0.5218014121055603,-4.137783527374268,100.56129455566406,-74.0184326171875,240.31353759765625
1700075468,0.875213623046875,0.6111907958984375,-0.1339263916015625,0.2317440211772918,-0.7359445691108704,-4.033130168914795,100.90641784667967,-75.70648193359375,240.8404693603516
1700075468,1.0196380615234375,0.8563232421875,-0.0873870849609375,0.826899528503418,-0.8351385593414307,-4.04354190826416,100.70329284667967,-76.94711303710938,241.56124877929688
1700075468,1.15130615234375,1.0890045166015625,-0.0954437255859375,1.2165900468826294,-0.8106446862220764,-4.23954963684082,101.34246826171876,-78.520751953125,242.730224609375
1700075468,1.27740478515625,1.2119903564453125,-0.12542724609375,1.3264209032058716,-0.7632821798324585,-4.400436401367188,101.50308227539062,-80.02719116210938,242.9169769287109
1700075468,1.34375,1.276702880859375,-0.0861968994140625,1.069888472557068,-0.7619099020957947,-4.447551727294922,101.55192565917967,-81.44825744628906,243.9966278076172
1700075468,1.290985107421875,1.2879180908203125,-0.097564697265625,0.8491387963294983,-0.7310078740119934,-4.478521823883057,101.69342041015624,-82.3841552734375,244.7391662597656
1700075468,1.258087158203125,1.028076171875,-0.1364593505859375,0.5301921963691711,-0.6541882157325745,-4.410857677459717,101.74234008789062,-83.11769104003906,245.37570190429688
1700075468,1.1700439453125,0.7821044921875,-0.252166748046875,0.0461334064602851,-0.6546936631202698,-4.1894145011901855,101.63392639160156,-83.49058532714844,245.8397521972656
1700075468,1.107940673828125,0.666229248046875,-0.3359375,-0.3981295228004455,-0.6160152554512024,-3.87147855758667,101.62705993652344,-84.37857055664062,246.55661010742188
1700075468,1.1457977294921875,0.6373443603515625,-0.446929931640625,-0.5266731381416321,-0.4989014267921448,-3.4754185676574707,101.52969360351562,-84.66552734375,246.8270721435547
1700075468,1.2462921142578125,0.6974945068359375,-0.6483612060546875,-0.3864805996417999,-0.7312233448028564,-3.1192190647125244,101.40927124023438,-85.44316101074219,246.2890625
1700075468,1.3272705078125,0.816314697265625,-0.6131134033203125,-0.1891491562128067,-1.0713587999343872,-2.7902908325195312,101.649169921875,-84.94950866699219,246.2068023681641
1700075468,1.30810546875,0.9563751220703124,-0.50982666015625,0.1171801537275314,-1.2418922185897827,-2.5326855182647705,101.56146240234376,-84.88905334472656,246.04367065429688
1700075468,1.230255126953125,1.077911376953125,-0.2838134765625,0.6471454501152039,-1.0747836828231812,-2.4006924629211426,101.5398406982422,-84.20243835449219,245.7403717041016
1700075468,1.1430511474609375,1.1538238525390625,-0.005615234375,1.522099852561951,-0.7059158682823181,-2.381355047225952,101.08810424804688,-83.67054748535156,245.2270050048828
1700075468,1.048797607421875,1.0710296630859375,0.10009765625,2.279108762741089,-0.4506193697452545,-2.2732558250427246,100.93589782714844,-83.05322265625,244.02980041503903
1700075468,0.934326171875,0.9026031494140624,-0.0354461669921875,2.4526500701904297,-0.4332486391067505,-2.051433801651001,99.79661560058594,-81.43223571777344,242.4165954589844
1700075468,0.87994384765625,0.7399749755859375,-0.2753143310546875,2.260136842727661,-0.4664550721645355,-1.7124024629592896,100.24227905273438,-80.73973083496094,242.35108947753903
1700075468,0.8659210205078125,0.5931396484375,-0.3946380615234375,1.943068146705628,-0.3831676244735718,-1.3288427591323853,100.29129028320312,-81.172607421875,242.1250915527344
1700075468,0.836090087890625,0.46453857421875,-0.459442138671875,1.568843960762024,-0.2366580814123153,-0.9889291524887084,100.16676330566406,-81.95693969726562,242.4608459472656
1700075469,0.7725372314453125,0.3428497314453125,-0.487213134765625,1.2533677816390991,-0.1075592190027237,-0.7038021087646484,100.15565490722656,-81.74607849121094,241.78941345214844
1700075469,0.69091796875,0.25372314453125,-0.4572296142578125,1.1115022897720337,0.031054588034749,-0.4478662014007568,99.7181396484375,-80.29345703125,241.09796142578125
1700075469,0.636474609375,0.198760986328125,-0.391632080078125,1.0910028219223022,0.1817631423473358,-0.2337451130151748,99.98867797851562,-79.15713500976562,240.86920166015625
1700075469,0.6348114013671875,0.1607208251953125,-0.3670501708984375,0.98230242729187,0.3431254029273987,-0.016867397353053,99.94908142089844,-79.34242248535156,240.68948364257807
1700075469,0.646759033203125,0.174163818359375,-0.429901123046875,0.8496930003166199,0.4561297297477722,0.1672230809926986,99.60652160644533,-78.83038330078125,240.0382080078125
1700075469,0.6618499755859375,0.1887664794921875,-0.482818603515625,0.814643144607544,0.8301352858543396,0.4044342935085296,99.40829467773438,-78.66651916503906,240.3955078125
1700075469,0.5517578125,0.2920074462890625,-0.740509033203125,1.1465725898742676,0.7624363899230957,0.6966738700866699,99.22669982910156,-77.82090759277344,239.9974365234375
1700075469,0.4104156494140625,0.4559783935546875,-0.6742706298828125,1.4984592199325562,0.9282122850418092,0.9918892979621888,98.90895080566406,-77.35603332519531,239.4051971435547
1700075469,0.6796112060546875,0.514984130859375,-0.689178466796875,2.044954538345337,2.8735170364379883,1.3798562288284302,99.0252685546875,-76.98043823242188,239.2198028564453
1700075469,0.3322601318359375,0.6910400390625,-2.004730224609375,2.430791139602661,2.434584140777588,2.644429922103882,98.9953155517578,-76.59007263183594,239.4068145751953
1700075469,0.041168212890625,1.4989013671875,-2.4038848876953125,0.8232251405715942,-1.526390552520752,2.5409464836120605,98.82843017578124,-76.17680358886719,238.287826538086
1700075469,3.1197967529296875,0.6693115234375,1.0281524658203125,-0.3106444180011749,0.0514466799795627,0.4983245730400085,98.7314910888672,-75.88446044921875,238.7513732910156
1700075469,3.4683074951171875,-1.2580108642578125,-0.0483856201171875,0.0763957053422927,1.7794126272201538,-0.390137642621994,98.57345581054688,-74.96177673339844,237.770736694336
1700075469,1.6932373046875,-1.607208251953125,0.9766845703125,-0.1414223760366439,1.7688782215118408,0.0574214793741703,99.00967407226562,-74.75251770019531,237.68862915039065
1700075469,0.91546630859375,-0.93218994140625,0.71038818359375,-1.1905986070632937,1.2241063117980957,1.0315568447113037,98.57406616210938,-74.37539672851562,237.7275848388672
1700075469,0.5904541015625,-0.396026611328125,-0.5253753662109375,-1.652079463005066,0.5978186726570129,1.5531939268112185,98.3414306640625,-74.35276794433594,237.38487243652344
1700075469,0.962127685546875,-0.6101531982421875,-0.35284423828125,-1.4949177503585815,0.610366940498352,1.8208322525024407,98.50892639160156,-73.97712707519531,237.87681579589844
1700075469,1.502105712890625,-0.700164794921875,-0.0023040771484375,-1.708566665649414,0.7766240835189819,2.259582996368408,98.02105712890624,-73.26985168457031,238.1429443359375
1700075469,1.454620361328125,-0.1129608154296875,-0.1078643798828125,-2.0425844192504883,0.6087541580200195,2.288745403289795,98.317626953125,-73.36935424804688,237.58108520507807
1700075469,1.22509765625,0.2028961181640625,-0.243133544921875,-1.9509148597717283,0.4629234373569488,1.6189528703689575,98.13070678710938,-73.36459350585938,237.3693389892578
1700075469,0.931549072265625,0.25335693359375,-0.5612030029296875,-0.7808806300163269,0.5193369388580322,0.9316983819007874,98.4564208984375,-73.23275756835938,237.54025268554688
1700075469,0.7464447021484375,0.2439117431640625,-0.707733154296875,0.2047406286001205,0.5155211091041565,1.0293607711791992,98.14817810058594,-72.76004028320312,237.5375823974609
1700075469,1.459442138671875,0.3064117431640625,-0.1936187744140625,0.5976349115371704,0.3585557639598846,1.2302597761154177,98.19882202148438,-72.69644165039062,237.6788787841797
1700075469,2.97967529296875,0.2016143798828125,0.5461883544921875,0.3020051419734955,1.0092909336090088,1.8519017696380613,98.15623474121094,-72.04083251953125,237.59532165527344
1700075469,3.2026519775390625,0.2014312744140625,0.267730712890625,-0.1486888080835342,0.8420110940933228,2.18719220161438,98.30543518066406,-71.66802978515625,237.94448852539065
1700075469,1.6326446533203125,0.50384521484375,-0.32672119140625,0.1030222550034523,0.4360007345676422,1.6023178100585938,98.18618774414062,-71.21908569335938,237.64210510253903
1700075469,0.5102081298828125,0.4520416259765625,-0.5624237060546875,0.1369661092758178,0.5570808053016663,0.912970781326294,98.26185607910156,-71.13182067871094,237.66563415527344
1700075469,-0.04095458984375,0.4727325439453125,-0.6138763427734375,0.505016028881073,0.6516299843788147,0.5405386090278625,98.0522918701172,-70.44456481933594,237.7963409423828
1700075469,0.1054840087890625,0.3332977294921875,-0.4715423583984375,1.0611191987991333,0.2762470245361328,0.3562635779380798,98.06002807617188,-70.09761047363281,237.74807739257807
1700075469,1.09674072265625,0.100616455078125,-0.422760009765625,1.0908046960830688,0.1101075932383537,0.3431515097618103,97.83050537109376,-69.4105224609375,237.3218994140625
1700075469,1.3723907470703125,0.21868896484375,-0.55645751953125,0.6269384622573853,0.1554543077945709,0.3429778516292572,97.18533325195312,-68.32052612304688,236.97802734375
1700075469,0.938568115234375,0.3513641357421875,-0.64361572265625,0.3593294024467468,0.1351319849491119,0.3870414495468139,96.99504089355467,-67.477294921875,236.5263061523437
1700075469,0.7928314208984375,0.2433929443359375,-0.4633331298828125,0.2457407861948013,0.1422042846679687,0.5005826950073242,97.05726623535156,-67.08132934570312,237.0246734619141
1700075469,0.8394927978515625,0.0662689208984375,-0.410430908203125,0.1955812126398086,0.1641409993171692,0.6200496554374695,97.04080200195312,-66.228759765625,236.10162353515625
1700075469,0.931793212890625,-0.000946044921875,-0.42462158203125,0.1141140535473823,0.1677088439464569,0.720135509967804,96.61183166503906,-65.77719116210938,236.4727783203125
1700075469,0.9955291748046876,0.1038970947265625,-0.4229278564453125,0.0007656587986275,0.1947862654924392,0.778037428855896,96.25772094726562,-64.51701354980469,236.03526306152344
1700075469,0.9364471435546876,0.2295684814453125,-0.40087890625,-0.0698171630501747,0.1857975572347641,0.8016753792762756,96.07160949707033,-63.89726257324219,235.43641662597656
1700075469,0.8650054931640625,0.2990875244140625,-0.3986053466796875,-0.0163443516939878,0.2163022011518478,0.7872916460037231,95.52467346191406,-63.16899108886719,235.75094604492188
1700075469,0.845306396484375,0.298614501953125,-0.3837890625,0.1228833124041557,0.248374655842781,0.7693523168563843,95.27194213867188,-62.1536865234375,235.1473999023437
1700075469,0.838592529296875,0.2639617919921875,-0.3648529052734375,0.2741412818431854,0.2958273887634277,0.7674082517623901,94.79588317871094,-61.29058837890625,235.1968536376953
1700075469,0.8617706298828125,0.25189208984375,-0.378631591796875,0.4001735150814056,0.3584841191768646,0.8210565447807312,94.09831237792967,-60.30781555175781,234.5599822998047
1700075469,0.88189697265625,0.2292022705078125,-0.35205078125,0.4662734270095825,0.3937688767910003,0.9169463515281676,93.46487426757812,-59.58967590332031,234.8748016357422
1700075469,0.878692626953125,0.1817626953125,-0.3221588134765625,0.4181277453899383,0.5231095552444458,1.0232738256454468,92.91336059570312,-58.9122314453125,234.5689697265625
1700075469,0.8602752685546875,0.1556396484375,-0.3867950439453125,0.3898747861385345,0.5965043902397156,1.1466546058654783,92.42588806152344,-57.609649658203125,234.1138916015625
1700075469,0.86956787109375,0.1187744140625,-0.353759765625,0.4026459753513336,0.6549368500709534,1.2763068675994873,91.80569458007812,-56.93296813964844,234.0963592529297
1700075469,0.806793212890625,0.1219940185546875,-0.3799896240234375,0.4854697585105896,0.7404085993766785,1.3406879901885986,91.53506469726562,-55.639984130859375,234.19493103027344
1700075469,0.804840087890625,0.2598114013671875,-0.422149658203125,0.5656692385673523,0.8011853694915771,1.333997130393982,90.834228515625,-54.67501831054688,233.83767700195312
1700075469,0.832855224609375,0.4260101318359375,-0.346649169921875,0.640178382396698,0.8699628710746765,1.2745954990386963,90.29353332519533,-53.95997619628906,233.98036193847656
1700075469,0.8560028076171875,0.4351043701171875,-0.36834716796875,0.7998721599578857,0.9036672711372375,1.273257613182068,89.80288696289062,-52.80873107910156,233.97984313964844
1700075469,0.904510498046875,0.322540283203125,-0.4127655029296875,0.8696320652961731,0.9448893070220948,1.3667491674423218,89.03244018554688,-51.967803955078125,233.6368103027344
1700075469,0.9509429931640624,0.2777557373046875,-0.48638916015625,0.8595892786979675,0.949356734752655,1.489647388458252,88.34390258789062,-50.68968200683594,234.09246826171875
1700075469,1.06573486328125,0.268951416015625,-0.4474945068359375,0.863213300704956,0.9575393199920654,1.5768318176269531,87.60636901855469,-49.69526672363281,233.82130432128903
1700075469,1.039459228515625,0.1540985107421875,-0.438140869140625,0.810016930103302,0.9967657923698424,1.6024847030639648,86.76087951660156,-48.85905456542969,234.17776489257807
1700075469,0.7704010009765625,0.2117919921875,-0.641143798828125,0.935538649559021,1.015789270401001,1.5639450550079346,86.34523010253906,-47.74531555175781,234.34259033203125
1700075469,0.68231201171875,0.44769287109375,-0.6065673828125,1.0506197214126587,1.030192494392395,1.477012038230896,85.39381408691406,-46.850616455078125,235.1166076660156
1700075469,0.847625732421875,0.574127197265625,-0.419342041015625,1.1354246139526367,1.032320857048035,1.467596173286438,84.76315307617188,-46.04360961914063,234.489501953125
1700075469,0.961639404296875,0.557769775390625,-0.396270751953125,1.1453232765197754,1.0348782539367676,1.605465054512024,84.38714599609375,-45.49360656738281,234.5361328125
1700075469,1.058349609375,0.5070343017578125,-0.4373321533203125,1.1258760690689087,1.1248973608016968,1.8622443675994875,84.15301513671875,-45.669708251953125,234.34767150878903
1700075469,1.16485595703125,0.3944091796875,-0.4232177734375,1.0815781354904177,1.1861714124679563,2.152049779891968,83.60722351074219,-45.2757568359375,234.426498413086
1700075469,1.448944091796875,0.264007568359375,-0.395660400390625,1.1203665733337402,1.264590620994568,2.465306043624878,83.55413818359375,-45.328643798828125,234.3867950439453
1700075469,1.4664154052734375,0.142425537109375,-0.4208221435546875,1.1981295347213743,1.3401939868927002,2.643275260925293,83.01118469238281,-45.369873046875,234.0004425048828
1700075469,1.2214202880859375,0.126922607421875,-0.51141357421875,1.3606384992599487,1.390564203262329,2.633465051651001,83.04780578613281,-45.4708251953125,234.5108795166016
1700075469,0.8589630126953125,0.3119049072265625,-0.6383514404296875,1.6113903522491455,1.4726463556289673,2.4414825439453125,83.44224548339844,-45.79747009277344,234.3410186767578
1700075469,0.6553192138671875,0.549835205078125,-0.66485595703125,1.9147789478302,1.5622515678405762,2.220919370651245,84.35124206542969,-46.5009765625,234.9141387939453
1700075469,0.659027099609375,0.7404022216796875,-0.637054443359375,2.212639808654785,1.5783344507217407,2.0882301330566406,85.38650512695312,-47.0069580078125,235.3366851806641
1700075469,0.9448394775390624,0.796966552734375,-0.6197357177734375,2.517910957336426,1.4982355833053589,2.019125938415528,86.56123352050781,-47.39483642578125,235.74354553222656
1700075469,1.3861541748046875,0.66168212890625,-0.650726318359375,2.7263741493225098,1.3172085285186768,1.9843207597732544,87.40408325195312,-48.00935363769531,236.1412506103516
1700075469,1.8311614990234373,0.418365478515625,-0.723724365234375,2.746519088745117,1.2101517915725708,2.0266900062561035,88.58416748046875,-48.97286987304688,236.784896850586
1700075469,2.066070556640625,0.1948699951171875,-0.6548614501953125,2.501579999923706,1.140271782875061,1.996193170547485,89.76718139648438,-50.3251953125,237.04495239257807
1700075469,2.2133331298828125,-0.10687255859375,-0.517486572265625,2.0799081325531006,1.1173782348632812,1.9318103790283203,90.9744110107422,-51.570648193359375,236.6566162109375
1700075469,2.1788482666015625,-0.40771484375,-0.5716552734375,1.853592038154602,1.1701442003250122,1.7178009748458862,91.68572998046876,-52.89132690429688,237.27430725097656
1700075469,1.8034515380859373,-0.6186981201171875,-0.6558685302734375,2.003726005554199,0.8619682788848877,1.712802767753601,92.98028564453124,-54.44004821777344,237.3025054931641
1700075469,1.1263275146484375,-0.4640655517578125,-0.6222686767578125,1.6859538555145264,0.8142308592796326,1.959541916847229,94.4751434326172,-56.25932312011719,237.96339416503903
1700075469,0.43035888671875,0.0124053955078125,-1.0442657470703125,1.0562515258789062,1.037588596343994,1.770572304725647,95.28573608398438,-57.66177368164063,238.5288543701172
1700075469,-0.1416168212890625,0.3546142578125,-1.4473876953125,0.4723667502403259,1.4301148653030396,1.034640192985535,96.43888854980467,-59.78916931152344,238.9969482421875
1700075469,-0.4659576416015625,0.81488037109375,-1.19415283203125,-0.0723871141672134,1.1941640377044678,0.2061486393213272,97.32510375976562,-61.4796142578125,238.96893310546875
1700075469,-0.1104583740234375,1.0590972900390625,0.0194549560546875,0.0618862695991992,0.6000946164131165,-0.3813028931617737,98.19686889648438,-63.009796142578125,240.3979339599609
1700075469,0.5165252685546875,0.1764678955078125,0.6791534423828125,-0.2357648611068725,0.4156840145587921,-1.0951727628707886,99.02627563476562,-64.535888671875,241.30288696289065
1700075469,0.693603515625,-0.7236328125,0.32659912109375,-0.44400754570961,0.4236660599708557,-1.5557193756103516,99.46875,-65.92938232421875,242.35623168945312
1700075469,0.4984893798828125,-0.8924102783203125,0.00518798828125,-0.6404582858085632,0.2299293428659439,-1.8881372213363647,100.09245300292967,-67.30059814453125,243.0476989746093
1700075469,0.322479248046875,-0.6294097900390625,-0.3289947509765625,-1.086094856262207,0.1524228304624557,-2.5588693618774414,100.966552734375,-69.06793212890625,243.74127197265625
1700075469,0.3073577880859375,-0.389007568359375,-0.4630889892578125,-1.3615446090698242,0.3135619163513183,-3.3261289596557617,101.23519897460938,-71.00250244140625,244.12765502929688
1700075469,0.3312225341796875,-0.313720703125,-0.329986572265625,-1.3129072189331057,0.4498513042926788,-3.823345422744751,101.18080139160156,-72.49349975585938,244.85693359375
1700075469,0.367767333984375,-0.1108551025390625,-0.18597412109375,-0.9877163767814636,0.4166654050350189,-4.212236404418945,101.63078308105467,-74.30467224121094,245.38983154296875
1700075469,0.5725250244140625,0.041107177734375,-0.059539794921875,-0.4195655882358551,0.2553681135177612,-4.59272575378418,101.59588623046876,-75.17835998535156,246.3455352783203
1700075469,0.85821533203125,0.1797943115234375,0.131866455078125,0.203545406460762,0.1229887753725051,-4.980456352233887,101.89566040039062,-76.28172302246094,246.6763153076172
1700075469,1.09222412109375,0.3774871826171875,0.319671630859375,0.6907555460929871,0.0306892022490501,-5.331890106201172,102.04360961914062,-77.39486694335938,247.02198791503903
1700075469,1.24578857421875,0.6039276123046875,0.4162750244140625,1.0644603967666626,-0.0762332528829574,-5.582301616668701,101.99299621582033,-78.333740234375,247.6048889160156
1700075469,1.3119354248046875,0.773101806640625,0.437225341796875,1.3457589149475098,-0.1844790279865265,-5.839678287506104,101.76187133789062,-78.61965942382812,248.3642578125
1700075469,1.3059234619140625,0.7057952880859375,0.4219207763671875,1.442754149436951,-0.2812263369560241,-5.959864139556885,101.79931640625,-79.66572570800781,247.96826171875
1700075469,1.1739044189453125,0.5414276123046875,0.412445068359375,1.2774853706359863,-0.3194823861122131,-6.026589870452881,101.74714660644533,-79.9384765625,248.32354736328125
1700075469,1.1149444580078125,0.441131591796875,0.3365325927734375,0.8908004760742188,-0.3327926099300384,-6.1122822761535645,101.48030090332033,-80.43193054199219,248.3625030517578
1700075469,1.18658447265625,0.3700103759765625,0.198028564453125,0.5026074647903442,-0.4408474266529083,-6.143043518066406,101.46507263183594,-80.693115234375,247.7333374023437
1700075469,1.3124542236328125,0.37225341796875,0.1556549072265625,0.4735579788684845,-0.6740657687187195,-6.060690879821777,101.5162353515625,-80.92724609375,247.66598510742188
1700075469,1.4542236328125,0.461395263671875,0.2719268798828125,0.9044475555419922,-0.9319193959236144,-5.881211280822754,101.0930633544922,-80.57106018066406,247.7275848388672
1700075469,1.5491180419921875,0.62445068359375,0.3571319580078125,1.6680264472961426,-1.037365436553955,-5.759468078613281,101.46212768554688,-80.41337585449219,247.51870727539065
1700075469,1.627349853515625,0.7677154541015625,0.320526123046875,2.4579861164093018,-0.9660435914993286,-5.851705074310303,101.58822631835938,-80.31948852539062,247.28829956054688
1700075469,1.7421875,0.8858642578125,0.222564697265625,3.1061806678771973,-0.9442676901817322,-5.950278282165527,101.54415893554688,-79.93132019042969,247.2800750732422
1700075469,1.820068359375,1.0803070068359375,0.2118377685546875,3.474813222885132,-0.9710614681243896,-5.922675132751465,101.38848876953124,-79.71609497070312,246.888412475586
1700075469,1.797088623046875,1.3006591796875,0.2124176025390625,3.665380716323853,-0.8488921523094177,-5.930316925048828,101.53660583496094,-79.4349365234375,246.8429412841797
1700075470,1.7413787841796875,1.3076019287109375,0.115325927734375,3.868199825286865,-0.623749852180481,-5.92556095123291,101.36187744140624,-78.78805541992188,246.367431640625
1700075470,1.6675262451171875,1.1118927001953125,0.0108795166015625,3.8682711124420166,-0.471199482679367,-5.77392578125,101.80421447753906,-78.22392272949219,246.4783172607422
1700075470,1.542022705078125,0.9613494873046876,-0.0560150146484375,3.683148145675659,-0.3223375678062439,-5.525937557220459,101.52243041992188,-78.20780944824219,246.2743988037109
1700075470,1.4591217041015625,0.8455657958984375,-0.14752197265625,3.5550966262817383,-0.2249071449041366,-5.180279731750488,101.331787109375,-77.94502258300781,245.87808227539065
1700075470,1.4049835205078125,0.79010009765625,-0.1710052490234375,3.319109439849853,-0.0821774303913116,-4.857954978942871,100.98052978515624,-77.43536376953125,245.5469207763672
1700075470,1.3505706787109375,0.804931640625,-0.225799560546875,3.1427595615386963,0.0463589765131473,-4.6347737312316895,100.10699462890624,-75.6756591796875,243.169174194336
1700075470,1.3257598876953125,0.766021728515625,-0.219970703125,2.99002742767334,0.032971266657114,-4.310796737670898,100.47817993164062,-75.14286804199219,243.85292053222656
1700075470,1.256622314453125,0.7939453125,-0.120941162109375,2.91994047164917,-0.06914072483778,-3.872931480407715,100.78211975097656,-75.15187072753906,244.8851928710937
1700075470,1.1958770751953125,0.844512939453125,-0.059356689453125,2.9571683406829834,-0.223892480134964,-3.442090034484864,100.61325073242188,-75.11805725097656,244.0940399169922
1700075470,1.1771087646484375,0.883697509765625,0.0157012939453125,2.991806507110596,-0.3559013903141022,-3.0251259803771973,100.3604736328125,-74.57540893554688,243.5457305908203
1700075470,1.1751708984375,0.92877197265625,0.03472900390625,2.881171226501465,-0.4107502400875091,-2.5961875915527344,100.21617126464844,-74.00820922851562,243.1654815673828
1700075470,1.15118408203125,0.9694366455078124,-0.0435791015625,2.537353277206421,-0.4320544600486755,-2.130213022232056,100.12754821777344,-73.69871520996094,242.39356994628903
1700075470,1.0979461669921875,0.938690185546875,-0.114501953125,1.9891810417175293,-0.4040622413158417,-1.579451322555542,100.0496063232422,-73.05264282226562,242.2329864501953
1700075470,0.998046875,0.86114501953125,-0.1701812744140625,1.350066065788269,-0.3701932430267334,-0.9912525415420532,99.55975341796876,-72.370849609375,242.11813354492188
1700075470,0.862091064453125,0.7970123291015625,-0.2320709228515625,0.603570818901062,-0.3206973373889923,-0.4052116870880127,99.37918090820312,-72.76611328125,241.73272705078125
1700075470,0.74951171875,0.7631072998046875,-0.2535247802734375,-0.2372303903102874,-0.2169243246316909,0.043935764580965,99.18942260742188,-72.2496337890625,241.303939819336
1700075470,0.73681640625,0.6631317138671875,-0.33544921875,-0.871957004070282,-0.1408679038286209,0.6923753023147583,99.29141235351562,-72.1070556640625,241.2937774658203
1700075470,0.705413818359375,0.692657470703125,-0.4313812255859375,-1.364726185798645,-0.0027348001021891,1.4577962160110474,99.27627563476562,-71.46627807617188,241.61151123046875
1700075470,0.591888427734375,0.99920654296875,-0.63519287109375,-1.2967469692230225,0.0949712544679641,1.2938464879989624,98.84341430664062,-71.29197692871094,241.3215484619141
1700075470,0.8874359130859375,0.57574462890625,-0.832916259765625,-1.1496334075927734,0.0356240421533584,-0.0713990852236747,98.7636260986328,-71.01768493652344,240.8605194091797
1700075470,1.634735107421875,-0.5841522216796875,-0.5380706787109375,0.1672084331512451,-0.4309452772140503,-1.4717525243759155,98.4289093017578,-70.23646545410156,241.1980743408203
1700075470,2.3107452392578125,-1.39849853515625,0.5335540771484375,-0.9301521182060242,0.3825151622295379,0.4619276821613312,98.60946655273438,-69.88531494140625,241.0255889892578
1700075470,1.5911865234375,-0.40606689453125,-0.4576263427734375,-1.407982349395752,0.5273746252059937,2.421299695968628,98.76667785644533,-69.3564453125,240.7881774902344
1700075470,1.5005340576171875,-0.359039306640625,-0.4747772216796875,-1.339513063430786,0.3667359352111816,2.761197328567505,98.45321655273438,-68.70687866210938,240.66754150390625
1700075470,1.4687347412109375,-0.746734619140625,-0.201416015625,-1.1025340557098389,0.2574789524078369,2.533964395523072,98.78469848632812,-68.661376953125,241.31495666503903
1700075470,0.765411376953125,-0.4878082275390625,-0.2701873779296875,-0.6429786682128906,0.2795919775962829,1.9250627756118768,98.73391723632812,-68.73490905761719,240.9041748046875
1700075470,0.279327392578125,-0.16973876953125,-0.2076568603515625,-0.1358015090227127,0.5842612981796265,1.3062487840652466,98.74006652832033,-68.122314453125,241.42344665527344
1700075470,0.220428466796875,0.143829345703125,-0.2696533203125,0.1891267746686935,0.7283535003662109,1.3124604225158691,98.67822265625,-68.0390625,241.3653106689453
1700075470,0.593841552734375,0.5019989013671875,-0.277313232421875,0.3827263414859772,0.5534264445304871,1.2588043212890625,98.49040222167967,-67.54905700683594,241.06417846679688
1700075470,1.175537109375,0.513214111328125,-0.2051544189453125,0.6158237457275391,0.4576722085475921,1.0041427612304688,98.61444091796876,-67.27310180664062,241.1224365234375
1700075470,1.461578369140625,0.3778228759765625,-0.3150634765625,1.0049488544464111,0.3804123103618622,0.888687252998352,98.73622131347656,-66.66555786132812,241.1628570556641
1700075470,1.3019866943359375,0.3781585693359375,-0.4091796875,1.439142107963562,0.3165113627910614,0.6790059208869934,98.7969207763672,-66.65238952636719,240.84718322753903
1700075470,1.1611480712890625,0.2328643798828125,-0.4129486083984375,1.705963134765625,0.2652705609798431,0.5139525532722473,98.43023681640624,-65.67189025878906,241.11231994628903
1700075470,0.9984283447265624,0.1231689453125,-0.346588134765625,1.6536483764648438,0.2752680480480194,0.4141596257686615,98.1922607421875,-64.95445251464844,240.9026031494141
1700075470,0.88409423828125,0.009674072265625,-0.2958221435546875,1.3744720220565796,0.3145059943199157,0.3817542791366577,98.20573425292967,-64.61323547363281,240.6282653808593
1700075470,0.8668670654296875,-0.0997314453125,-0.3304595947265625,1.0056018829345703,0.3239554464817047,0.3951100409030914,97.89950561523438,-64.24140930175781,240.5273284912109
1700075470,0.918243408203125,-0.1500701904296875,-0.424072265625,0.7409893870353699,0.2723388373851776,0.4386564493179321,97.876220703125,-63.5279541015625,240.42947387695312
1700075470,0.9666595458984376,-0.1344757080078125,-0.5002899169921875,0.6129307746887207,0.1747576892375946,0.4725438356399536,97.63883972167967,-62.70979309082031,240.67721557617188
1700075470,0.9878387451171876,-0.0924224853515625,-0.494873046875,0.4689789414405823,0.1016864106059074,0.4489285349845886,96.8377685546875,-61.60539245605469,240.46939086914065
1700075470,0.97601318359375,-0.033966064453125,-0.4633026123046875,0.3465243875980377,0.0880544930696487,0.3808141946792602,96.76242065429688,-60.68055725097656,239.7294769287109
1700075470,0.9478912353515624,0.025238037109375,-0.427581787109375,0.3057865500450134,0.0833470895886421,0.2953214049339294,96.1619873046875,-59.5814208984375,239.5223083496093
1700075470,0.9363250732421876,0.037628173828125,-0.4262542724609375,0.3238371908664703,0.0338170863687992,0.2363182604312896,95.6607666015625,-58.6485595703125,239.5031890869141
1700075470,0.939483642578125,0.0189361572265625,-0.4486846923828125,0.3485329449176788,-0.0242965519428253,0.2260299324989318,95.2504425048828,-57.51701354980469,239.1443023681641
1700075470,0.9474945068359376,-0.0090179443359375,-0.4575042724609375,0.3653436303138733,-0.0715431571006774,0.2361755222082138,94.72337341308594,-56.90437316894531,238.8304443359375
1700075470,0.9564056396484376,-0.0213470458984375,-0.4349212646484375,0.3891176581382751,-0.0983185768127441,0.2356663197278976,94.22158813476562,-55.973480224609375,238.4913024902344
1700075470,0.9645843505859376,-0.008544921875,-0.380859375,0.4223813414573669,-0.122231900691986,0.2188247591257095,93.56065368652344,-55.10496520996094,238.4573211669922
1700075470,0.96600341796875,0.0330352783203125,-0.3334503173828125,0.4180307984352112,-0.1023735105991363,0.156138464808464,93.02484130859376,-53.78662109375,238.5791931152344
1700075470,0.9635162353515624,0.0612335205078125,-0.3638763427734375,0.4655384123325348,-0.1274817883968353,0.0955550149083137,92.12611389160156,-52.86808776855469,238.7311553955078
1700075470,0.9501800537109376,0.0597991943359375,-0.3705596923828125,0.4801405072212219,-0.1405885368585586,0.0709902867674827,91.81446838378906,-51.2979736328125,238.9183044433593
1700075470,0.946929931640625,0.027984619140625,-0.376708984375,0.4653612971305847,-0.1570111811161041,0.0665566548705101,90.74473571777344,-50.39958190917969,238.8658599853516
1700075470,0.9382781982421876,-0.0264129638671875,-0.3837432861328125,0.4814137816429138,-0.1708431094884872,0.0776684284210205,90.09831237792967,-49.201263427734375,238.2704925537109
1700075470,0.9307403564453124,-0.080474853515625,-0.3629913330078125,0.4585159122943878,-0.1736141294240951,0.0864161178469657,89.28515625,-48.31396484375,238.613037109375
1700075470,0.92877197265625,-0.12237548828125,-0.3557586669921875,0.3950421214103699,-0.1648683100938797,0.0847729444503784,88.15650939941406,-47.00581359863281,239.06802368164065
1700075470,0.93463134765625,-0.136505126953125,-0.364471435546875,0.3346528112888336,-0.1685839593410492,0.110484167933464,87.35513305664062,-46.11627197265625,238.9312896728516
1700075470,0.947418212890625,-0.0959014892578125,-0.3946075439453125,0.3366347551345825,-0.1894772499799728,0.133965790271759,86.5062255859375,-44.7069091796875,239.1505584716797
1700075470,0.9676055908203124,-0.0221099853515625,-0.395416259765625,0.3491998016834259,-0.2066133618354797,0.1028685942292213,85.82521057128906,-43.26228332519531,239.5906524658203
1700075470,0.9959716796875,0.027130126953125,-0.3849945068359375,0.4077281057834625,-0.2095116823911667,0.0570560954511165,84.60919189453125,-42.18522644042969,239.38829040527344
1700075470,0.98919677734375,0.0644683837890625,-0.3567352294921875,0.4783473908901214,-0.2063483744859695,0.0291152745485305,83.90547180175781,-40.96527099609375,239.3639068603516
1700075470,0.953643798828125,0.0742950439453125,-0.3193511962890625,0.5157318115234375,-0.1830347925424575,0.0329630114138126,83.10990905761719,-40.43107604980469,239.6394195556641
1700075470,0.9192047119140624,0.029083251953125,-0.299346923828125,0.5160007476806641,-0.1506699323654174,0.0617155618965625,82.63200378417969,-39.53366088867188,239.9184417724609
1700075470,0.89178466796875,-0.059051513671875,-0.2812042236328125,0.4821386933326721,-0.1026811078190803,0.1085041090846061,81.76493835449219,-39.07562255859375,239.9055633544922
1700075470,0.8753509521484375,-0.14453125,-0.3111419677734375,0.3828153014183044,-0.0509662441909313,0.1823847144842147,81.27717590332031,-38.73703002929688,239.1579742431641
1700075470,0.885955810546875,-0.1840057373046875,-0.32757568359375,0.254336416721344,0.000341150938766,0.28314009308815,81.03981018066406,-38.55335998535156,239.7407989501953
1700075470,0.9122467041015624,-0.17730712890625,-0.307098388671875,0.1734681874513626,0.0574070997536182,0.4084713757038116,81.31417846679688,-38.273712158203125,239.67971801757807
1700075470,0.9069061279296876,-0.121551513671875,-0.27679443359375,0.1602623760700225,0.1191951036453247,0.4948635399341583,81.49630737304688,-38.53614807128906,240.1941375732422
1700075470,0.905548095703125,-0.0985870361328125,-0.2422943115234375,0.2204380929470062,0.1839578449726104,0.5833497047424316,82.12983703613281,-38.70872497558594,239.8874664306641
1700075470,0.88812255859375,-0.11273193359375,-0.2580413818359375,0.3333992660045624,0.2400309741497039,0.6741997599601746,83.12950134277344,-39.14585876464844,240.16207885742188
1700075470,0.879547119140625,-0.1362457275390625,-0.2839508056640625,0.399176687002182,0.2910339832305908,0.742619514465332,83.97355651855469,-39.54829406738281,239.8675537109375
1700075470,0.9054412841796876,-0.1473388671875,-0.2893524169921875,0.3927589952945709,0.3373002707958221,0.8154021501541138,84.7203369140625,-40.525238037109375,239.40245056152344
1700075470,0.9185028076171876,-0.1198577880859375,-0.3158721923828125,0.3853101432323456,0.3677181005477905,0.8934751152992249,85.33819580078125,-41.79046630859375,239.37583923339844
1700075470,0.93402099609375,-0.0818023681640625,-0.3431854248046875,0.4580786228179931,0.3757033050060272,0.9579326510429382,86.8819580078125,-43.03715515136719,238.7839813232422
1700075470,0.9594573974609376,-0.044158935546875,-0.3601531982421875,0.5412493944168091,0.3902220726013183,0.9996723532676696,87.71977233886719,-44.66497802734375,238.542709350586
1700075470,0.97186279296875,0.0224609375,-0.3551025390625,0.588695228099823,0.4239464700222015,1.0297011137008667,88.605712890625,-46.10089111328125,238.1744384765625
1700075470,0.9657440185546876,0.0733795166015625,-0.3207244873046875,0.6189266443252563,0.4619055688381195,1.0731971263885498,89.57945251464844,-47.25216674804688,238.35696411132807
1700075470,0.9307861328125,0.1069183349609375,-0.3341064453125,0.6859224438667297,0.4993690550327301,1.1266356706619265,90.57684326171876,-48.08148193359375,238.0441436767578
1700075470,0.9042510986328124,0.09075927734375,-0.3603973388671875,0.755171000957489,0.5398568511009216,1.1922465562820437,91.17869567871094,-49.32948303222656,238.2042694091797
1700075470,0.9055938720703124,0.0467529296875,-0.3621063232421875,0.831828236579895,0.588020384311676,1.261288285255432,91.84591674804688,-50.53594970703125,238.5967254638672
1700075470,0.9267425537109376,-0.0080108642578125,-0.3267364501953125,0.8702667355537415,0.6800975799560547,1.3549712896347046,93.04074096679688,-51.58833312988281,239.03341674804688
1700075470,0.9387969970703124,-0.0493316650390625,-0.326263427734375,0.9294347167015076,0.7713353633880615,1.4429547786712646,94.0995635986328,-52.704376220703125,239.3694763183593
1700075470,0.973388671875,-0.0557708740234375,-0.3808746337890625,1.0588624477386477,0.875157356262207,1.48935067653656,95.30174255371094,-53.83451843261719,239.3863067626953
1700075470,1.0316162109375,-0.022796630859375,-0.4347076416015625,1.263211011886597,0.9597198963165284,1.504072904586792,95.8060302734375,-54.91627502441406,239.54351806640625
1700075470,1.0706024169921875,0.03631591796875,-0.4620819091796875,1.5350662469863892,0.9646387696266174,1.5682545900344849,96.26730346679688,-56.475341796875,239.9330444335937
1700075470,1.125274658203125,0.138275146484375,-0.3564910888671875,1.6883466243743896,0.9413573741912842,1.7065945863723757,96.69252014160156,-57.82646179199219,240.0379180908203
1700075470,1.28082275390625,0.2357177734375,-0.1191558837890625,1.5335676670074463,1.0333921909332275,1.810310959815979,97.16810607910156,-59.11248779296875,240.2086334228516
1700075470,1.40948486328125,0.268310546875,-0.0988006591796875,1.4361506700515747,1.121352195739746,1.8950079679489136,97.6864776611328,-60.43595886230469,239.54579162597656
1700075470,1.5248565673828125,0.2222747802734375,-0.2194976806640625,1.4553046226501465,1.0912100076675415,2.0017178058624268,98.49479675292967,-61.44520568847656,240.24575805664065
1700075470,1.6358489990234375,0.15789794921875,-0.246551513671875,1.449072241783142,0.9984191060066224,2.109269380569458,98.55560302734376,-62.78024291992188,240.52224731445312
1700075470,1.72393798828125,0.1247100830078125,-0.1764068603515625,1.5196242332458496,0.9641700387001038,2.178079605102539,98.8922882080078,-63.80735778808594,241.0405120849609
1700075470,1.77838134765625,0.086761474609375,-0.0694427490234375,1.639363169670105,1.0220314264297483,2.228177070617676,99.38595581054688,-64.15425109863281,241.79161071777344
1700075470,1.797698974609375,0.049591064453125,-0.0312957763671875,1.8772989511489868,1.1848608255386353,2.18825626373291,99.97892761230467,-65.0660400390625,241.9544677734375
1700075470,1.8610076904296875,-0.064117431640625,-0.072601318359375,2.1367979049682617,1.2814710140228271,2.149921178817749,99.90049743652344,-65.34672546386719,242.0022735595703
1700075470,1.9269256591796875,-0.1548919677734375,-0.07537841796875,2.378788948059082,1.3685790300369265,2.084796190261841,100.1180419921875,-65.42509460449219,242.0504150390625
1700075470,1.91998291015625,-0.2131805419921875,-0.133087158203125,2.653340101242065,1.3785583972930908,1.9691938161849976,100.06239318847656,-65.34162902832031,242.34664916992188
1700075470,1.7451324462890625,-0.2259979248046875,-0.1919097900390625,2.878912687301636,1.3777203559875488,1.7265571355819702,100.19093322753906,-65.97296142578125,242.9329071044922
1700075470,1.421356201171875,-0.135162353515625,-0.41937255859375,3.05708646774292,1.2836122512817385,1.4319719076156616,100.3211669921875,-65.85401916503906,242.9220733642578
1700075470,1.0032196044921875,0.0537261962890625,-0.7295989990234375,3.1427788734436035,1.1302993297576904,1.185879826545715,100.91354370117188,-65.7484130859375,242.9970550537109
1700075470,0.665191650390625,0.272613525390625,-0.9971466064453124,2.9916110038757324,1.1317968368530271,0.9656621813774108,100.59333801269533,-65.75390625,242.903564453125
1700075470,0.485107421875,0.4700164794921875,-1.1591644287109375,2.8673157691955566,1.3117761611938477,0.7420719861984253,99.93502807617188,-65.54454040527344,242.43331909179688
1700075470,0.4588775634765625,0.6324005126953125,-1.050079345703125,2.8098905086517334,1.436298370361328,0.2444363683462143,100.04014587402344,-65.18492126464844,242.5880889892578
1700075470,0.5517578125,0.6745452880859375,-0.6799774169921875,2.8683793544769287,1.4175108671188354,-0.5624921321868896,100.09213256835938,-64.98770141601562,242.653549194336
1700075471,0.64080810546875,0.4810791015625,-0.3867950439453125,3.061074733734131,1.341502666473389,-1.268790364265442,99.79385375976562,-64.28189086914062,241.8370361328125
1700075471,0.563751220703125,0.1009674072265625,-0.304595947265625,3.0629446506500244,1.3328622579574585,-1.8189009428024288,99.30874633789062,-64.03190612792969,241.4053955078125
1700075471,0.403167724609375,-0.202239990234375,-0.297149658203125,2.9516937732696533,1.3845186233520508,-2.1500842571258545,98.72715759277344,-63.34211730957031,242.0590667724609
1700075471,0.240570068359375,-0.3824462890625,-0.2412567138671875,2.761554479598999,1.3662596940994265,-2.317227840423584,97.75672912597656,-62.123077392578125,240.4586181640625
1700075471,0.1743927001953125,-0.5236358642578125,-0.110565185546875,2.5237956047058105,1.3254454135894775,-2.414299964904785,96.87637329101562,-60.60621643066406,239.51109313964844
1700075471,0.2295684814453125,-0.6358795166015625,0.03094482421875,2.1239588260650635,1.2808904647827148,-2.45737099647522,96.75885009765624,-59.38279724121094,240.3739776611328
1700075471,0.32763671875,-0.59625244140625,0.104888916015625,1.5424240827560425,1.1962286233901978,-2.586848497390747,96.614013671875,-59.909759521484375,240.7660369873047
1700075471,0.4537200927734375,-0.3118743896484375,0.0892791748046875,1.0412520170211792,1.0642154216766355,-2.72700572013855,96.3672332763672,-60.25308227539063,239.730697631836
1700075471,0.55963134765625,-0.0202789306640625,0.1049957275390625,0.6702156662940979,0.94136244058609,-2.951223134994507,95.78053283691406,-59.75410461425781,239.33840942382807
1700075471,0.636077880859375,0.18914794921875,0.1335296630859375,0.5440603494644165,0.8103101849555969,-3.280356884002685,95.13450622558594,-59.99897766113281,238.99514770507807
1700075471,0.698760986328125,0.3048858642578125,0.16070556640625,0.6650142073631287,0.6438037157058716,-3.6444075107574463,95.04617309570312,-59.7353515625,238.5865020751953
1700075471,0.7590484619140625,0.326507568359375,0.19097900390625,0.8435602784156799,0.4883624911308288,-3.930837631225586,94.53150939941406,-59.69195556640625,237.6869354248047
1700075471,0.8013763427734375,0.3057403564453125,0.205322265625,0.9224862456321716,0.3827239573001861,-4.127939701080322,93.67805480957033,-59.29849243164063,237.25128173828125
1700075471,0.808868408203125,0.2662200927734375,0.1829986572265625,0.9103299975395204,0.2927945852279663,-4.257349014282227,93.2467041015625,-59.26564025878906,236.58322143554688
1700075471,0.80474853515625,0.224090576171875,0.1434173583984375,0.9390612244606018,0.186657503247261,-4.337691783905029,93.18577575683594,-59.11805725097656,236.4571685791016
1700075471,0.83392333984375,0.1919097900390625,0.1240081787109375,1.0319567918777466,0.00968165602535,-4.353760719299316,92.60050964355467,-58.88766479492188,236.1649627685547
1700075471,0.913421630859375,0.2163848876953125,0.154998779296875,1.1262308359146118,-0.1832848638296127,-4.32135534286499,92.02239990234376,-59.002716064453125,235.64334106445312
1700075471,1.007537841796875,0.3055572509765625,0.2030792236328125,1.0986181497573853,-0.3961587846279144,-4.222366809844971,91.94378662109376,-58.60527038574219,235.6605682373047
1700075471,1.0844573974609375,0.4714202880859375,0.27081298828125,0.8768548369407654,-0.5547047853469849,-4.036665439605713,91.81150817871094,-57.35888671875,235.8524475097656
1700075471,1.157196044921875,0.665191650390625,0.290863037109375,0.7391324043273926,-0.6172019839286804,-3.8588461875915527,91.16258239746094,-56.780548095703125,235.1294708251953
1700075471,1.2011871337890625,0.770294189453125,0.20635986328125,0.8206543922424316,-0.6845663785934448,-3.731258153915405,90.21299743652344,-56.54481506347656,234.93603515625
1700075471,1.1889801025390625,0.805908203125,0.095794677734375,0.9585320949554444,-0.8044136762619019,-3.681741237640381,90.19747924804688,-55.932647705078125,234.9188537597656
1700075471,1.1368408203125,0.832794189453125,0.0067138671875,1.0507220029830933,-0.92927223443985,-3.757344484329224,89.7950439453125,-55.608795166015625,234.7718048095703
1700075471,1.162261962890625,0.85955810546875,-0.0111236572265625,1.035653591156006,-0.9938037991523744,-3.870100975036621,90.04222106933594,-55.58744812011719,234.5896759033203
1700075471,1.2222900390625,0.8984375,0.0160980224609375,0.9558226466178894,-0.9824760556221008,-3.9015238285064697,90.29409790039062,-54.83978271484375,234.8939666748047
1700075471,1.238433837890625,0.9167938232421876,0.0066680908203125,0.8537825345993042,-0.9582740664482116,-3.801831007003784,89.79660034179688,-54.44017028808594,235.173080444336
1700075471,1.1916656494140625,0.8974609375,-0.053558349609375,0.810612142086029,-0.9499713778495787,-3.539249897003174,89.43489074707031,-54.17097473144531,235.254135131836
1700075471,1.103607177734375,0.881195068359375,-0.1322479248046875,0.8172050714492798,-1.0050615072250366,-3.1485345363616943,89.24864196777344,-53.94895935058594,234.9584808349609
1700075471,1.035614013671875,0.892578125,-0.1927337646484375,0.8483230471611023,-1.0564194917678833,-2.7417595386505127,89.20333862304688,-53.750030517578125,235.428451538086
1700075471,1.0142059326171875,0.896240234375,-0.2559356689453125,0.9334592819213868,-1.0418113470077517,-2.372034788131714,89.05389404296875,-53.5733642578125,234.92242431640625
1700075471,1.0099639892578125,0.9000701904296875,-0.2941131591796875,1.0119119882583618,-0.9892945885658264,-2.088855504989624,88.60678100585938,-53.48075866699219,234.86512756347656
1700075471,0.9825592041015624,0.890838623046875,-0.3161773681640625,1.1331449747085571,-0.9339910745620728,-1.8029731512069704,88.45880126953125,-53.033447265625,234.5546722412109
1700075471,0.9442291259765624,0.9129486083984376,-0.2985687255859375,1.314875841140747,-0.885027289390564,-1.5069453716278076,88.36018371582031,-53.11360168457031,234.87977600097656
1700075471,0.899078369140625,0.9256591796875,-0.262847900390625,1.5179078578948977,-0.8348038196563721,-1.2650771141052246,88.2178955078125,-52.42059326171875,234.3668975830078
1700075471,0.8634490966796875,0.85577392578125,-0.21832275390625,1.7179598808288574,-0.7705563902854919,-1.0100435018539429,88.1524658203125,-52.04917907714844,233.8890838623047
1700075471,0.8308868408203125,0.6962127685546875,-0.176605224609375,1.770127534866333,-0.6925257444381714,-0.7288853526115417,87.48783874511719,-51.75685119628906,234.36492919921875
1700075471,0.825897216796875,0.5008087158203125,-0.18988037109375,1.6654013395309448,-0.6533961892127991,-0.4878793954849243,87.30093383789062,-51.67402648925781,234.4120941162109
1700075471,0.829559326171875,0.306243896484375,-0.200042724609375,1.4403517246246338,-0.5836322903633118,-0.2650260627269745,86.94769287109375,-51.18682861328125,234.17384338378903
1700075471,0.787109375,0.1352691650390625,-0.206939697265625,1.2162917852401731,-0.5022223591804504,-0.02610963024199,86.72370910644531,-51.15155029296875,233.495346069336
1700075471,0.6889801025390625,0.017578125,-0.1888580322265625,1.0624406337738037,-0.3564073741436004,0.1750303953886032,85.94221496582031,-50.20675659179688,234.2592010498047
1700075471,0.610595703125,-0.0880279541015625,-0.1568145751953125,0.8874419927597046,-0.1964981406927108,0.341792494058609,85.36672973632812,-49.82981872558594,233.7068328857422
1700075471,0.62139892578125,-0.159515380859375,-0.130645751953125,0.5558043718338013,-0.0926849320530891,0.5346402525901794,84.9388427734375,-49.13954162597656,233.66131591796875
1700075471,0.68157958984375,-0.1230621337890625,-0.1674652099609375,0.0787960141897201,-0.0632324963808059,0.754496157169342,84.26832580566406,-48.96240234375,233.63214111328125
1700075471,0.738189697265625,-0.0074615478515625,-0.218780517578125,-0.3730974197387695,-0.0245490185916423,0.9213629364967346,83.73179626464844,-48.05729675292969,232.92605590820312
1700075471,0.7808380126953125,0.0480499267578125,-0.2259063720703125,-0.6800357699394226,0.0306785497814416,0.9811559319496156,83.04608154296875,-47.621124267578125,233.4784698486328
1700075471,0.7934417724609375,0.017181396484375,-0.195465087890625,-0.9209330677986144,0.0773853361606597,0.9801905751228333,82.10693359375,-46.84114074707031,233.216796875
1700075471,0.770660400390625,-0.0694122314453125,-0.1947784423828125,-1.2022409439086914,0.0585983321070671,1.0342599153518677,81.49586486816406,-46.671630859375,233.1778259277344
1700075471,0.7544403076171875,-0.12188720703125,-0.217193603515625,-1.3778598308563232,0.0816389396786689,1.0327438116073608,80.70465087890625,-45.8834228515625,232.76004028320312
1700075471,0.68927001953125,-0.183441162109375,-0.2327423095703125,-1.468276023864746,0.1272895187139511,1.2316089868545532,79.83602905273438,-45.05497741699219,233.515869140625
1700075471,0.610748291015625,-0.109039306640625,-0.2253265380859375,-1.6520503759384155,0.37224280834198,1.3747961521148682,79.2393798828125,-44.4967041015625,232.98245239257807
1700075471,0.5787811279296875,0.104095458984375,-0.487152099609375,-1.3778276443481443,0.5705002546310425,1.5950592756271362,78.67770385742188,-43.91839599609375,233.0285186767578
1700075471,0.6030426025390625,0.405364990234375,-0.6244659423828125,-0.6431997418403625,1.3940508365631104,1.501749038696289,77.95172119140625,-43.21647644042969,233.03561401367188
1700075471,0.7384185791015625,0.543121337890625,-1.1552886962890625,1.9887709617614744,4.376801490783691,1.822443485260009,76.93949890136719,-42.23866271972656,233.70948791503903
1700075471,0.0573272705078125,1.1172027587890625,-3.5403594970703125,1.3209071159362793,-1.176363468170166,3.6493911743164062,76.05274963378906,-41.6109619140625,233.24563598632807
1700075471,1.7308807373046875,2.3193359375,-0.5744171142578125,-0.1039980351924896,-0.9629905223846436,1.4096490144729614,74.38583374023438,-40.71116638183594,233.5944061279297
1700075471,4.43572998046875,-0.35809326171875,0.6470184326171875,1.57549786567688,2.254798412322998,-0.5354764461517334,73.69296264648438,-39.80267333984375,233.6134033203125
1700075471,2.4607391357421875,-1.9409942626953125,0.4776763916015625,2.061633348464966,2.491079092025757,-0.8428571820259094,72.13363647460938,-39.37619018554688,233.6104736328125
1700075471,1.1907958984375,-0.981689453125,0.6980743408203125,0.725649893283844,1.381441354751587,0.3787595629692077,70.97712707519531,-38.647064208984375,233.5656280517578
1700075471,0.493011474609375,0.0010986328125,-0.3860321044921875,-0.3712502419948578,0.3820813298225403,1.6317534446716309,69.36273193359375,-37.75755310058594,234.1605529785156
1700075471,0.41339111328125,-0.1290283203125,-0.496978759765625,-0.7746240496635437,0.6456703543663025,1.5866650342941284,68.24977111816406,-36.87812805175781,235.0652770996093
1700075471,0.844085693359375,-0.750213623046875,-0.2877349853515625,-0.6215794086456299,1.0416339635849,0.917980968952179,66.86288452148438,-35.5419921875,235.84278869628903
1700075471,1.2352142333984375,-1.09210205078125,-0.076263427734375,-0.6549432277679443,1.0047701597213743,1.0386749505996704,66.25753784179688,-35.10955810546875,236.9953765869141
1700075471,1.295654296875,-0.5428009033203125,-0.380706787109375,-0.3726822137832641,0.7349246144294739,1.2354705333709717,64.88743591308594,-33.54621887207031,237.48326110839844
1700075471,1.5132904052734375,-0.15960693359375,-0.406707763671875,-0.3124761581420898,0.4602419137954712,1.274528741836548,63.52122497558594,-32.75962829589844,238.20046997070312
1700075471,1.652740478515625,0.064971923828125,-0.2559051513671875,-0.6040669679641724,0.2631493508815765,1.1781401634216309,62.21185302734375,-31.856369018554688,239.2008819580078
1700075471,1.4819793701171875,0.304412841796875,-0.3125762939453125,-0.7206820249557495,0.0859801545739173,0.8683393597602844,61.66697692871094,-31.63838195800781,239.56069946289065
1700075471,1.2291107177734375,0.3981475830078125,-0.3759765625,-0.541029691696167,-0.0754918307065963,0.5932247042655945,59.95368957519531,-31.17041015625,240.3800506591797
1700075471,1.0706939697265625,0.517913818359375,-0.2836151123046875,-0.3587214052677154,-0.1522252261638641,0.3745914399623871,58.73731994628906,-30.949539184570312,241.3742218017578
1700075471,1.1358642578125,0.5842132568359375,-0.05450439453125,-0.2969312667846679,-0.0904305651783943,0.243929848074913,57.608184814453125,-30.15875244140625,241.6351928710937
1700075471,1.3127899169921875,0.5926055908203125,0.0093994140625,-0.2939346730709076,-0.1016307547688484,0.1538207232952118,56.68125915527344,-30.531417846679688,242.4247436523437
1700075471,1.4458465576171875,0.5416717529296875,-0.0426177978515625,-0.1914197653532028,-0.0776444599032402,0.0339907221496105,56.10591125488281,-30.20819091796875,242.60324096679688
1700075471,1.4121551513671875,0.3798980712890625,-0.2088623046875,-0.0109858056530356,-0.0797052159905433,-0.0390075854957103,55.59169006347656,-30.283721923828125,242.9706878662109
1700075471,1.239166259765625,0.2142333984375,-0.2588958740234375,0.1097387447953224,-0.0512187108397483,0.0155225005000829,55.6251220703125,-30.22052001953125,242.40185546875
1700075471,1.0686492919921875,0.0681915283203125,-0.1969757080078125,0.1469231396913528,0.0731285363435745,0.1355660855770111,55.64450073242188,-30.32264709472656,242.8065490722656
1700075471,0.9718780517578124,-0.1125030517578125,-0.145355224609375,0.09701469540596,0.2085814327001571,0.2432981431484222,55.801605224609375,-30.456130981445312,242.36085510253903
1700075471,0.9779205322265624,-0.3157196044921875,-0.1937408447265625,0.0439528115093708,0.2742848098278045,0.4905651807785034,56.59309387207031,-29.883773803710938,242.4361572265625
1700075471,0.9670867919921876,-0.3809967041015625,-0.31927490234375,0.0909256488084793,0.2572429776191711,0.8528083562850952,57.11048889160156,-30.37538146972656,241.97157287597656
1700075471,0.9082489013671876,-0.3073577880859375,-0.3890228271484375,0.1353932470083236,0.2150657027959823,1.0263516902923584,58.22218322753906,-30.991744995117188,241.04345703125
1700075471,0.9040679931640624,-0.1978759765625,-0.3710479736328125,0.0988669246435165,0.2169837057590484,1.05180025100708,59.25987243652344,-30.99327087402344,240.65191650390625
1700075471,0.8712005615234375,0.0073699951171875,-0.3436126708984375,0.1333942711353302,0.2721263170242309,1.036400556564331,60.369232177734375,-30.9337158203125,240.5184020996093
1700075471,0.8289794921875,0.1542510986328125,-0.254364013671875,0.2347845435142517,0.3433264791965484,1.0176897048950195,61.768096923828125,-30.852554321289062,240.5481872558593
1700075471,0.816192626953125,0.2408905029296875,-0.17138671875,0.2943226993083954,0.4210953116416931,1.024527072906494,63.22412109375,-30.8092041015625,240.8374481201172
1700075471,0.818450927734375,0.26287841796875,-0.20367431640625,0.3470309376716614,0.4569102823734283,1.0302883386611938,64.82719421386719,-30.534164428710938,240.8891143798828
1700075471,0.82366943359375,0.20062255859375,-0.251861572265625,0.3105932772159576,0.480241984128952,1.056491494178772,66.60321044921875,-30.360824584960938,242.35206604003903
1700075471,0.83673095703125,0.130462646484375,-0.2777099609375,0.214791402220726,0.5434161424636841,1.1195026636123655,68.58100891113281,-29.82221984863281,242.2704925537109
1700075471,0.874664306640625,0.0779266357421875,-0.3039703369140625,0.1641151756048202,0.5872381925582886,1.206309199333191,70.59754943847656,-29.686553955078125,243.49874877929688
1700075471,0.943359375,0.05615234375,-0.329193115234375,0.1714487224817276,0.6059356927871704,1.3158944845199585,72.59254455566406,-29.57659912109375,243.262939453125
1700075471,1.01434326171875,0.064971923828125,-0.3716888427734375,0.252768337726593,0.6080987453460693,1.4371581077575684,75.06840515136719,-29.69105529785156,244.1450958251953
1700075471,1.048919677734375,0.0919189453125,-0.364837646484375,0.330584853887558,0.622620701789856,1.5480263233184814,77.15505981445312,-29.859390258789062,243.9193115234375
1700075471,1.033203125,0.112701416015625,-0.3365478515625,0.4143934547901153,0.6592346429824829,1.6505004167556765,79.47816467285156,-30.018234252929688,244.04196166992188
1700075471,0.9520111083984376,0.142242431640625,-0.362274169921875,0.6008008718490601,0.6876124739646912,1.715499758720398,82.08645629882812,-30.402908325195312,245.2696990966797
1700075471,0.83056640625,0.1621551513671875,-0.345245361328125,0.7895748019218445,0.7232983112335205,1.7066880464553833,84.87554931640625,-30.266387939453125,245.8934020996093
1700075471,0.670440673828125,0.2256011962890625,-0.317779541015625,0.7483804821968079,0.8294905424118042,1.702787160873413,87.75895690917969,-30.81727600097656,247.328353881836
1700075471,0.5683746337890625,0.3677978515625,-0.2889251708984375,0.7135170698165894,0.9476922750473022,1.6462572813034058,90.2086944580078,-30.71664428710937,249.12290954589844
1700075471,0.69256591796875,0.426483154296875,-0.2459716796875,0.7725542783737183,0.9997666478157043,1.7008984088897705,93.3603515625,-31.8968505859375,251.00376892089844
1700075471,1.0026092529296875,0.35711669921875,-0.2712860107421875,0.8150577545166016,0.9422380924224854,1.8959554433822632,96.22795104980467,-32.172210693359375,252.45977783203125
1700075471,1.2347564697265625,0.28875732421875,-0.3745269775390625,0.6835260987281799,0.8938575387001038,2.034034013748169,99.06724548339844,-33.322113037109375,254.031982421875
1700075471,1.3157806396484375,0.2200469970703125,-0.460968017578125,0.6017354130744934,0.8983052968978882,2.210663080215454,101.51963806152344,-34.88311767578125,255.3134155273437
1700075471,1.1390380859375,0.1990966796875,-0.4741363525390625,0.6619888544082642,0.9137893915176392,2.3747718334198,104.05476379394533,-36.17533874511719,257.12335205078125
1700075472,0.9169158935546876,0.2004852294921875,-0.45892333984375,0.705254852771759,0.8998262286186218,2.388356685638428,106.41383361816406,-37.54180908203125,257.6192626953125
1700075472,0.8124237060546875,0.329193115234375,-0.482818603515625,0.7078067064285278,0.9379285573959352,2.318431854248047,108.443115234375,-39.28938293457031,258.1973876953125
1700075472,0.80322265625,0.5050506591796875,-0.4508056640625,0.7330976724624634,0.9374366998672484,2.22448468208313,110.40739440917967,-41.20426940917969,259.1146240234375
1700075472,0.7562713623046875,0.57501220703125,-0.34197998046875,0.7523805499076843,0.9050358533859252,2.1698226928710938,112.37477111816406,-42.97085571289063,259.66802978515625
1700075472,0.6348724365234375,0.6070556640625,-0.380615234375,0.7257044911384583,0.8414824604988098,2.121175765991211,113.23358154296876,-44.80070495605469,260.7528686523437
1700075472,0.6204376220703125,0.6341094970703125,-0.4125213623046875,0.6715900897979736,0.8033571839332581,2.0951943397521973,114.85923767089844,-46.15135192871094,261.3182983398437
1700075472,0.7200775146484375,0.6300506591796875,-0.4304351806640625,0.6016768217086792,0.7600416541099548,2.1035962104797363,116.28323364257812,-47.55615234375,262.6425170898437
1700075472,0.8907012939453125,0.5719451904296875,-0.471923828125,0.5820040106773376,0.729391872882843,2.161527156829834,116.93229675292967,-48.9273681640625,263.7153015136719
1700075472,1.062469482421875,0.52581787109375,-0.5815887451171875,0.5483301877975464,0.6502411365509033,2.2144582271575928,117.41737365722656,-49.965850830078125,263.93670654296875
1700075472,1.3315887451171875,0.5563201904296875,-0.6679534912109375,0.7140794992446899,0.5430041551589966,2.3601551055908203,118.38957214355467,-50.435821533203125,264.43463134765625
1700075472,1.52081298828125,0.5506744384765625,-0.6326141357421875,0.8504109978675842,0.4421862065792084,2.4947264194488525,118.45504760742188,-50.37202453613281,263.9942626953125
1700075472,1.7001495361328125,0.5216522216796875,-0.5506744384765625,0.8987060785293579,0.3636423945426941,2.673068284988404,118.8488311767578,-50.59141540527344,264.9488525390625
1700075472,1.823577880859375,0.481597900390625,-0.536865234375,0.9095720648765564,0.2626433372497558,2.8384101390838623,118.60935974121094,-50.15153503417969,264.4314880371094
1700075472,1.914703369140625,0.4151611328125,-0.5486907958984375,0.8480868339538574,0.1258263736963272,2.886782646179199,118.7349090576172,-49.36293029785156,264.39404296875
1700075472,2.0500946044921875,0.3140106201171875,-0.5267791748046875,0.7085925936698914,-0.0495622269809246,2.722374677658081,118.79672241210938,-48.26045227050781,264.052490234375
1700075472,2.130859375,0.120147705078125,-0.4551544189453125,0.5123714208602905,-0.2535638213157654,2.465275764465332,119.0517578125,-47.60665893554688,263.1795959472656
1700075472,2.0577545166015625,-0.004058837890625,-0.382720947265625,0.4008965492248535,-0.4916877150535583,2.236483335494995,119.52415466308594,-48.41351318359375,263.8998413085937
1700075472,1.68890380859375,0.0473175048828125,-0.3661651611328125,0.3071160018444061,-0.5503462553024292,2.010063886642456,119.74252319335938,-48.355712890625,262.5792236328125
1700075472,1.0714263916015625,0.1900634765625,-0.517333984375,0.0694864019751548,-0.3653516173362732,1.733461618423462,119.78065490722656,-47.67662048339844,262.876953125
1700075472,0.4591827392578125,0.3220977783203125,-0.8739776611328125,-0.4909867644309997,-0.1891350299119949,1.363528847694397,119.24560546875,-46.70292663574219,261.4299621582031
1700075472,0.061370849609375,0.418304443359375,-1.0058746337890625,-1.1305595636367798,-0.0484988279640674,1.0448601245880127,118.77525329589844,-45.48068237304688,261.3344116210937
1700075472,-0.1899261474609375,0.5269775390625,-0.6440887451171875,-0.992014706134796,-0.0012769857421517,0.744488537311554,118.25442504882812,-44.10752868652344,260.7157592773437
1700075472,-0.438201904296875,0.2949981689453125,-0.078704833984375,-0.3891706466674804,-0.2201510071754455,0.176651731133461,118.15281677246094,-43.48374938964844,260.19873046875
1700075472,-0.7134857177734375,-0.17840576171875,0.295867919921875,0.1578865647315979,-0.5916726589202881,-0.6613108515739441,118.00453186035156,-42.15318298339844,259.7862548828125
1700075472,-0.6884307861328125,-0.641082763671875,0.48046875,0.2664348781108856,-0.7474201321601868,-1.5245307683944702,117.83445739746094,-41.86734008789063,259.521728515625
1700075472,-0.206390380859375,-0.7927093505859375,0.305389404296875,0.0582939311861991,-0.9662659168243408,-2.1349544525146484,117.7004852294922,-41.21549987792969,259.66717529296875
1700075472,0.0835113525390625,-0.4869537353515625,-0.0302734375,-0.0826544016599655,-1.2020171880722046,-2.623687982559204,117.40670776367188,-40.658966064453125,259.075927734375
1700075472,0.1555023193359375,-0.393524169921875,-0.029266357421875,-0.0344820767641067,-1.2409521341323853,-3.0626325607299805,117.08160400390624,-40.274200439453125,259.44940185546875
1700075472,0.2111358642578125,-0.4869384765625,0.0926666259765625,-0.0592635907232761,-1.2203024625778198,-3.358942747116089,116.83578491210938,-39.93524169921875,260.45361328125
1700075472,0.2204742431640625,-0.434356689453125,0.1015625,-0.2542823553085327,-1.2556586265563965,-3.57260537147522,116.6645050048828,-39.356292724609375,260.4173583984375
1700075472,0.275177001953125,-0.2748870849609375,0.0572052001953125,-0.4861824214458465,-1.3054258823394775,-3.762981653213501,116.9179229736328,-39.43153381347656,260.96893310546875
1700075472,0.352142333984375,-0.12396240234375,-0.0590362548828125,-0.5474263429641724,-1.3866450786590576,-3.953437805175781,116.73788452148438,-38.8291015625,260.97332763671875
1700075472,0.4383087158203125,0.0139007568359375,-0.1968536376953125,-0.4633157253265381,-1.463032841682434,-4.221074104309082,116.96560668945312,-38.56321716308594,260.6174011230469
1700075472,0.557342529296875,0.122650146484375,-0.2879180908203125,-0.4098072350025177,-1.507344365119934,-4.526505470275879,116.5651397705078,-38.25871276855469,260.6024780273437
1700075472,0.6805419921875,0.2284393310546875,-0.283111572265625,-0.4143966436386108,-1.551262617111206,-4.777732372283936,116.39794921875,-38.113037109375,260.573974609375
1700075472,0.828521728515625,0.3237762451171875,-0.184783935546875,-0.4593508243560791,-1.599455714225769,-4.9653520584106445,116.38726806640624,-38.10528564453125,261.15216064453125
1700075472,0.967071533203125,0.3927459716796875,-0.117706298828125,-0.6026334166526794,-1.5517709255218506,-4.996020317077637,116.19140625,-37.6455078125,261.2718505859375
1700075472,1.036956787109375,0.4791259765625,-0.2299957275390625,-0.795137882232666,-1.5932244062423706,-4.886978149414063,116.2635498046875,-37.27790832519531,261.37841796875
1700075472,1.1010589599609375,0.5716552734375,-0.2736968994140625,-0.9481074213981628,-1.8577516078948968,-4.651794910430908,115.99420166015624,-37.43977355957031,261.472412109375
1700075472,1.2004547119140625,0.69781494140625,-0.120452880859375,-0.7928014993667603,-1.964085340499878,-4.3583598136901855,115.92184448242188,-36.991455078125,261.4439392089844
1700075472,1.2965087890625,0.8413238525390625,-0.0583953857421875,-0.1701522916555404,-1.853626728057861,-4.224808692932129,115.78463745117188,-36.94328308105469,261.68658447265625
1700075472,1.4178009033203125,0.9183349609375,-0.1636505126953125,0.5502458214759827,-1.5416234731674194,-4.251959323883057,115.59567260742188,-36.7408447265625,261.9381103515625
1700075472,1.520660400390625,0.987762451171875,-0.4538116455078125,0.7348851561546326,-1.2727667093276978,-4.29587984085083,115.9789581298828,-36.844085693359375,262.7839050292969
1700075472,1.586669921875,1.13043212890625,-0.865081787109375,0.1005780026316642,-1.312544584274292,-4.178143501281738,115.5662078857422,-36.85163879394531,262.4042053222656
1700075472,1.657440185546875,1.3408660888671875,-0.9680328369140624,-0.4862585961818695,-1.4570306539535522,-4.004470348358154,115.4569091796875,-36.70819091796875,262.462890625
1700075472,1.67791748046875,1.3431549072265625,-0.752227783203125,-0.5813637971878052,-1.446514368057251,-3.777139663696289,115.71311950683594,-36.95574951171875,263.03936767578125
1700075472,1.5196533203125,1.1468353271484375,-0.4895782470703125,-0.242361769080162,-1.3272340297698977,-3.405263662338257,115.5341339111328,-36.66505432128906,263.2349853515625
1700075472,1.2895050048828125,1.09405517578125,-0.3419952392578125,0.0641965642571449,-1.220435619354248,-3.0035762786865234,115.69244384765624,-36.891448974609375,263.3939819335937
1700075472,1.107757568359375,1.0774688720703125,-0.307220458984375,0.3838810920715332,-1.0786603689193726,-2.653987169265747,115.65797424316406,-36.79925537109375,263.7247619628906
1700075472,1.015655517578125,0.9724884033203124,-0.323822021484375,0.5707377791404724,-0.95930415391922,-2.3219001293182373,115.4171905517578,-36.524322509765625,263.3935546875
1700075472,1.0039825439453125,0.875701904296875,-0.3555908203125,0.6375394463539124,-0.8650985956192017,-2.036787271499634,115.44245910644533,-36.89924621582031,264.1639404296875
1700075472,1.02032470703125,0.76715087890625,-0.4017181396484375,0.6307912468910217,-0.7614699006080627,-1.717826247215271,115.36117553710938,-36.417236328125,264.3670654296875
1700075472,0.9480438232421876,0.678253173828125,-0.441253662109375,0.4923678934574127,-0.6222981810569763,-1.378525972366333,115.39588928222656,-36.3563232421875,264.1673278808594
1700075472,0.79180908203125,0.594512939453125,-0.4742584228515625,0.3126042485237121,-0.4628211855888366,-1.0521209239959717,115.15638732910156,-36.13850402832031,265.1861572265625
1700075472,0.6290283203125,0.48480224609375,-0.44610595703125,0.2852801978588104,-0.3022053837776184,-0.7646233439445496,115.04013061523438,-36.39265441894531,265.5995178222656
1700075472,0.5261383056640625,0.3658447265625,-0.311920166015625,0.3491079211235046,-0.1381517499685287,-0.5132787823677063,115.39004516601562,-36.18426513671875,265.64801025390625
1700075472,0.548126220703125,0.2582550048828125,-0.1524810791015625,0.2978876233100891,-0.0064637581817805,-0.2197488695383072,115.41217041015624,-36.41705322265625,266.1937866210937
1700075472,0.6344146728515625,0.2218170166015625,-0.0947723388671875,0.1396766752004623,0.0921797305345535,0.0508533269166946,115.08590698242188,-36.35079956054688,265.8526611328125
1700075472,0.734405517578125,0.2307586669921875,-0.1540985107421875,0.0351012609899044,0.1105499491095542,0.2938851416110992,115.0937957763672,-36.40861511230469,266.298828125
1700075472,0.827056884765625,0.2747650146484375,-0.2095947265625,-0.0106071038171648,0.0747013986110687,0.481368213891983,114.64268493652344,-35.98707580566406,265.9968566894531
1700075472,0.879913330078125,0.3171234130859375,-0.2164306640625,-0.0490817911922931,0.0914878398180008,0.5733018517494202,114.8258819580078,-35.73457336425781,266.38702392578125
1700075472,0.875823974609375,0.275848388671875,-0.2340240478515625,-0.1244583055377006,0.1795881390571594,0.5905202627182007,114.66351318359376,-35.58164978027344,266.1672668457031
1700075472,0.803131103515625,0.186492919921875,-0.262298583984375,-0.4387901425361633,0.7047520279884338,0.6467305421829224,114.39347839355467,-34.93609619140625,265.655517578125
1700075472,0.6190948486328125,0.1537628173828125,-0.586212158203125,-0.9212798476219176,1.127323031425476,0.8874784708023071,114.07693481445312,-34.51228332519531,266.26953125
1700075472,0.3008270263671875,0.27716064453125,-0.9237823486328124,-1.2189253568649292,1.1003574132919312,1.2769484519958496,113.94563293457033,-34.322906494140625,266.0873413085937
1700075472,0.481048583984375,0.455780029296875,-0.8394927978515625,-0.9131523966789246,2.9631755352020264,1.8617242574691768,114.0279541015625,-33.73503112792969,266.10821533203125
