timestamp,acc-x,acc-y,acc-z,gyr-x,gyr-y,gyr-z,mag-x,mag-y,mag-z
1700075064,0.9841461181640624,0.0472259521484375,-0.16595458984375,0.018124409019947,-0.0157360862940549,-0.0231897421181201,151.56964111328125,-75.51473999023438,217.3102569580078
1700075064,0.9869842529296876,0.04620361328125,-0.1650848388671875,0.0304484535008668,-0.0150402020663023,-0.0225942581892013,151.34072875976562,-75.583984375,217.82620239257807
1700075064,0.9864044189453124,0.0389556884765625,-0.1719970703125,0.0373396500945091,-0.0184815395623445,-0.0221729464828968,150.91864013671875,-76.30038452148438,217.24688720703125
1700075064,0.98443603515625,0.0325927734375,-0.1668853759765625,0.0375047661364078,-0.0123187182471156,-0.0235556587576866,151.0568084716797,-76.60963439941406,217.2901306152344
1700075064,0.981292724609375,0.03558349609375,-0.15234375,0.0322210527956485,-0.0053236591629683,-0.0253050904721021,150.7330322265625,-76.86849975585938,216.46929931640625
1700075064,0.9840087890625,0.0471038818359375,-0.1491851806640625,0.0337092280387878,0.0017986990278586,-0.0351950041949749,150.88282775878906,-77.56419372558594,217.14370727539065
1700075064,0.99176025390625,0.0518341064453125,-0.1487579345703125,0.026307238265872,0.0084616616368293,-0.0429876819252967,150.86949157714844,-78.13175964355469,216.7095642089844
1700075064,0.9911041259765624,0.053680419921875,-0.149932861328125,0.0205686576664447,0.0079412795603275,-0.050273023545742,150.60113525390625,-78.18844604492188,216.6290435791016
1700075064,0.98626708984375,0.053863525390625,-0.154266357421875,0.019546803086996,0.0108174942433834,-0.0663904771208763,150.6185760498047,-78.642822265625,216.43429565429688
1700075064,0.984832763671875,0.0558319091796875,-0.1597137451171875,0.025726668536663,0.0062906527891755,-0.0765704065561294,150.5209197998047,-79.10279846191406,216.32485961914065
1700075064,0.9901123046875,0.055908203125,-0.159149169921875,0.0305057112127542,0.001228516222909,-0.0866283699870109,150.4285430908203,-78.97367858886719,216.24786376953125
1700075064,0.9881744384765624,0.0513458251953125,-0.164886474609375,0.0357364267110824,-0.0032093753106892,-0.0952298492193222,150.62887573242188,-79.70108032226562,215.7994384765625
1700075064,0.978363037109375,0.0433349609375,-0.16912841796875,0.0293099526315927,-0.0035230957437306,-0.0988208502531051,150.1217803955078,-79.51641845703125,215.674057006836
1700075064,0.9751739501953124,0.036590576171875,-0.1674346923828125,0.021655760705471,-0.0101090930402278,-0.0979888811707496,149.87399291992188,-79.90180969238281,215.3344268798828
1700075064,0.9757537841796876,0.0342559814453125,-0.1706695556640625,0.0088062742725014,-0.0170338451862335,-0.0982762351632118,149.8126983642578,-80.04051208496094,215.26739501953125
1700075064,0.975616455078125,0.0339202880859375,-0.1767578125,-0.0021707424893975,-0.0255178771913051,-0.1000272631645202,150.0282440185547,-79.77836608886719,215.029052734375
1700075064,0.9672698974609376,0.039642333984375,-0.1803436279296875,-0.0086185215041041,-0.0300881266593933,-0.1020832285284996,149.96060180664062,-79.67425537109375,214.50149536132807
1700075064,0.9618988037109376,0.038970947265625,-0.1756744384765625,-0.0222219489514827,-0.0368016883730888,-0.10568568110466,150.01348876953125,-79.72798156738281,214.71730041503903
1700075064,0.970672607421875,0.0309906005859375,-0.1772918701171875,-0.0370949059724807,-0.0382682941854,-0.1072958335280418,149.914306640625,-79.64971923828125,214.399658203125
1700075064,0.9971160888671876,0.0158233642578125,-0.179595947265625,-0.0518205873668193,-0.046333409845829,-0.0993795841932296,149.76174926757812,-79.63963317871094,214.5663299560547
1700075064,1.017303466796875,0.00775146484375,-0.177978515625,-0.0644863173365593,-0.0526451021432876,-0.0896864756941795,149.8398895263672,-79.60346984863281,214.75819396972656
1700075064,1.01446533203125,0.0122528076171875,-0.1671142578125,-0.0560728572309017,-0.047875914722681,-0.0837833136320114,149.75685119628906,-79.74432373046875,214.1407928466797
1700075064,1.0004425048828125,0.011749267578125,-0.1508026123046875,-0.030195452272892,-0.0367063507437706,-0.0763842537999153,149.646484375,-79.83197021484375,214.2749481201172
1700075064,0.9953765869140624,0.0081634521484375,-0.139129638671875,-0.0038213697262108,-0.0172972306609153,-0.0640636682510376,149.8539581298828,-79.83026123046875,214.9626617431641
1700075064,1.0032196044921875,0.007537841796875,-0.126953125,0.0157981384545564,0.0054110107012093,-0.0509819574654102,149.7542724609375,-80.11441040039062,214.08624267578125
1700075064,1.0028533935546875,0.0052947998046875,-0.122772216796875,0.0275653153657913,0.022145515307784,-0.0322322398424148,149.5218048095703,-80.16668701171875,214.0098114013672
1700075064,0.99224853515625,-0.0011749267578125,-0.130645751953125,0.0259120240807533,0.0342495813965797,-0.0172551535069942,149.6628875732422,-79.57591247558594,213.7927703857422
1700075064,0.986602783203125,-0.0057830810546875,-0.1444549560546875,0.0173379778861999,0.041349571198225,0.0014317154418677,149.57798767089844,-79.75700378417969,213.9681396484375
1700075064,0.985260009765625,-0.0070343017578125,-0.1568450927734375,0.0233069211244583,0.0464431308209896,0.0118798287585377,149.3998260498047,-79.47842407226562,214.0424652099609
1700075064,0.9847412109375,-0.001220703125,-0.1566925048828125,0.0417546369135379,0.0517992824316024,0.0235143806785345,149.53025817871094,-79.51838684082031,213.7498321533203
1700075064,0.9798736572265624,0.0174713134765625,-0.1514892578125,0.061865497380495,0.0513207130134105,0.0191145725548267,149.18881225585938,-79.32078552246094,214.065673828125
1700075064,0.97467041015625,0.0361328125,-0.1499176025390625,0.0798535495996475,0.0592292360961437,0.0088675273582339,149.01690673828125,-79.6195068359375,214.0353240966797
1700075064,0.97174072265625,0.0410919189453125,-0.154052734375,0.090076632797718,0.0533574968576431,0.0001890844287117,149.150146484375,-79.2987060546875,213.9358367919922
1700075064,0.9716796875,0.0421142578125,-0.1579437255859375,0.083580382168293,0.0564225278794765,-0.0151611100882291,149.46495056152344,-79.541748046875,213.78042602539065
1700075064,0.9789581298828124,0.03753662109375,-0.163848876953125,0.0753261819481849,0.0479416921734809,-0.0220879912376403,149.15211486816406,-79.35166931152344,213.9010772705078
1700075064,0.978240966796875,0.0431671142578125,-0.172454833984375,0.06536515802145,0.031812522560358,-0.0416603609919548,149.43057250976562,-79.61215209960938,214.22024536132807
1700075064,0.9821929931640624,0.0518035888671875,-0.178375244140625,0.0595581345260143,0.0291280578821897,-0.0673859640955925,149.09249877929688,-79.73638916015625,213.84149169921875
1700075064,0.986297607421875,0.0516204833984375,-0.172943115234375,0.0667827576398849,0.0283783785998821,-0.0874382331967353,149.1828155517578,-79.18939208984375,214.2493591308593
1700075064,0.9863739013671876,0.0469818115234375,-0.163909912109375,0.0593336299061775,0.0230443328619003,-0.101697601377964,149.38304138183594,-79.07286071777344,214.075912475586
1700075064,0.996917724609375,0.031036376953125,-0.1643218994140625,0.0446881093084812,0.0096177402883768,-0.1108388975262641,149.3663787841797,-79.07548522949219,213.73062133789065
1700075064,0.997955322265625,0.03680419921875,-0.1785125732421875,0.0280350968241691,-0.0013837785227224,-0.1215216368436813,149.317626953125,-79.13807678222656,214.31594848632807
1700075064,1.00286865234375,0.045928955078125,-0.1748199462890625,0.0137309925630688,-0.0040437439456582,-0.1400092989206314,149.46556091308594,-79.207275390625,213.95138549804688
1700075064,0.9950408935546876,0.041015625,-0.1682891845703125,0.0059646819718182,-0.0048506814055144,-0.1431715339422226,149.2212371826172,-79.20790100097656,214.3944702148437
1700075064,0.980377197265625,0.023651123046875,-0.1681671142578125,0.0001006674865493,-0.0071157002821564,-0.13718181848526,149.5023956298828,-79.11581420898438,214.1728515625
1700075064,0.9774932861328124,0.0089111328125,-0.168853759765625,-0.0139954444020986,-0.0077873491682112,-0.1242644265294075,149.4227294921875,-79.29136657714844,214.2737731933593
1700075064,0.9795989990234376,-0.0001678466796875,-0.1705474853515625,-0.0282236486673355,-0.0084414212033152,-0.1112540885806083,149.35186767578125,-78.84257507324219,214.64947509765625
1700075064,0.981658935546875,-0.0131988525390625,-0.171234130859375,-0.0356730408966541,-0.0099663473665714,-0.0969246849417686,149.64605712890625,-78.88839721679688,214.373291015625
1700075064,0.9809722900390624,-0.02227783203125,-0.168487548828125,-0.0423194952309131,-0.0080022662878036,-0.076228454709053,149.49205017089844,-78.68489074707031,214.34185791015625
1700075064,0.9843902587890624,-0.022796630859375,-0.1683349609375,-0.0441789142787456,-0.0066496469080448,-0.061488926410675,149.32376098632812,-78.79252624511719,214.27194213867188
1700075064,0.9871368408203124,-0.01336669921875,-0.16473388671875,-0.0384360738098621,-0.002738528419286,-0.0567255988717079,149.69622802734375,-78.5234375,214.4874420166016
1700075064,0.987213134765625,0.00335693359375,-0.1568603515625,-0.0281690526753664,0.0022620889358222,-0.0564195998013019,149.82603454589844,-78.25904846191406,214.5614013671875
1700075064,0.9913482666015624,0.0074310302734375,-0.149505615234375,-0.0181281380355358,0.0120095247402787,-0.0584718324244022,149.72293090820312,-78.36607360839844,214.84246826171875
1700075064,0.9930572509765624,-0.0023651123046875,-0.1442718505859375,-0.0193348154425621,0.0215468369424343,-0.0491861887276172,149.4298095703125,-78.05412292480469,214.777084350586
1700075064,0.993621826171875,-0.010711669921875,-0.1497955322265625,-0.0296385865658521,0.0191625095903873,-0.0390440709888935,149.65052795410156,-78.0501708984375,215.11248779296875
1700075064,0.992401123046875,0.0014801025390625,-0.1656494140625,-0.0312199704349041,0.0144513770937919,-0.0453485734760761,149.77774047851562,-77.62289428710938,215.33175659179688
1700075064,0.9951934814453124,0.021484375,-0.168609619140625,-0.0176319908350706,0.013107013888657,-0.0567714050412178,150.07740783691406,-77.58575439453125,214.9322052001953
1700075064,0.9882049560546876,0.03338623046875,-0.164337158203125,0.0105855325236916,0.0105690211057662,-0.0634567365050315,149.9394073486328,-77.47898864746094,215.462631225586
1700075064,0.979644775390625,0.027252197265625,-0.159759521484375,0.0362048745155334,0.0096081523224711,-0.0634250417351722,149.94619750976562,-77.22003173828125,215.45965576171875
1700075064,0.9798431396484376,0.0070343017578125,-0.1588134765625,0.0295283310115337,0.0125860990956425,-0.0552113242447376,150.2352752685547,-77.67898559570312,215.6253356933593
1700075064,0.98175048828125,-0.0154571533203125,-0.1601715087890625,0.0194373466074466,0.0138036962598562,-0.0447658747434616,149.99795532226562,-77.46920776367188,215.4102935791016
1700075064,0.9823760986328124,-0.024688720703125,-0.1727142333984375,0.0054251253604888,0.0046362970024347,-0.0362378992140293,150.11102294921875,-77.29747009277344,215.27186584472656
1700075064,0.9879608154296876,-0.0118408203125,-0.1758575439453125,-0.0065865297801792,0.003106577321887,-0.0437480136752128,149.99078369140625,-77.44075012207031,215.8920288085937
1700075064,0.995361328125,-0.00311279296875,-0.1643829345703125,-0.0133443009108304,0.0001107874995796,-0.0411367826163768,150.1405792236328,-76.92063903808594,215.442138671875
1700075064,0.9869384765625,0.0088043212890625,-0.171722412109375,-0.00946647208184,-0.00715351710096,-0.0471398159861564,150.33836364746094,-77.18841552734375,215.4606475830078
1700075064,0.9862060546875,0.0162811279296875,-0.171417236328125,-0.0030075078830122,-0.0084318341687321,-0.0544406063854694,150.37747192382812,-77.01889038085938,215.2484436035156
1700075064,0.984283447265625,0.0131988525390625,-0.1652374267578125,-0.0045622610487043,-0.0096496976912021,-0.0547732338309288,149.88743591308594,-76.88125610351562,214.9851989746093
1700075064,0.9816131591796876,0.0016632080078125,-0.16485595703125,-0.0116702383384108,-0.0074139740318059,-0.047437023371458,150.5098419189453,-77.02232360839844,215.4181671142578
1700075064,0.98126220703125,-0.0087738037109375,-0.165985107421875,-0.0170168001204729,-0.009433981962502,-0.0417530387639999,150.30772399902344,-76.88023376464844,215.2475128173828
1700075064,0.9833221435546876,-0.00994873046875,-0.164520263671875,-0.0208344422280788,-0.0087080039083957,-0.0390898771584034,150.43699645996094,-77.17117309570312,215.7949066162109
1700075064,0.9855499267578124,-0.0035400390625,-0.1621551513671875,-0.0142907882109284,-0.0050964914262294,-0.0373899824917316,150.18927001953125,-76.67533874511719,216.0986785888672
1700075064,0.9838714599609376,0.0022125244140625,-0.161468505859375,-0.0047148605808615,-0.0039939428679645,-0.0338032357394695,150.3340301513672,-76.74449157714844,216.0668334960937
1700075064,0.98553466796875,0.000518798828125,-0.156768798828125,-0.0054592140950262,-0.0003725762362591,-0.0323326401412487,150.45111083984375,-76.77304077148438,216.6105499267578
1700075064,0.98590087890625,-0.00909423828125,-0.1515350341796875,-0.0158878862857818,0.0044330977834761,-0.023153256624937,150.48391723632812,-76.48863220214844,216.0671844482422
1700075064,0.985565185546875,-0.014312744140625,-0.1570892333984375,-0.0257817953824996,0.010054231621325,-0.0186791457235813,150.2711181640625,-76.82176208496094,216.27276611328125
1700075064,0.9919586181640624,-0.018829345703125,-0.159393310546875,-0.0372182093560695,0.0093791205435991,-0.013107013888657,150.33773803710938,-76.77877807617188,215.93991088867188
1700075064,0.989898681640625,-0.016448974609375,-0.1654815673828125,-0.0375979766249656,0.0020714066922664,-0.0117402793839573,150.4422607421875,-76.75643920898438,216.4270477294922
1700075064,0.990386962890625,-0.000762939453125,-0.1701812744140625,-0.0310444682836532,0.0003776362282223,-0.0186682268977165,150.27825927734375,-76.76275634765625,216.07369995117188
1700075064,0.991912841796875,0.014678955078125,-0.1644439697265625,-0.0087815076112747,0.000397077325033,-0.0303115658462047,150.53225708007812,-76.76365661621094,216.3915252685547
1700075064,0.99066162109375,0.015594482421875,-0.158905029296875,0.0103852627798914,0.0001749696821207,-0.032363798469305,150.43898010253906,-76.97085571289062,215.88717651367188
1700075064,0.98876953125,0.00128173828125,-0.1548919677734375,0.0088137313723564,0.0042578619904816,-0.0249101426452398,150.30206298828125,-76.82627868652344,216.37245178222656
1700075064,0.98577880859375,-0.020538330078125,-0.1589508056640625,-0.0126327043399214,0.0043417513370513,-0.0107706226408481,150.28387451171875,-76.57464599609375,216.2857208251953
1700075064,0.9825897216796876,-0.033050537109375,-0.166717529296875,-0.0206695925444364,0.0020069582387804,0.0052325790748,150.4753875732422,-76.63522338867188,216.3250274658203
1700075064,0.9797210693359376,-0.0182647705078125,-0.169464111328125,-0.0187641009688377,-0.0010535465553402,0.0066232816316187,150.35992431640625,-76.68096923828125,216.0530700683593
1700075064,0.984466552734375,0.0034332275390625,-0.1619415283203125,-0.0018658105982467,0.0037904770579189,-0.0016173376934602,150.4015655517578,-76.48764038085938,216.18394470214844
1700075064,0.9850921630859376,0.0094451904296875,-0.1561279296875,0.019495403394103,0.0056341835297644,-0.0023747407831251,150.62835693359375,-76.54641723632812,216.43609619140625
1700075064,0.983184814453125,0.000213623046875,-0.1575164794921875,0.0187968574464321,0.0108422609046101,0.0047396277077496,150.5732879638672,-76.77973937988281,216.86453247070312
1700075064,0.9833984375,-0.0171661376953125,-0.1618194580078125,0.0109397331252694,0.0084787057712674,0.0193824861198663,150.6616668701172,-76.38998413085938,216.0705108642578
1700075064,0.980316162109375,-0.0222930908203125,-0.1639556884765625,0.0005717806634493,0.0089950924739241,0.0292582865804433,150.5287628173828,-76.26698303222656,216.7655792236328
1700075064,0.9828948974609376,-0.01751708984375,-0.16552734375,0.0003182477375958,0.0064115603454411,0.0328942984342575,150.47703552246094,-76.80043029785156,216.5503845214844
1700075064,0.986907958984375,-0.0068511962890625,-0.1634674072265625,0.0098291952162981,0.0070326095446944,0.029741384088993,150.82814025878906,-76.68881225585938,216.63931274414065
1700075064,0.98797607421875,0.0035552978515625,-0.161376953125,0.0166575405746698,0.0054802526719868,0.0247961599379777,150.88450622558594,-76.50767517089844,217.0632476806641
1700075064,0.9876251220703124,0.0066986083984375,-0.1587677001953125,0.0224573723971843,0.0080411480739712,0.0231500603258609,150.75794982910156,-76.36378479003906,216.89263916015625
1700075064,0.988067626953125,0.0020294189453125,-0.1584625244140625,0.0201308336108922,0.0081703122705221,0.0269711632281541,150.75045776367188,-76.22145080566406,216.9947509765625
1700075064,0.988677978515625,-0.0015716552734375,-0.1622314453125,0.0146660283207893,0.0079276980832219,0.0294287279248237,150.83592224121094,-76.63475036621094,216.77584838867188
1700075064,0.98883056640625,-0.0037078857421875,-0.162139892578125,0.007799866143614,0.0134662743657827,0.0299749430269002,150.96385192871094,-76.30718994140625,217.3165435791016
1700075064,0.9889373779296876,-0.0106201171875,-0.1566314697265625,0.0014793860027566,0.0212365798652172,0.0345172323286533,150.90762329101562,-76.57833862304688,216.4941864013672
1700075064,0.9889068603515624,-0.0195465087890625,-0.15655517578125,0.0028578380588442,0.0161523390561342,0.0438454858958721,150.8351287841797,-76.75102233886719,216.991455078125
1700075064,0.9874420166015624,-0.009796142578125,-0.1645965576171875,-0.0054171360097825,0.0139400502666831,0.042071022093296,151.11695861816406,-76.66532897949219,217.1619567871093
1700075064,0.994537353515625,0.005035400390625,-0.16217041015625,0.002903910819441,0.0154370134696364,0.0317597948014736,151.01783752441406,-76.67994689941406,216.91737365722656
1700075065,0.9854736328125,0.015899658203125,-0.1636505126953125,0.0252829864621162,0.0116366818547248,0.0248781852424144,150.8089141845703,-76.72677612304688,217.4322204589844
1700075065,0.9832763671875,0.01446533203125,-0.1656646728515625,0.0334676802158355,0.0083932187408208,0.0205726530402898,151.09185791015625,-76.33651733398438,217.1602325439453
1700075065,0.98748779296875,0.00933837890625,-0.1638641357421875,0.031917717307806,0.0038725025951862,0.0175225343555212,151.20956420898438,-76.5682373046875,217.51193237304688
1700075065,0.9874420166015624,0.00445556640625,-0.163360595703125,0.0315291620790958,0.0050440272316336,0.0212858468294143,151.171875,-76.26545715332031,217.53038024902344
1700075065,0.984222412109375,-0.0011138916015625,-0.164031982421875,0.0263258796185255,0.0053031528368592,0.020718328654766,151.30831909179688,-76.69865417480469,217.08770751953125
1700075065,0.9825897216796876,-0.0019378662109375,-0.166595458984375,0.0164801739156246,0.0055849151685833,0.0260105617344379,151.03463745117188,-76.88038635253906,217.58946228027344
1700075065,0.98065185546875,0.006011962890625,-0.1662445068359375,0.0097506316378712,0.0027917916886508,0.0201217792928218,151.0521240234375,-76.36860656738281,217.3282470703125
1700075065,0.9789581298828124,0.00604248046875,-0.1618499755859375,0.0160500723868608,0.0077402112074196,0.0203673224896192,151.2032470703125,-76.78021240234375,217.623764038086
1700075065,0.982574462890625,7.62939453125e-05,-0.1568450927734375,0.0148103712126612,0.0090853739529848,0.0253016278147697,150.95086669921875,-76.64991760253906,217.52224731445312
1700075065,0.9910125732421876,-0.0060882568359375,-0.1584320068359375,0.0114079164341092,0.0094137415289878,0.0318234413862228,151.23773193359375,-76.85128784179688,217.27651977539065
1700075065,0.9903411865234376,-0.006134033203125,-0.160888671875,0.0101847266778349,0.0105610312893986,0.0355220399796962,150.92042541503906,-76.9715576171875,217.0423278808593
1700075065,0.988006591796875,-0.004180908203125,-0.160919189453125,0.0111639713868498,0.0115823540836572,0.0386118404567241,151.1687774658203,-76.84226989746094,217.2591552734375
1700075065,0.986175537109375,0.001922607421875,-0.1659698486328125,0.0118718398734927,0.0099402489140629,0.0353305600583553,151.22650146484375,-77.114013671875,217.5256500244141
1700075065,0.9868621826171876,0.009063720703125,-0.16357421875,0.0202546715736389,0.0097743337973952,0.0352746322751045,151.26895141601562,-76.95014953613281,217.2747802734375
1700075065,0.9831390380859376,0.0099334716796875,-0.1607208251953125,0.0280561354011297,0.0106510464102029,0.0294508337974548,151.23513793945312,-76.764892578125,217.8319396972656
1700075065,0.9821014404296876,0.0034332275390625,-0.16168212890625,0.0257610231637954,0.0042778356000781,0.0307422000914812,151.0658416748047,-76.81611633300781,217.78976440429688
1700075065,0.9880218505859376,0.0004119873046875,-0.168701171875,0.0188418645411729,-0.001546763931401,0.0314652472734451,151.33457946777344,-76.73185729980469,217.7633514404297
1700075065,0.995208740234375,0.0078582763671875,-0.1709442138671875,0.0224363338202238,-0.003803260391578,0.0242547392845153,151.3822479248047,-76.74702453613281,217.7595977783203
1700075065,0.997100830078125,0.016510009765625,-0.165924072265625,0.0299925208091735,-0.0052051483653485,0.0177640840411186,150.8558349609375,-76.6956787109375,217.87503051757807
1700075065,0.9906768798828124,0.02020263671875,-0.161224365234375,0.0362948924303054,-0.0059609534218907,0.009517072699964,151.09735107421875,-76.78450012207031,217.72024536132807
1700075065,0.9871063232421876,0.0125274658203125,-0.160980224609375,0.0335907153785228,-0.0093809850513935,0.0073327478021383,150.91543579101562,-76.46351623535156,218.15367126464844
1700075065,0.985107421875,0.0057220458984375,-0.1628265380859375,0.0232778917998075,-0.009205749258399,0.0064933192916214,150.88401794433594,-76.91844177246094,217.80581665039065
1700075065,0.9847564697265624,0.0030975341796875,-0.1649017333984375,0.0148436604067683,-0.0171595457941293,0.0056277918629348,150.99172973632812,-76.75177001953125,217.75621032714844
1700075065,0.9856414794921876,0.0077362060546875,-0.17291259765625,0.014381069689989,-0.0242739133536815,-0.0042916839011013,150.90463256835938,-77.04608154296875,217.9691467285156
1700075065,0.9898834228515624,0.0181121826171875,-0.1728668212890625,0.0191736947745084,-0.0324713885784149,-0.0136012965813279,151.09637451171875,-76.88621520996094,217.9452362060547
1700075065,0.9891510009765624,0.0248565673828125,-0.1717376708984375,0.0334170795977115,-0.0409213341772556,-0.0254571568220853,151.25726318359375,-76.77040100097656,217.4981384277344
1700075065,0.9881134033203124,0.02557373046875,-0.1650543212890625,0.0384395346045494,-0.0409804545342922,-0.0343385338783264,151.1201629638672,-77.05316162109375,217.52003479003903
1700075065,0.99169921875,0.0157928466796875,-0.1560516357421875,0.039296805858612,-0.036734577268362,-0.0316924154758453,151.2112579345703,-77.02182006835938,217.71031188964844
1700075065,0.9926910400390624,0.0073089599609375,-0.1567535400390625,0.032714270055294,-0.0396241098642349,-0.0332524962723255,151.27259826660156,-77.11842346191406,217.7540283203125
1700075065,0.9937286376953124,0.0012664794921875,-0.1613311767578125,0.0175489000976085,-0.0432539954781532,-0.0293514970690011,151.3144073486328,-77.18824768066406,217.60040283203125
1700075065,0.9928436279296876,0.0016326904296875,-0.163787841796875,0.0216733366250991,-0.0484849773347377,-0.031670045107603,151.08694458007812,-77.46397399902344,217.7046813964844
1700075065,0.9918670654296876,0.0079498291015625,-0.1658477783203125,0.0364197939634323,-0.0543324798345565,-0.0344240218400955,151.26962280273438,-77.46136474609375,217.6801605224609
1700075065,0.9927215576171876,0.0183258056640625,-0.16607666015625,0.068453624844551,-0.0600838437676429,-0.0438566692173481,151.50242614746094,-77.45228576660156,217.57647705078125
1700075065,0.990386962890625,0.0164642333984375,-0.1588897705078125,0.0824701115489006,-0.0587493330240249,-0.0452790632843971,151.47845458984375,-77.49137878417969,217.5203094482422
1700075065,0.9871673583984376,0.00286865234375,-0.154449462890625,0.0829047337174415,-0.0583993941545486,-0.0332554243505001,151.75387573242188,-77.70515441894531,218.07310485839844
1700075065,0.9805450439453124,-0.00927734375,-0.1607208251953125,0.0710898861289024,-0.059253204613924,-0.0299224779009819,151.63504028320312,-77.87834167480469,217.8548889160156
1700075065,0.9804534912109376,-0.011993408203125,-0.156280517578125,0.0515771731734275,-0.0492338575422763,-0.0200528036803007,151.7283477783203,-77.90237426757812,217.7262725830078
1700075065,0.9805450439453124,-0.001007080078125,-0.143157958984375,0.03506850451231,-0.0366325788199901,-0.0170106757432222,151.62400817871094,-77.60745239257812,217.94674682617188
1700075065,0.982666015625,0.0059814453125,-0.137481689453125,0.0238251723349094,-0.0266313441097736,-0.0188242886215448,151.3822021484375,-77.74559020996094,218.13385009765625
1700075065,0.987548828125,-0.0020599365234375,-0.135345458984375,0.0009302421822212,-0.0153153063729405,-0.0131978271529078,151.5294952392578,-77.64019775390625,217.84523010253903
1700075065,0.98724365234375,-0.0113067626953125,-0.1399383544921875,-0.0182362608611583,-0.0144764110445976,-0.0012010856298729,151.4199981689453,-77.88360595703125,217.6049194335937
1700075065,0.9868927001953124,-0.0060577392578125,-0.1546173095703125,-0.0195787604898214,-0.0176738016307353,0.0017880463274195,151.34239196777344,-77.94570922851562,217.92672729492188
1700075065,0.9896087646484376,0.0015106201171875,-0.159881591796875,-0.0077908113598823,-0.0189734250307083,-0.0011512845521792,151.46575927734375,-77.74336242675781,217.75198364257807
1700075065,0.98876953125,0.0013427734375,-0.156646728515625,0.0110585102811455,-0.0248968284577131,0.0016945693641901,151.20919799804688,-77.60810852050781,217.31455993652344
1700075065,0.9872589111328124,0.0009918212890625,-0.164276123046875,0.0196605194360017,-0.0328801870346069,0.0037521275226026,151.20220947265625,-77.825439453125,217.4366607666016
1700075065,0.98968505859375,0.0001983642578125,-0.1627197265625,0.0224943906068801,-0.0267402678728103,0.0121280355378985,151.22149658203125,-77.89498901367188,217.49497985839844
1700075065,0.984344482421875,-0.0025634765625,-0.1580352783203125,0.0321483500301837,-0.0325238555669784,0.0215886496007442,151.2127227783203,-77.42637634277344,217.44009399414065
1700075065,0.9818115234375,-0.003143310546875,-0.1576385498046875,0.0293219368904829,-0.0300116948783397,0.026509903371334,151.67575073242188,-77.74754333496094,216.704345703125
1700075065,0.982940673828125,-0.0007781982421875,-0.1474151611328125,0.0280769076198339,-0.0214925091713666,0.0362940914928913,151.43275451660156,-77.62236022949219,216.98667907714844
1700075065,0.9810638427734376,-0.0041656494140625,-0.1374053955078125,0.023478427901864,-0.0088808434084057,0.0442287139594554,151.12448120117188,-77.777099609375,216.76220703125
1700075065,0.978973388671875,-0.010101318359375,-0.13775634765625,0.0112214954569935,-0.0040911482647061,0.0550067946314811,151.41175842285156,-77.69068908691406,216.97085571289065
1700075065,0.984161376953125,-0.0105133056640625,-0.1391143798828125,-0.0046123284846544,0.0014586133183911,0.0616455227136611,151.310302734375,-77.3544921875,217.49417114257807
1700075065,0.9885406494140624,-0.00531005859375,-0.1449127197265625,-0.0027553064282983,0.0039484025910496,0.0635286420583725,151.16957092285156,-77.32542419433594,217.18446350097656
1700075065,0.9912261962890624,0.0036468505859375,-0.1508026123046875,-0.0008905610884539,-0.0045811696909368,0.0600156672298908,151.4297637939453,-77.47280883789062,217.1488037109375
1700075065,0.9934234619140624,0.01251220703125,-0.152313232421875,0.0054911719635128,-0.0031513185240328,0.0517774447798728,151.3256378173828,-77.63726806640625,217.3224029541016
1700075065,0.9922027587890624,0.01953125,-0.152679443359375,0.0130968932062387,-0.0074917385354638,0.0487789921462535,151.4429473876953,-77.7772216796875,217.0561065673828
1700075065,0.990692138671875,0.0186309814453125,-0.1563568115234375,0.0221598967909812,-0.0143456496298313,0.0478410236537456,151.32908630371094,-77.68904113769531,217.41900634765625
1700075065,0.99163818359375,0.017333984375,-0.15753173828125,0.0278936829417943,-0.0147408628836274,0.0438875630497932,151.66421508789062,-77.55070495605469,217.2520904541016
1700075065,0.992584228515625,0.0173492431640625,-0.152099609375,0.0331734009087085,-0.0123919546604156,0.045024998486042,151.0370635986328,-78.005859375,217.6173095703125
1700075065,0.9882659912109376,0.0114288330078125,-0.148773193359375,0.0391053259372711,-0.0117333550006151,0.0463581755757331,151.20907592773438,-78.08209228515625,217.33282470703125
1700075065,0.9835052490234376,0.00225830078125,-0.1479644775390625,0.034905519336462,-0.0096994992345571,0.0569021664559841,151.3519287109375,-78.06434631347656,217.3287048339844
1700075065,0.9841766357421876,-0.0020904541015625,-0.14892578125,0.0321310386061668,-0.0070027820765972,0.0647164136171341,151.2760009765625,-78.09602355957031,217.46958923339844
1700075065,0.9852294921875,-0.0002593994140625,-0.1493682861328125,0.0301243457943201,-0.0044754422269761,0.0669553279876709,151.45977783203125,-77.96946716308594,217.3069610595703
1700075065,0.9857025146484376,0.0038604736328125,-0.1450653076171875,0.0227860063314437,0.0009925601771101,0.0689132884144783,151.43978881835938,-78.28071594238281,217.2213897705078
1700075065,0.9862060546875,0.0020599365234375,-0.1399383544921875,0.0085026742890477,0.0017126789316534,0.0763408467173576,151.19528198242188,-78.16020202636719,217.2170867919922
1700075065,0.98785400390625,0.00164794921875,-0.14727783203125,-0.0001523328101029,0.0011717908782884,0.0786705762147903,151.12213134765625,-78.14949035644531,217.4979248046875
1700075065,0.9928131103515624,0.008514404296875,-0.1527252197265625,-0.004504204262048,0.0014495585346594,0.0768223404884338,151.64268493652344,-78.55807495117188,217.21511840820312
1700075065,0.9925384521484376,0.031005859375,-0.1528778076171875,0.0163044054061174,-0.0049614692106842,0.0606966353952884,151.23788452148438,-78.55989074707031,217.13819885253903
1700075065,0.9893951416015624,0.0478668212890625,-0.14898681640625,0.0438814386725425,-0.0068837385624647,0.043546412140131,151.418701171875,-78.7418212890625,217.762435913086
1700075065,0.98602294921875,0.0453338623046875,-0.1439056396484375,0.0489885807037353,-0.0063103600405156,0.0311675071716308,151.6079559326172,-78.96878051757812,217.43426513671875
1700075065,0.98809814453125,0.0289154052734375,-0.145294189453125,0.0330136083066463,-0.0049255164340138,0.0314870849251747,151.48257446289062,-78.7276611328125,217.5779724121093
1700075065,0.9940338134765624,0.014495849609375,-0.155242919921875,0.016838900744915,-0.0136995669454336,0.0319198481738567,151.3286590576172,-78.72434997558594,217.562240600586
1700075065,0.996246337890625,0.013946533203125,-0.162811279296875,0.0091101415455341,-0.0188892688602209,0.030841002240777,151.34019470214844,-78.91802978515625,217.5053100585937
1700075065,0.9925689697265624,0.019805908203125,-0.1546783447265625,0.0159680470824241,-0.0172010902315378,0.0278052650392055,151.37258911132812,-78.37342834472656,217.536849975586
1700075065,0.9853668212890624,0.0184783935546875,-0.1492156982421875,0.0310892090201377,-0.0179499723017215,0.0307224933058023,151.33230590820312,-78.62022399902344,216.93067932128903
1700075065,0.9834136962890624,0.0178375244140625,-0.1510009765625,0.0343987196683883,-0.0177670121192932,0.0353713072836399,151.37037658691406,-78.64170837402344,217.60704040527344
1700075065,0.9886322021484376,0.0164337158203125,-0.1427764892578125,0.0425703637301921,-0.0135640120133757,0.0405679307878017,151.40240478515625,-78.964599609375,217.2928771972656
1700075065,0.9904327392578124,0.01312255859375,-0.1447296142578125,0.0457270070910453,-0.0110220247879624,0.0459123626351356,151.3855438232422,-78.77751159667969,217.09947204589844
1700075065,0.9891815185546876,0.01605224609375,-0.1459808349609375,0.0430955402553081,-0.0064198160544037,0.0476474128663539,151.4728546142578,-78.87821960449219,217.19918823242188
1700075065,0.9868927001953124,0.0140228271484375,-0.1408538818359375,0.035238679498434,-0.0047481497749686,0.0535055696964263,151.484619140625,-79.24583435058594,217.4537506103516
1700075065,0.983367919921875,0.012969970703125,-0.1439208984375,0.0258129555732011,-0.0044128578156232,0.0561349093914032,151.1400909423828,-78.84950256347656,217.4310302734375
1700075065,0.988067626953125,0.0178680419921875,-0.1410980224609375,0.0252880454063415,0.0006431533838622,0.0552462115883827,151.33026123046875,-78.93844604492188,217.44178771972656
1700075065,0.98895263671875,0.023101806640625,-0.142303466796875,0.0297501720488071,-0.0001944107643794,0.0555436871945858,151.15049743652344,-79.20643615722656,217.2950897216797
1700075065,0.987274169921875,0.030181884765625,-0.148773193359375,0.0291216671466827,-0.0048019457608461,0.0476402230560779,151.4603729248047,-78.97955322265625,217.22802734375
1700075065,0.9914398193359376,0.0306396484375,-0.1495513916015625,0.0285900998860597,-0.002936135046184,0.0437024720013141,150.9207305908203,-78.95294189453125,217.0132751464844
1700075065,0.9942779541015624,0.0244598388671875,-0.147003173828125,0.0326658003032207,-0.0085657909512519,0.0445307157933712,151.33740234375,-79.19007873535156,217.4889068603516
1700075065,0.9930877685546876,0.02825927734375,-0.15625,0.0315898843109607,-0.0174096170812845,0.0383258163928985,151.33656311035156,-79.34465026855469,217.4446563720703
1700075065,0.994964599609375,0.039306640625,-0.151153564453125,0.0396781712770462,-0.0141914524137973,0.0316940136253833,151.30690002441406,-79.19442749023438,217.6619873046875
1700075065,0.9898223876953124,0.03948974609375,-0.14373779296875,0.048029575496912,-0.0132577484473586,0.0299901235848665,151.49549865722656,-79.01052856445312,217.6297302246093
1700075065,0.9810943603515624,0.028594970703125,-0.1441192626953125,0.0443224571645259,-0.0081082601100206,0.0379468500614166,151.1719970703125,-79.13919067382812,217.5211639404297
1700075065,0.979736328125,0.0154571533203125,-0.1430206298828125,0.0254299920052289,-0.0091961612924933,0.0445730611681938,151.24440002441406,-79.22610473632812,217.3417053222656
1700075065,0.981048583984375,0.012451171875,-0.1468353271484375,0.0144710848107934,-0.006442985497415,0.0460974536836147,151.15625,-79.51419067382812,217.31056213378903
1700075065,0.9878387451171876,0.0162811279296875,-0.147064208984375,0.0195920765399932,-0.0069617694243788,0.0438572019338607,151.50042724609375,-79.37705993652344,217.0298614501953
1700075065,0.9913330078125,0.0237884521484375,-0.1454315185546875,0.0304095707833766,-0.0071050473488867,0.0441394969820976,151.51708984375,-79.11199951171875,217.24481201171875
1700075065,0.9893951416015624,0.0347137451171875,-0.1466522216796875,0.0357662513852119,-0.0116859506815671,0.0397133231163024,151.38755798339844,-79.3446044921875,217.53309631347656
1700075065,0.9889984130859376,0.040740966796875,-0.1427001953125,0.0321198515594005,-0.0078342212364077,0.0352402776479721,151.39886474609375,-79.27912902832031,217.023178100586
1700075065,0.988128662109375,0.0384674072265625,-0.1371917724609375,0.0262752790004014,-0.0008711199625395,0.0347550511360168,151.36143493652344,-79.35984802246094,217.600341796875
1700075065,0.98748779296875,0.033935546875,-0.141754150390625,0.0152596468105912,-0.006720220670104,0.0374917164444923,151.04835510253906,-79.31660461425781,216.9750213623047
1700075065,0.9903717041015624,0.0262908935546875,-0.1451568603515625,0.0030160299502313,-0.0050906324759125,0.0409421063959598,151.22218322753906,-79.43258666992188,217.27554321289065
1700075066,0.98760986328125,0.0264129638671875,-0.148956298828125,0.0044349622912704,-0.0061178137548267,0.0392661802470684,151.4424591064453,-79.79937744140625,217.6131591796875
1700075066,0.9870147705078124,0.0267791748046875,-0.1462860107421875,0.0068224859423935,-0.0007544735562987,0.0389529913663864,151.3603515625,-79.66029357910156,217.1895294189453
1700075066,0.9884033203125,0.0235595703125,-0.1443023681640625,0.0046416232362389,-0.0070997211150825,0.0407745949923992,151.39889526367188,-79.637939453125,217.19097900390625
1700075066,0.9905853271484376,0.0287322998046875,-0.15032958984375,0.0176764652132987,-0.0075476649217307,0.0384840108454227,151.4679412841797,-79.39097595214844,217.0281982421875
1700075066,0.9945220947265624,0.033843994140625,-0.146636962890625,0.0224491171538829,-0.0077543258666992,0.038974829018116,151.140869140625,-79.66748046875,217.7536773681641
1700075066,0.9898529052734376,0.0391082763671875,-0.140350341796875,0.0303872004151344,-0.0074552530422806,0.0382547117769718,151.42123413085938,-79.49887084960938,217.6282196044922
1700075066,0.986419677734375,0.0416412353515625,-0.1403656005859375,0.0312042590230703,-0.0065955845639109,0.0339478477835655,151.31399536132812,-79.12309265136719,217.7517242431641
1700075066,0.987396240234375,0.040313720703125,-0.1377716064453125,0.0276124533265829,-0.0010085391113534,0.0352754332125186,151.35049438476562,-79.12132263183594,217.7895965576172
1700075066,0.9869232177734376,0.036285400390625,-0.1399993896484375,0.017913220450282,-0.005853627808392,0.0291719995439052,151.2836151123047,-79.15620422363281,217.35107421875
1700075066,0.9893646240234376,0.0317230224609375,-0.14312744140625,0.0176746007055044,-0.002053297124803,0.0284114014357328,151.42347717285156,-79.34080505371094,217.79454040527344
1700075066,0.992767333984375,0.03277587890625,-0.1483306884765625,0.0140495058149099,-0.0100070936605334,0.0291549563407897,151.51129150390625,-78.98774719238281,217.71112060546875
1700075066,0.9925994873046876,0.0396575927734375,-0.147918701171875,0.0193747635930776,-0.0096201365813612,0.0225846711546182,151.64306640625,-79.21080017089844,217.4597320556641
1700075066,0.9910736083984376,0.0415802001953125,-0.144195556640625,0.0249349102377891,-0.0114707676693797,0.0153930708765983,151.379150390625,-79.34333801269531,217.35304260253903
1700075066,0.987030029296875,0.0418853759765625,-0.1459197998046875,0.0276923477649688,-0.0157083887606859,0.01281273458153,151.4038543701172,-79.32064819335938,217.1098480224609
1700075066,0.9890899658203124,0.0403594970703125,-0.143218994140625,0.0250201318413019,-0.0172604788094759,0.0103349294513463,151.25115966796875,-78.7655029296875,217.4947052001953
1700075066,0.98834228515625,0.037384033203125,-0.1438140869140625,0.0244720540940761,-0.01587457023561,0.0108454572036862,151.10162353515625,-79.25048828125,217.4955902099609
1700075066,0.9870758056640624,0.038482666015625,-0.146453857421875,0.0230989269912242,-0.0184418577700853,0.0083439499139785,151.42237854003906,-79.13600158691406,217.24575805664065
1700075066,0.987060546875,0.03997802734375,-0.1421661376953125,0.0189742241054773,-0.0181731451302766,0.0076898774132132,151.51242065429688,-79.1123046875,217.604248046875
1700075066,0.9850311279296876,0.040374755859375,-0.1413726806640625,0.0136889144778251,-0.0140114231035113,0.0054850466549396,151.4462127685547,-79.0050048828125,217.73403930664065
1700075066,0.98773193359375,0.0391082763671875,-0.13970947265625,0.0109908655285835,-0.0149752208963036,0.0069785472005605,150.95062255859375,-79.24693298339844,217.736328125
1700075066,0.990081787109375,0.0348052978515625,-0.140625,0.0063060992397367,-0.0166074726730585,0.0052051483653485,151.035400390625,-79.10617065429688,217.2746124267578
1700075066,0.9944000244140624,0.030731201171875,-0.14312744140625,0.0053215282969176,-0.020341757684946,0.0057002301327884,151.3455352783203,-78.88165283203125,217.19656372070312
1700075066,0.9956207275390624,0.0351715087890625,-0.148773193359375,0.0086044073104858,-0.0246267821639776,-0.0015211976133286,151.08924865722656,-79.13304138183594,217.82872009277344
1700075066,0.9963531494140624,0.0434722900390625,-0.1466217041015625,0.0214576218277215,-0.0247732568532228,-0.0048613343387842,151.36077880859375,-78.7371826171875,217.52828979492188
1700075066,0.9954071044921876,0.0477142333984375,-0.1379241943359375,0.0338953807950019,-0.0229519214481115,-0.006082393694669,151.01605224609375,-79.04385375976562,217.3094024658203
1700075066,0.9902191162109376,0.044586181640625,-0.1360931396484375,0.0370903760194778,-0.0221766754984855,-0.0062507055699825,151.4109649658203,-78.79106140136719,217.4224548339844
1700075066,0.985260009765625,0.04034423828125,-0.137054443359375,0.0350205674767494,-0.0184410586953163,-0.0011038802331313,151.4353790283203,-78.85089111328125,217.7128295898437
1700075066,0.9790802001953124,0.0347900390625,-0.1358642578125,0.0238736402243375,-0.0153358131647109,0.0019757992122322,150.94610595703125,-78.69676208496094,217.466064453125
1700075066,0.9775390625,0.02667236328125,-0.13641357421875,0.0164362303912639,-0.0138042289763689,0.00836365763098,151.281982421875,-79.01390075683594,216.9683990478516
1700075066,0.9816741943359376,0.027679443359375,-0.143646240234375,0.0037590519059449,-0.0182455834001302,0.0088677937164902,150.8217010498047,-78.5755615234375,217.5098571777344
1700075066,0.9908905029296876,0.036773681640625,-0.141265869140625,0.0118601210415363,-0.0169938970357179,0.0032977922819554,150.77366638183594,-78.23892211914062,216.7547912597656
1700075066,0.9932708740234376,0.0426483154296875,-0.139251708984375,0.0212887767702341,-0.01707698777318,0.0004316983977332,151.01516723632812,-78.28204345703125,217.32456970214844
1700075066,0.9923248291015624,0.044769287109375,-0.1389007568359375,0.0274020638316869,-0.0218613557517528,-0.0068435249850153,151.12136840820312,-78.524169921875,216.9831085205078
1700075066,0.994171142578125,0.0411529541015625,-0.1370697021484375,0.0263450536876916,-0.0198152493685483,-0.0038128476589918,151.2864532470703,-78.30499267578125,217.49452209472656
1700075066,0.993255615234375,0.0351104736328125,-0.1368255615234375,0.027687020599842,-0.0211979635059833,-0.0024367924779653,151.08285522460938,-78.34663391113281,217.2260589599609
1700075066,0.988555908203125,0.0349578857421875,-0.1395721435546875,0.024442758411169,-0.0216264650225639,-0.0022860574536025,151.09539794921875,-78.53602600097656,217.3099060058593
1700075066,0.98553466796875,0.03497314453125,-0.1359710693359375,0.0124694528058171,-0.0188983231782913,-0.0003699130611494,151.62112426757812,-78.53427124023438,217.74305725097656
1700075066,0.9827117919921876,0.0345611572265625,-0.13671875,0.0165859013795852,-0.0185316056013107,0.0021723404061049,151.25732421875,-78.79399108886719,217.1968688964844
1700075066,0.9860076904296876,0.034271240234375,-0.1394500732421875,0.0168428961187601,-0.0209316462278366,0.0020037624053657,151.0460662841797,-78.55049133300781,217.38006591796875
1700075066,0.9885406494140624,0.039764404296875,-0.13641357421875,0.0168503522872924,-0.0199516043066978,0.002487126039341,151.14190673828125,-78.33828735351562,217.36444091796875
1700075066,0.9896240234375,0.0421142578125,-0.1333770751953125,0.020806211978197,-0.0195875503122806,-0.0058989017270505,151.25186157226562,-78.56730651855469,217.51123046875
1700075066,0.9885406494140624,0.0428924560546875,-0.137664794921875,0.017806427553296,-0.0195531956851482,-0.0096022933721542,151.16542053222656,-78.07330322265625,217.63766479492188
1700075066,0.991607666015625,0.042236328125,-0.1331024169921875,0.0092084119096398,-0.0173305198550224,-0.0118721053004264,150.92738342285156,-78.06649780273438,217.17886352539065
1700075066,0.9920196533203124,0.038421630859375,-0.13348388671875,0.0038349519018083,-0.0197273660451173,-0.012637497857213,151.299072265625,-78.27035522460938,218.16949462890625
1700075066,0.9903717041015624,0.0358123779296875,-0.135986328125,-0.0088020134717226,-0.0192226972430944,-0.0090377032756805,151.23495483398438,-78.30514526367188,218.1144256591797
1700075066,0.989044189453125,0.0352630615234375,-0.1338958740234375,-0.0110334763303399,-0.024180170148611,-0.0113181686028838,151.4847412109375,-78.37980651855469,218.0484313964844
1700075066,0.98748779296875,0.040130615234375,-0.1384429931640625,-0.0136793265119194,-0.0249010883271694,-0.015720373019576,151.20091247558594,-78.30862426757812,217.7364501953125
1700075066,0.99468994140625,0.044586181640625,-0.1370391845703125,-0.004555070772767,-0.0282058045268058,-0.023505326360464,150.98770141601562,-78.32638549804688,217.7345733642578
1700075066,0.99810791015625,0.04718017578125,-0.138824462890625,0.0105615640059113,-0.0306761525571346,-0.0264475867152214,151.49755859375,-78.4154052734375,218.3087310791016
1700075066,0.9968414306640624,0.04852294921875,-0.1392669677734375,0.0282276440411806,-0.0342565067112445,-0.0323446244001388,151.4452362060547,-78.25921630859375,217.9932403564453
1700075066,0.99176025390625,0.043121337890625,-0.1356658935546875,0.0401253141462802,-0.0333965718746185,-0.0280617289245128,151.29672241210938,-78.2940673828125,218.294662475586
1700075066,0.986785888671875,0.0322723388671875,-0.130035400390625,0.0436031371355056,-0.0316047966480255,-0.0204927586019039,151.5799102783203,-78.05435180664062,217.61520385742188
1700075066,0.9864654541015624,0.020050048828125,-0.1319732666015625,0.0340567715466022,-0.0330109484493732,-0.0159920156002044,151.37213134765625,-78.42268371582031,217.9755401611328
1700075066,0.993804931640625,0.0187835693359375,-0.131927490234375,0.0163238458335399,-0.0294713396579027,-0.008519984781742,151.20115661621094,-78.02285766601562,218.0762481689453
1700075066,0.99493408203125,0.032440185546875,-0.12957763671875,0.0173326507210731,-0.0268806163221597,-0.0115472003817558,151.34461975097656,-78.18217468261719,217.6896209716797
1700075066,0.9924163818359376,0.0416412353515625,-0.1242218017578125,0.0184357333928346,-0.0234683081507682,-0.0123962154611945,151.3339080810547,-78.36190795898438,217.74864196777344
1700075066,0.9903106689453124,0.0437164306640625,-0.123138427734375,0.0217023659497499,-0.02248240634799,-0.012983176857233,151.56521606445312,-78.22772216796875,217.6488800048828
1700075066,0.989959716796875,0.0386962890625,-0.126068115234375,0.0183425210416317,-0.0277432147413492,-0.0083956150338053,151.66603088378906,-78.05567932128906,218.14463806152344
1700075066,0.9898681640625,0.0358734130859375,-0.1334381103515625,0.0136537607759237,-0.027942419052124,-0.0121096596121788,151.2742462158203,-78.05296325683594,217.67002868652344
1700075066,0.9902496337890624,0.036865234375,-0.1300811767578125,0.0221335310488939,-0.0279309675097465,-0.0137368515133857,151.57870483398438,-78.24696350097656,218.1902770996093
1700075066,0.989959716796875,0.034454345703125,-0.1318359375,0.0296218078583478,-0.0295850560069084,-0.0142441829666495,151.61819458007812,-78.472412109375,217.73291015625
1700075066,0.9903106689453124,0.0354156494140625,-0.1329498291015625,0.0305706914514303,-0.0318498089909553,-0.0130681311711668,151.384521484375,-78.53932189941406,218.18215942382807
1700075066,0.9931182861328124,0.0330657958984375,-0.13238525390625,0.0271344147622585,-0.0354991368949413,-0.0099754026159644,151.4310302734375,-78.13507080078125,218.08580017089844
1700075066,0.9921722412109376,0.03338623046875,-0.137115478515625,0.0309757590293884,-0.0407290533185005,-0.0103069655597209,151.48313903808594,-78.28173828125,218.36041259765625
1700075066,0.99560546875,0.03472900390625,-0.1355438232421875,0.029708893969655,-0.0434257723391056,-0.0121059315279126,151.76669311523438,-78.08070373535156,217.68739318847656
1700075066,0.9930572509765624,0.0337677001953125,-0.1352386474609375,0.0358296371996402,-0.0473579280078411,-0.0146220857277512,151.63385009765625,-78.04600524902344,217.81948852539065
1700075066,0.9921875,0.033905029296875,-0.1342620849609375,0.039904274046421,-0.0526733323931694,-0.015124624595046,151.65557861328125,-78.20301818847656,218.5357666015625
1700075066,0.9936065673828124,0.0339813232421875,-0.129974365234375,0.039666187018156,-0.0518261790275573,-0.0133661394938826,152.25218200683594,-78.03317260742188,218.31106567382807
1700075066,0.994537353515625,0.033416748046875,-0.1272125244140625,0.0382214225828647,-0.0551825612783432,-0.0113432016223669,151.43399047851562,-77.93826293945312,218.58102416992188
1700075066,0.9932403564453124,0.036956787109375,-0.1270751953125,0.0387948006391525,-0.0557093359529972,-0.0186333395540714,152.07290649414062,-78.0950927734375,218.13023376464844
1700075066,0.99322509765625,0.0384979248046875,-0.1240692138671875,0.0399029403924942,-0.0562142692506313,-0.0133365783840417,151.38624572753906,-78.00364685058594,218.4200592041016
1700075066,0.99261474609375,0.0399017333984375,-0.1224365234375,0.0434084609150886,-0.0521457605063915,-0.0141491089016199,151.52926635742188,-77.54591369628906,218.0116271972656
1700075066,0.9879150390625,0.038604736328125,-0.122894287109375,0.0430326871573925,-0.0561817809939384,-0.0113629093393683,151.47735595703125,-77.37261962890625,218.0086975097656
1700075066,0.9834747314453124,0.03143310546875,-0.1179656982421875,0.0327797830104827,-0.0497491806745529,-0.0030277478508651,151.55950927734375,-77.6778564453125,218.57101440429688
1700075066,0.98162841796875,0.0221099853515625,-0.116363525390625,0.0273131132125854,-0.0471214391291141,0.0064357952214777,151.8714141845703,-77.47871398925781,218.58663940429688
1700075066,0.987060546875,0.0190277099609375,-0.1247100830078125,0.0220826659351587,-0.0538392625749111,0.0162593964487314,151.60365295410156,-77.74288940429688,218.7926025390625
1700075066,0.99346923828125,0.0261383056640625,-0.126922607421875,0.0258845947682857,-0.0541905350983142,0.0154383443295955,151.87998962402344,-77.33320617675781,218.4893341064453
1700075066,0.990478515625,0.03240966796875,-0.1244964599609375,0.0361566729843616,-0.0532507039606571,0.0169329103082418,151.7044677734375,-77.34458923339844,217.83712768554688
1700075066,0.988616943359375,0.0276031494140625,-0.1190185546875,0.0375340580940246,-0.0555964149534702,0.0232784245163202,151.65476989746094,-77.57965087890625,218.4588317871093
1700075066,0.99639892578125,0.0222015380859375,-0.1216888427734375,0.0429613143205642,-0.0635451525449752,0.0305113028734922,151.37548828125,-77.32742309570312,218.4816131591797
1700075066,1.0009765625,0.0317840576171875,-0.1284332275390625,0.051067978143692,-0.0639707297086715,0.0257234722375869,151.7467041015625,-77.28997802734375,218.1871032714844
1700075066,0.9997100830078124,0.0440216064453125,-0.1208038330078125,0.0688152834773063,-0.0645616799592971,0.0231114439666271,151.68795776367188,-77.15977478027344,218.0973358154297
1700075066,0.9900054931640624,0.04925537109375,-0.113739013671875,0.0844429805874824,-0.0634889602661132,0.0239492747932672,151.7461395263672,-77.36798095703125,218.1230316162109
1700075066,0.98956298828125,0.0418853759765625,-0.1139373779296875,0.0861370116472244,-0.063618391752243,0.0276558622717857,151.34820556640625,-77.10237121582031,218.24205017089844
1700075066,0.987945556640625,0.03173828125,-0.11407470703125,0.0807204097509384,-0.0596955530345439,0.0334538295865058,151.4151611328125,-77.03633117675781,218.50933837890625
1700075066,0.986328125,0.023773193359375,-0.1126556396484375,0.0703135803341865,-0.0572513043880462,0.0466322153806686,151.6880645751953,-77.08316040039062,218.2440490722656
1700075066,0.98870849609375,0.02301025390625,-0.113128662109375,0.058069959282875,-0.0579549111425876,0.0552312992513179,151.7022247314453,-77.06130981445312,218.0287628173828
1700075066,0.99591064453125,0.0278472900390625,-0.11273193359375,0.0592441484332084,-0.0529702752828598,0.0628902837634086,151.71017456054688,-76.93104553222656,218.69288635253903
1700075066,0.994873046875,0.0341339111328125,-0.1091766357421875,0.0625533908605575,-0.0538155622780323,0.0755070075392723,151.69126892089844,-77.17741394042969,218.5850372314453
1700075066,0.990264892578125,0.03729248046875,-0.108612060546875,0.0797289162874221,-0.0513185821473598,0.0936418026685714,151.39830017089844,-76.83486938476562,218.6963653564453
1700075066,0.9844970703125,0.03515625,-0.110015869140625,0.1057621166110038,-0.0392813608050346,0.1166834756731987,151.36166381835938,-77.34326171875,218.1912078857422
1700075066,0.979705810546875,0.0319061279296875,-0.106964111328125,0.122156798839569,-0.027785824611783,0.1545339226722717,151.54959106445312,-76.80033874511719,218.6705017089844
1700075066,0.9754638671875,0.0311279296875,-0.0923004150390625,0.1227368414402008,-0.0052632051520049,0.2031126320362091,151.62271118164062,-76.8875732421875,219.0203857421875
1700075066,0.9676513671875,0.022918701171875,-0.0811309814453125,0.1402425915002823,0.024336764588952,0.2588347494602203,151.54856872558594,-76.70982360839844,218.6789093017578
1700075066,0.967498779296875,-0.0029754638671875,-0.0717620849609375,0.1810765713453292,0.0662181675434112,0.3276934623718261,151.64443969726562,-76.56109619140625,218.44754028320312
1700075066,0.9715118408203124,-0.031707763671875,-0.0655059814453125,0.2179072946310043,0.1096948087215423,0.3958812952041626,151.27349853515625,-76.18734741210938,218.48147583007807
1700075066,0.984954833984375,-0.0525970458984375,-0.0702972412109375,0.2458630353212356,0.1579616665840149,0.4635977447032928,151.28726196289062,-76.61531066894531,218.2488708496093
1700075066,1.00262451171875,-0.0702056884765625,-0.080963134765625,0.2556424140930176,0.215015098452568,0.5252110362052917,151.67274475097656,-76.50880432128906,218.7683258056641
1700075066,1.02520751953125,-0.0959320068359375,-0.081329345703125,0.2679755091667175,0.2517917454242706,0.6157193779945374,151.82568359375,-76.26313781738281,218.308837890625
1700075066,1.0372772216796875,-0.1099395751953125,-0.0669097900390625,0.258554071187973,0.2779682278633117,0.7320520877838135,152.14561462402344,-76.51188659667969,218.5932464599609
1700075067,1.042266845703125,-0.0900115966796875,-0.0831298828125,0.3600639104843139,0.3199471235275268,0.794538140296936,151.80323791503906,-76.48323059082031,218.47666931152344
1700075067,1.066070556640625,-0.106170654296875,-0.105743408203125,0.4905055463314056,0.3630605041980743,0.8548635244369507,151.45205688476562,-76.2784423828125,219.1266326904297
1700075067,1.0827178955078125,-0.088104248046875,-0.1248931884765625,0.5655470490455627,0.3825295269489288,0.933587610721588,151.87168884277344,-76.52958679199219,218.6972503662109
1700075067,1.09613037109375,-0.038848876953125,-0.1208038330078125,0.6981388926506042,0.439073771238327,0.9518787264823914,151.55795288085938,-76.20791625976562,218.071029663086
1700075067,1.1318359375,-0.031982421875,-0.1190032958984375,0.8680546879768372,0.4769002497196197,0.9507623314857484,151.6263885498047,-76.37586975097656,218.44644165039065
1700075067,1.162841796875,-0.0148468017578125,-0.099029541015625,0.9961649775505066,0.5319389700889587,0.973712921142578,151.7566375732422,-76.25401306152344,218.8810272216797
1700075067,1.199920654296875,0.03729248046875,-0.104705810546875,1.178736448287964,0.6660464406013489,0.8918276429176331,151.38394165039062,-76.289794921875,218.60060119628903
1700075067,1.1990966796875,0.03558349609375,-0.22222900390625,1.451080083847046,0.722002387046814,0.7669951915740967,151.46151733398438,-76.2281494140625,218.6809844970703
1700075067,1.196502685546875,0.0188751220703125,-0.2680816650390625,1.6899032592773438,0.7123452425003052,0.6804611086845398,151.5829620361328,-75.87977600097656,219.1432037353516
1700075067,1.2097320556640625,0.014556884765625,-0.2310638427734375,1.800977110862732,0.6894897222518921,0.6277248859405518,151.76283264160156,-75.89944458007812,218.9199981689453
1700075067,1.17327880859375,-0.0027313232421875,-0.20892333984375,1.7758629322052002,0.6652259230613708,0.5441945791244507,151.72727966308594,-75.9681396484375,218.2407073974609
1700075067,1.114532470703125,-0.0315399169921875,-0.2325286865234375,1.6141222715377808,0.6167463064193726,0.3828709423542022,151.83827209472656,-75.81324768066406,218.5720672607422
1700075067,1.0971221923828125,-0.1202850341796875,-0.2583770751953125,1.3831862211227417,0.5398504734039307,0.2486771941184997,151.63845825195312,-76.1102294921875,218.4886016845703
1700075067,1.0752105712890625,-0.208099365234375,-0.20355224609375,1.1147112846374512,0.4930099844932556,0.1357341259717941,151.38047790527344,-75.68699645996094,218.80026245117188
1700075067,1.03131103515625,-0.264404296875,-0.1178741455078125,0.9459662437438964,0.4506241679191589,-0.0312367491424083,151.67005920410156,-75.77540588378906,218.49761962890625
1700075067,0.95147705078125,-0.30859375,-0.0382080078125,0.8366277813911438,0.3897746503353119,-0.2304819375276565,151.5929412841797,-76.04142761230469,218.7035980224609
1700075067,0.879730224609375,-0.2959747314453125,0.027862548828125,0.7524362206459045,0.3411765098571777,-0.4587731659412384,151.82180786132812,-75.91473388671875,218.87759399414065
1700075067,0.8406982421875,-0.2418212890625,0.0614776611328125,0.6636802554130554,0.2982484698295593,-0.7139623165130615,152.09864807128906,-75.9290771484375,218.7359619140625
1700075067,0.8424530029296875,-0.208282470703125,0.0751800537109375,0.5622745156288147,0.2341203540563583,-0.9485777616500854,151.46844482421875,-75.77888488769531,218.6748962402344
1700075067,0.8637847900390625,-0.20367431640625,0.0882568359375,0.4356007277965545,0.1350571513175964,-1.14153790473938,151.78573608398438,-75.81864929199219,218.51954650878903
1700075067,0.8865966796875,-0.2194061279296875,0.101043701171875,0.2874975502490997,0.0261652916669845,-1.2896695137023926,151.72230529785156,-75.33148193359375,218.53941345214844
1700075067,0.9002838134765625,-0.2176971435546875,0.0995941162109375,0.1169846728444099,-0.07315544039011,-1.4090790748596191,151.6316375732422,-75.60414123535156,219.2748870849609
1700075067,0.9077301025390624,-0.1884613037109375,0.07843017578125,-0.0702845454216003,-0.1741939038038253,-1.5184950828552246,151.62701416015625,-75.60848999023438,218.95574951171875
1700075067,0.926025390625,-0.1418914794921875,0.0579376220703125,-0.2451296001672744,-0.2709934115409851,-1.623908758163452,151.7476348876953,-75.23408508300781,218.8516540527344
1700075067,0.9573974609375,-0.103485107421875,0.0299835205078125,-0.3913030624389648,-0.3558369278907776,-1.701030969619751,151.9779052734375,-75.51307678222656,218.56007385253903
1700075067,0.984954833984375,-0.06634521484375,0.004150390625,-0.5336160063743591,-0.4292373955249786,-1.7606126070022583,151.70277404785156,-75.36753845214844,218.3450927734375
1700075067,1.002593994140625,-0.0248565673828125,-0.026214599609375,-0.6766279935836792,-0.4902479946613312,-1.811823010444641,151.98007202148438,-75.66899108886719,218.5552978515625
1700075067,1.0191192626953125,0.009674072265625,-0.05120849609375,-0.8435458540916443,-0.5356447696685791,-1.8507752418518064,151.93528747558594,-75.28111267089844,218.4295349121093
1700075067,1.0307159423828125,0.0407257080078125,-0.0852813720703125,-1.0129578113555908,-0.5637786984443665,-1.8613687753677368,151.88433837890625,-75.45416259765625,218.5066375732422
1700075067,1.0377655029296875,0.0609283447265625,-0.1204681396484375,-1.130023956298828,-0.5943496227264404,-1.826802492141724,151.92616271972656,-75.3438720703125,219.02037048339844
1700075067,1.039764404296875,0.094451904296875,-0.1252288818359375,-1.2014358043670654,-0.6203833818435669,-1.774548888206482,151.7451629638672,-75.28448486328125,218.795166015625
1700075067,1.0471649169921875,0.1378936767578125,-0.121002197265625,-1.232755184173584,-0.6582886576652527,-1.7198036909103394,151.91712951660156,-75.69900512695312,218.8311462402344
1700075067,1.059722900390625,0.175750732421875,-0.1278839111328125,-1.2167210578918457,-0.6797662973403931,-1.6522115468978882,151.88011169433594,-75.52073669433594,218.4766998291016
1700075067,1.0588226318359375,0.210968017578125,-0.1361846923828125,-1.1648852825164795,-0.7016150951385498,-1.563245177268982,151.89598083496094,-75.51771545410156,218.53663635253903
1700075067,1.05657958984375,0.24383544921875,-0.1480560302734375,-1.0737314224243164,-0.7280613780021667,-1.452049970626831,152.00653076171875,-75.57470703125,219.1389312744141
1700075067,1.05352783203125,0.28143310546875,-0.1448974609375,-0.9496248960494996,-0.7341507077217102,-1.336552619934082,151.73695373535156,-75.41743469238281,218.73260498046875
1700075067,1.0330657958984375,0.310089111328125,-0.1546630859375,-0.8181806206703186,-0.7106581330299377,-1.2301145792007446,152.0270538330078,-75.36387634277344,219.2438507080078
1700075067,0.990997314453125,0.32562255859375,-0.19140625,-0.6926530599594116,-0.6638150215148926,-1.1236441135406494,151.96307373046875,-75.50062561035156,219.03761291503903
1700075067,0.956573486328125,0.32757568359375,-0.2371826171875,-0.5478876233100891,-0.5687212347984314,-1.029069185256958,151.58045959472656,-75.38096618652344,219.0692901611328
1700075067,0.9412841796875,0.3221435546875,-0.2952117919921875,-0.396820068359375,-0.4423324167728424,-0.9211618304252625,151.56959533691406,-75.42965698242188,218.9684295654297
1700075067,0.915283203125,0.331695556640625,-0.3555450439453125,-0.2649637460708618,-0.3226006925106048,-0.795214831829071,152.0391082763672,-75.54408264160156,219.303466796875
1700075067,0.8882904052734375,0.3553619384765625,-0.40252685546875,-0.1312842518091201,-0.2016082108020782,-0.6470860838890076,151.83920288085938,-75.5657958984375,219.23403930664065
1700075067,0.850982666015625,0.37664794921875,-0.398681640625,0.0244595371186733,-0.0662232264876365,-0.5030809640884399,152.11312866210938,-75.52865600585938,219.1368560791016
1700075067,0.8273773193359375,0.3712921142578125,-0.365631103515625,0.2104549705982208,0.0541335418820381,-0.3342099487781524,151.8071746826172,-75.2098388671875,218.9967498779297
1700075067,0.8119354248046875,0.3618927001953125,-0.33673095703125,0.4018241465091705,0.1590977758169174,-0.1568870842456817,152.15585327148438,-75.30215454101562,219.4960174560547
1700075067,0.7950439453125,0.35272216796875,-0.341278076171875,0.5689713358879089,0.2541688978672027,-0.0282742492854595,152.02175903320312,-75.32754516601562,219.65255737304688
1700075067,0.8192138671875,0.324188232421875,-0.3525543212890625,0.6822353005409241,0.3286710977554321,0.1142171174287796,152.361328125,-75.49598693847656,219.4607696533203
1700075067,0.86749267578125,0.296478271484375,-0.344085693359375,0.6433041095733643,0.3341446816921234,0.3720939457416534,151.98890686035156,-75.5130615234375,219.4571685791016
1700075067,0.873382568359375,0.3654937744140625,-0.2575225830078125,0.609388530254364,0.3099738359451294,0.3128862679004669,152.1238555908203,-75.38557434082031,219.49655151367188
1700075067,0.992706298828125,0.2147216796875,-0.1627960205078125,0.6043151617050171,0.2038950771093368,0.0184807404875755,152.09988403320312,-75.37858581542969,219.97280883789065
1700075067,1.09161376953125,-0.192596435546875,0.0271759033203125,0.6010775566101074,0.1785047650337219,-0.3322897851467132,151.87457275390625,-75.66818237304688,219.9959259033203
1700075067,1.172393798828125,-0.7174835205078125,0.27325439453125,0.2593857645988464,0.4272373616695404,-0.389913409948349,151.86044311523438,-75.3505859375,219.60704040527344
1700075067,1.129669189453125,-0.9744873046875,0.083709716796875,-0.4331514239311218,0.5764859318733215,0.1819551587104797,152.1180419921875,-75.81245422363281,219.2528076171875
1700075067,1.058074951171875,-0.8125762939453125,-0.2362213134765625,-1.1911756992340088,0.5660967230796814,0.8918241858482361,151.87953186035156,-75.44361877441406,219.43701171875
1700075067,1.1743316650390625,-0.5290374755859375,-0.3503875732421875,-1.6610792875289917,0.4643556773662567,1.0220791101455688,152.1121826171875,-75.78776550292969,219.4680633544922
1700075067,1.2421417236328125,-0.3270111083984375,-0.226226806640625,-1.8694535493850708,0.477887213230133,0.9215277433395386,151.77149963378906,-75.20658874511719,218.99717712402344
1700075067,1.04083251953125,-0.118621826171875,-0.0794830322265625,-1.6548680067062378,0.5613613128662109,0.8460891842842102,151.69525146484375,-75.52824401855469,219.68389892578125
1700075067,0.8615570068359375,0.0784149169921875,-0.000335693359375,-1.098239183425903,0.6191218495368958,0.7956537008285522,152.11802673339844,-75.18855285644531,219.8157958984375
1700075067,0.86712646484375,0.2167510986328125,-0.0006256103515625,-0.4961921870708465,0.6137920618057251,0.6952198147773743,152.225830078125,-75.70404052734375,219.5650177001953
1700075067,0.9998626708984376,0.27349853515625,0.0261688232421875,-0.089390330016613,0.6423137187957764,0.6363628506660461,151.9628143310547,-75.38876342773438,219.9262542724609
1700075067,1.084228515625,0.2788848876953125,-0.0511627197265625,0.2262184917926788,0.6142674088478088,0.5602518320083618,152.50247192382812,-75.37464904785156,219.962142944336
1700075067,1.1069183349609375,0.1925811767578125,-0.1207275390625,0.4294871985912323,0.5840743780136108,0.4984862208366394,152.49127197265625,-75.52792358398438,218.93370056152344
1700075067,1.1002960205078125,0.069244384765625,-0.112945556640625,0.4862141013145447,0.57526034116745,0.4530257880687713,152.51162719726562,-75.2109375,219.64459228515625
1700075067,1.0348052978515625,0.00335693359375,-0.1614532470703125,0.453570693731308,0.5502570271492004,0.4238450229167938,152.41236877441406,-75.69248962402344,219.90155029296875
1700075067,0.9949798583984376,-0.0364227294921875,-0.18939208984375,0.3312186598777771,0.5293155312538147,0.4046430885791778,152.57217407226562,-75.82832336425781,219.8417358398437
1700075067,1.0020751953125,-0.0570220947265625,-0.1944732666015625,0.1928765177726745,0.5146135091781616,0.3859655559062958,152.0384979248047,-75.38697814941406,219.6525115966797
1700075067,1.0079345703125,-0.07733154296875,-0.208404541015625,0.0970493182539939,0.4908288419246673,0.36084845662117,152.33944702148438,-75.25445556640625,219.9466094970703
1700075067,0.9990234375,-0.0836639404296875,-0.2095489501953125,0.0302026439458131,0.472847431898117,0.3341318964958191,152.1532745361328,-75.37882995605469,219.8684539794922
1700075067,0.9934844970703124,-0.0712127685546875,-0.2125396728515625,-3.75505696865e-05,0.4484813809394836,0.3220520615577698,152.38031005859375,-75.51161193847656,220.07667541503903
1700075067,0.9898529052734376,-0.048248291015625,-0.213043212890625,-0.0250576827675104,0.4299697577953338,0.3149757981300354,152.47421264648438,-75.31571960449219,219.7754821777344
1700075067,0.9946136474609376,-0.0632171630859375,-0.211334228515625,-0.0561977587640285,0.4027522504329681,0.3180772960186004,152.98521423339844,-75.66987609863281,219.8675994873047
1700075067,0.9912567138671876,-0.0882720947265625,-0.2168426513671875,-0.0585812889039516,0.3804911375045776,0.3314586281776428,152.64183044433594,-75.20790100097656,219.7877197265625
1700075067,0.9879913330078124,-0.0974884033203125,-0.218048095703125,-0.0574779398739337,0.3589981198310852,0.343927800655365,152.8658447265625,-75.22430419921875,220.14370727539065
1700075067,0.9828033447265624,-0.0759735107421875,-0.20477294921875,-0.0526581518352031,0.3358515202999115,0.3399093747138977,152.08946228027344,-75.51814270019531,220.29150390625
1700075067,0.9851531982421876,-0.0408935546875,-0.20513916015625,-0.0123807694762945,0.3200999796390533,0.334876000881195,152.2577362060547,-75.63760375976562,219.7264404296875
1700075067,0.9901580810546876,-0.0126800537109375,-0.20361328125,0.0408507585525512,0.3127562999725342,0.3310000300407409,152.25567626953125,-75.61569213867188,220.3986053466797
1700075067,0.996002197265625,-0.01904296875,-0.19464111328125,0.0565117448568344,0.3039068877696991,0.3381617963314056,152.44447326660156,-75.38522338867188,220.0418395996093
1700075067,0.99896240234375,-0.0475311279296875,-0.1949920654296875,0.0340754128992557,0.2959911823272705,0.3533897697925567,152.14894104003906,-75.45230102539062,220.29090881347656
1700075067,0.997589111328125,-0.0804595947265625,-0.217315673828125,-0.0050650658085942,0.2786785066127777,0.3665633499622345,152.45724487304688,-75.58638000488281,220.3607788085937
1700075067,0.990081787109375,-0.1093292236328125,-0.238983154296875,-0.0292369816452264,0.2429806888103485,0.3820762634277344,152.55239868164062,-75.47213745117188,220.70684814453125
1700075067,0.9761810302734376,-0.0999908447265625,-0.26904296875,-0.0166380982846021,0.2040964066982269,0.3890907764434814,152.45046997070312,-75.50956726074219,220.8211212158203
1700075067,0.97430419921875,-0.034423828125,-0.2749176025390625,0.0174498297274112,0.1809415519237518,0.3578774631023407,152.49038696289062,-75.21676635742188,220.4135589599609
1700075067,0.993316650390625,0.0318145751953125,-0.24658203125,0.0791773796081543,0.1660675406455993,0.3140655159950256,152.73985290527344,-75.67289733886719,221.2742156982422
1700075067,1.00714111328125,0.0615997314453125,-0.2119140625,0.1392548233270645,0.169719785451889,0.2769969701766968,152.3373260498047,-75.4970703125,221.0078887939453
1700075067,1.00836181640625,0.043975830078125,-0.1950836181640625,0.1506209373474121,0.1796456575393676,0.2613115012645721,152.59710693359375,-74.90040588378906,220.73904418945312
1700075067,0.9952545166015624,-0.004852294921875,-0.199371337890625,0.0978839546442031,0.1851861029863357,0.2701760828495025,152.79725646972656,-75.29743957519531,221.3690948486328
1700075067,0.9750823974609376,-0.0412750244140625,-0.222137451171875,0.0176277291029691,0.1786578893661499,0.2845076322555542,152.42344665527344,-75.26826477050781,220.5757751464844
1700075067,0.967041015625,-0.0551300048828125,-0.2396697998046875,-0.0278385560959577,0.1744394451379776,0.2972631156444549,152.57843017578125,-74.90626525878906,220.73809814453125
1700075067,0.96588134765625,-0.041107177734375,-0.23797607421875,-0.0302085019648075,0.1660550236701965,0.303982526063919,152.96810913085938,-75.22918701171875,221.3922271728516
1700075067,0.9720458984375,-0.005401611328125,-0.2399749755859375,0.0137626836076378,0.1584644764661789,0.2915836572647095,152.85562133789062,-75.15873718261719,221.0727386474609
1700075067,0.9819183349609376,0.011199951171875,-0.2310028076171875,0.0726233348250389,0.1606229692697525,0.2855715751647949,153.1357421875,-75.05696105957031,221.5000762939453
1700075067,0.9716949462890624,0.0074310302734375,-0.2254486083984375,0.1116327866911888,0.1619124710559845,0.3019428253173828,152.80419921875,-75.05369567871094,220.9771728515625
1700075067,0.9560546875,-0.011444091796875,-0.22021484375,0.1143097952008247,0.1748019009828567,0.3297081291675567,153.1217803955078,-75.15272521972656,220.8226013183593
1700075067,0.9508514404296876,-0.0480194091796875,-0.212249755859375,0.0611222088336944,0.1931995451450348,0.3707178831100464,153.1268768310547,-75.08941650390625,220.5016021728516
1700075067,0.9431304931640624,-0.083251953125,-0.2233123779296875,-0.038256574422121,0.2071326822042465,0.4297676086425781,152.880859375,-75.14564514160156,220.8698883056641
1700075067,0.9327545166015624,-0.096405029296875,-0.2513885498046875,-0.1271568834781646,0.2010433673858642,0.4839541614055633,153.03143310546875,-74.94119262695312,220.44647216796875
1700075067,0.94219970703125,-0.0776824951171875,-0.2635650634765625,-0.1488600522279739,0.1950342059135437,0.5174140930175781,152.94163513183594,-74.99220275878906,220.56539916992188
1700075067,0.955230712890625,-0.036102294921875,-0.25701904296875,-0.1129353418946266,0.186732605099678,0.5338010787963867,152.84815979003906,-75.12368774414062,220.87928771972656
1700075067,0.963531494140625,0.0293731689453125,-0.22711181640625,-0.0679625421762466,0.2027938514947891,0.5254853367805481,152.9003448486328,-75.17437744140625,220.87013244628903
1700075068,0.975921630859375,0.068267822265625,-0.207183837890625,-0.0169190615415573,0.231674775481224,0.5155267119407654,152.9500732421875,-75.22868347167969,220.8602600097656
1700075068,0.974609375,0.05877685546875,-0.2133331298828125,-0.0043380232527852,0.2445205301046371,0.5386762619018555,152.996826171875,-74.95071411132812,221.32095336914065
1700075068,0.9644012451171876,0.0376434326171875,-0.220672607421875,-0.0480649955570697,0.2616742253303528,0.5672796964645386,153.14051818847656,-74.72038269042969,221.43569946289065
1700075068,0.95751953125,-0.00213623046875,-0.2116546630859375,-0.0785912126302719,0.2888491153717041,0.6068771481513977,153.04844665527344,-74.53237915039062,221.2328643798828
1700075068,0.9491119384765624,-0.0380401611328125,-0.2333221435546875,-0.077709712088108,0.2878637313842773,0.6615723371505737,152.97117614746094,-74.78779602050781,221.1728057861328
1700075068,0.9586029052734376,-0.04010009765625,-0.2637176513671875,-0.0297131538391113,0.286134272813797,0.7313002943992615,152.9890594482422,-74.436767578125,221.57003784179688
1700075068,0.967803955078125,-0.017425537109375,-0.2639923095703125,0.0441024787724018,0.3022714555263519,0.7925434112548828,152.9677276611328,-74.16075134277344,221.18289184570312
1700075068,0.9646453857421876,0.0064544677734375,-0.2346343994140625,0.0945731103420257,0.3310450315475464,0.850136935710907,152.95513916015625,-74.19271850585938,221.3233184814453
1700075068,0.9485626220703124,0.021820068359375,-0.2044830322265625,0.1105909571051597,0.3720422685146332,0.9257470369338988,153.05438232421875,-73.6268310546875,221.3183135986328
1700075068,0.929443359375,0.0077972412109375,-0.2093353271484375,0.1373264342546463,0.4054156839847564,0.9988699555397034,153.18397521972656,-73.39640808105469,221.42100524902344
1700075068,0.922393798828125,-0.025360107421875,-0.222564697265625,0.1113667413592338,0.4396990835666656,1.0953142642974854,153.02430725097656,-72.91941833496094,221.24986267089844
1700075068,0.9275360107421876,-0.0023345947265625,-0.2500457763671875,0.1698771864175796,0.4772568345069885,1.218395113945007,152.9540557861328,-71.98310852050781,221.0495758056641
1700075068,0.92999267578125,-0.010894775390625,-0.258575439453125,0.3457067906856537,0.5010047554969788,1.3384616374969482,152.7228546142578,-71.77401733398438,221.0204467773437
1700075068,0.9156341552734376,-0.0177459716796875,-0.230804443359375,0.4667746424674988,0.567930281162262,1.4532729387283323,152.84921264648438,-71.09892272949219,220.9834747314453
1700075068,0.9081573486328124,0.0070037841796875,-0.2089691162109375,0.5134627819061279,0.6503124833106995,1.5294307470321655,152.7844696044922,-70.64134216308594,220.57174682617188
1700075068,0.9088134765625,0.0516357421875,-0.2099151611328125,0.5435205698013306,0.725208580493927,1.595051884651184,152.31112670898438,-69.93519592285156,220.243896484375
1700075068,0.9402008056640624,0.027557373046875,-0.188140869140625,0.5382051467895508,0.7893308401107788,1.6611504554748535,152.05819702148438,-69.33111572265625,220.0181884765625
1700075068,0.9958953857421876,-0.0139312744140625,-0.2315521240234375,0.5369305610656738,0.7837384939193726,1.6740849018096924,151.745849609375,-68.25312805175781,220.1067352294922
1700075068,1.0139617919921875,-0.010101318359375,-0.316802978515625,0.585113525390625,0.804637610912323,1.7692670822143557,151.20339965820312,-67.42237854003906,219.2582244873047
1700075068,0.977447509765625,0.0476226806640625,-0.43402099609375,0.7373272776603699,0.7843358516693115,1.8060280084609983,151.09043884277344,-66.17465209960938,218.9590606689453
1700075068,0.916717529296875,0.091278076171875,-0.3524627685546875,0.8246361017227173,0.7869057655334473,1.6927528381347656,150.69482421875,-64.92703247070312,218.37130737304688
1700075068,0.8125457763671875,0.247528076171875,-0.32781982421875,0.938303291797638,0.7694785594940186,1.6111490726470947,150.02426147460938,-64.16748046875,217.81802368164065
1700075068,0.6997528076171875,0.512359619140625,-0.2900543212890625,0.826596200466156,0.7663517594337463,1.550240159034729,149.18939208984375,-62.76759338378906,217.59616088867188
1700075068,0.6622772216796875,0.7571563720703125,-0.203826904296875,0.654225766658783,0.8018695712089539,1.4497135877609253,148.6016082763672,-61.86148071289063,217.14414978027344
1700075068,0.6362152099609375,0.8582763671875,-0.204254150390625,0.6949566602706909,0.7929093241691589,1.2965117692947388,148.09017944335938,-60.69798278808594,216.59811401367188
1700075068,0.648590087890625,0.6551361083984375,-0.2326202392578125,0.7286917567253113,0.7984433770179749,1.2668761014938354,147.22137451171875,-60.2159423828125,216.35243225097656
1700075068,0.7054443359375,0.42742919921875,-0.3330230712890625,0.7056527137756348,0.7980121970176697,1.3644684553146362,146.84649658203125,-59.483917236328125,215.7323760986328
1700075068,0.8748779296875,0.24139404296875,-0.3807525634765625,0.5753061771392822,0.7878496050834656,1.4341042041778564,146.0540771484375,-59.17205810546875,215.43878173828125
1700075068,1.1512603759765625,0.1087799072265625,-0.4268035888671875,0.4423164427280426,0.7546461224555969,1.65811288356781,145.73846435546875,-58.99000549316406,215.34249877929688
1700075068,1.2447662353515625,0.0980682373046875,-0.47247314453125,0.507329523563385,0.7399260401725769,1.925970435142517,145.23153686523438,-59.221527099609375,214.8600311279297
1700075068,1.0978851318359375,0.0318603515625,-0.50128173828125,0.6476578712463379,0.7428054213523865,2.059301376342773,144.48861694335938,-59.92738342285156,215.0109405517578
1700075068,0.9404296875,0.13427734375,-0.5303192138671875,0.7785152196884155,0.7325450778007507,2.0152666568756104,144.45750427246094,-60.43424987792969,215.0030975341797
1700075068,0.95001220703125,0.40008544921875,-0.4552154541015625,0.9366744756698608,0.7269495129585266,1.92292320728302,143.93641662597656,-61.105224609375,214.7767028808593
1700075068,1.0451202392578125,0.5206146240234375,-0.31939697265625,1.1431443691253662,0.7442451119422913,1.9221447706222528,143.9418487548828,-62.25962829589844,215.0770568847656
1700075068,1.1591644287109375,0.4731903076171875,-0.326385498046875,1.2748746871948242,0.7474164366722107,2.074610471725464,144.10641479492188,-63.65559387207031,215.3345642089844
1700075068,1.287200927734375,0.39105224609375,-0.3805084228515625,1.2661464214324951,0.732606828212738,2.266693115234375,143.9571075439453,-65.4033203125,215.3496551513672
1700075068,1.44403076171875,0.2762603759765625,-0.41455078125,1.258232593536377,0.7339645028114319,2.45154070854187,143.92636108398438,-66.91860961914062,215.3918914794922
1700075068,1.6075439453125,0.1815338134765625,-0.4019775390625,1.2536330223083496,0.7254743576049805,2.7005231380462646,144.2666778564453,-68.88763427734375,215.7234039306641
1700075068,1.65411376953125,0.104949951171875,-0.365386962890625,1.240978717803955,0.7013482451438904,2.828758716583252,144.2161865234375,-70.64324951171875,216.0184326171875
1700075068,1.6341552734375,0.0685272216796875,-0.4150238037109375,1.2023961544036863,0.6246058344841003,2.8980422019958496,144.08250427246094,-73.025634765625,216.38247680664065
1700075068,1.649505615234375,0.1784820556640625,-0.461273193359375,1.110669493675232,0.552087128162384,2.87218713760376,144.01129150390625,-75.67121887207031,217.43899536132807
1700075068,1.588470458984375,0.2203521728515625,-0.440460205078125,0.9630637764930724,0.4426016509532928,2.7506494522094727,144.0873260498047,-78.11199951171875,217.4203643798828
1700075068,1.3932342529296875,0.166046142578125,-0.430755615234375,0.7345160841941833,0.3138774931430816,2.7116847038269043,143.6324005126953,-80.67311096191406,218.1597442626953
1700075068,1.0944976806640625,0.22198486328125,-0.439605712890625,0.4698117077350616,0.2328433692455291,2.6284019947052,143.6947021484375,-83.35293579101562,218.7703399658203
1700075068,0.7258758544921875,0.3475799560546875,-0.4700775146484375,0.3204104900360107,0.1813191920518875,2.2746269702911377,143.00149536132812,-86.02682495117188,219.6573028564453
1700075068,0.4337310791015625,0.3956298828125,-0.4450531005859375,0.3484229743480682,0.1341492831707,1.6852869987487793,142.51321411132812,-88.46879577636719,220.3977966308593
1700075068,0.233001708984375,0.4597930908203125,-0.3346710205078125,0.5455003380775452,0.0409024246037006,1.0805786848068235,142.11862182617188,-91.08526611328124,221.701889038086
1700075068,0.102691650390625,0.4821319580078125,-0.2060089111328125,0.8603842258453369,-0.0742201656103134,0.6000176668167114,141.68824768066406,-93.16810607910156,222.5373992919922
1700075068,0.00262451171875,0.374847412109375,-0.09649658203125,0.9861086010932922,-0.2938332259654999,0.1770139187574386,141.21011352539062,-95.52720642089844,223.73748779296875
1700075068,-0.019683837890625,0.18463134765625,-0.04132080078125,0.8372938632965088,-0.5937163233757019,-0.2763876616954803,141.1949462890625,-97.5850067138672,224.9924774169922
1700075068,-0.0115966796875,-0.0077362060546875,0.03326416015625,0.4638132154941559,-0.8463464379310608,-0.7552269101142883,140.8467559814453,-99.00558471679688,226.1761169433593
1700075068,-0.0571441650390625,-0.119232177734375,0.0505218505859375,-0.2505355477333069,-0.9357231855392456,-1.1678909063339231,140.17115783691406,-100.47030639648438,226.84120178222656
1700075068,-0.118743896484375,-0.11761474609375,-0.1662445068359375,-1.0894334316253662,-0.8594622611999512,-1.4468426704406738,139.78103637695312,-102.24749755859376,227.8544921875
1700075068,-0.07073974609375,-0.1730804443359375,-0.3228607177734375,-1.9288731813430784,-0.7982710599899292,-1.7753771543502808,139.05433654785156,-103.18771362304688,228.5328369140625
1700075068,0.1778106689453125,-0.4095001220703125,-0.27197265625,-2.4638826847076416,-0.9029029607772828,-2.172513961791992,138.57374572753906,-104.02078247070312,229.1049041748047
1700075068,0.4955291748046875,-0.6749267578125,-0.0362548828125,-2.6968424320220947,-1.0803728103637695,-2.316322088241577,138.21083068847656,-105.1174774169922,230.1856689453125
1700075068,0.6799163818359375,-0.6273651123046875,0.1048736572265625,-3.1297507286071777,-1.172634243965149,-2.332602262496948,137.87753295898438,-105.81956481933594,230.12063598632807
1700075068,0.693450927734375,-0.2253265380859375,-0.1409912109375,-3.3938534259796143,-1.2765806913375854,-2.5048983097076416,137.84552001953125,-106.410400390625,230.1387939453125
1700075068,0.687652587890625,0.0922088623046875,-0.2511749267578125,-3.317176342010498,-1.433865308761597,-2.7255258560180664,137.56478881835938,-106.49118041992188,229.92384338378903
1700075068,0.722503662109375,0.3116912841796875,-0.159332275390625,-2.89291787147522,-1.637824296951294,-2.980403184890747,137.6087188720703,-106.43345642089844,229.45909118652344
1700075068,0.8201446533203125,0.4575347900390625,-0.0670623779296875,-2.200580596923828,-1.7971508502960205,-3.244403123855591,137.47528076171875,-106.51473999023438,229.04673767089844
1700075068,0.93426513671875,0.5578155517578125,-0.105438232421875,-1.3620142936706543,-1.81807827949524,-3.47588324546814,137.55169677734375,-106.63499450683594,228.57861328125
1700075068,0.9963531494140624,0.6699981689453125,-0.2056427001953125,-0.4228860139846802,-1.7790451049804688,-3.6070690155029297,137.16180419921875,-106.0307159423828,228.40870666503903
1700075068,1.0267181396484375,0.80389404296875,-0.2610015869140625,0.5457562804222107,-1.8095675706863403,-3.6512532234191895,137.3760986328125,-105.87947082519533,227.83506774902344
1700075068,1.05877685546875,0.9115447998046876,-0.308563232421875,1.328238844871521,-1.7516480684280396,-3.893535852432251,137.6857147216797,-106.08854675292967,227.67694091796875
1700075068,1.169525146484375,0.8480377197265625,-0.3929595947265625,1.445052981376648,-1.578096866607666,-4.13378381729126,137.46038818359375,-106.3861083984375,226.8264617919922
1700075068,1.200469970703125,0.7655487060546875,-0.47467041015625,0.9721696376800536,-1.3988664150238037,-4.249375820159912,137.4543914794922,-106.57037353515624,227.20999145507807
1700075068,1.1568145751953125,0.6556854248046875,-0.4792938232421875,0.2340798676013946,-1.2680678367614746,-4.219646453857422,137.0231475830078,-106.79176330566406,227.24417114257807
1700075068,1.0883026123046875,0.4835205078125,-0.46246337890625,-0.5055785179138184,-1.147355318069458,-4.030367851257324,136.86724853515625,-106.88047790527344,226.9600830078125
1700075068,1.02679443359375,0.3526458740234375,-0.502838134765625,-1.063752293586731,-1.0544674396514893,-3.70911169052124,136.96820068359375,-106.76203918457033,227.3839111328125
1700075068,1.028076171875,0.3561248779296875,-0.582794189453125,-1.3565822839736938,-1.0296415090560913,-3.313726663589477,136.59210205078125,-107.18869018554688,228.1030120849609
1700075068,1.1002960205078125,0.4799346923828125,-0.65411376953125,-1.3992756605148315,-0.999050796031952,-3.003641366958618,136.39524841308594,-106.93106079101562,228.14743041992188
1700075068,1.1966552734375,0.635101318359375,-0.73040771484375,-1.189873456954956,-1.1272917985916138,-2.705000638961792,136.23126220703125,-106.88851928710938,228.03623962402344
1700075068,1.2557373046875,0.8628997802734375,-0.7081298828125,-0.7313359975814819,-1.354343056678772,-2.490417718887329,136.35037231445312,-106.49870300292967,227.8044891357422
1700075068,1.29656982421875,1.02874755859375,-0.5250701904296875,-0.1814843118190765,-1.4216662645339966,-2.363847017288208,136.0464324951172,-106.11785888671876,227.2274169921875
1700075068,1.263519287109375,1.1083221435546875,-0.3725433349609375,0.4077286422252655,-1.2998883724212646,-2.1796858310699463,135.60897827148438,-105.69329833984376,226.8573455810547
1700075068,1.1007843017578125,1.2129669189453125,-0.2447357177734375,1.0070064067840576,-1.1002333164215088,-2.068678855895996,135.6673583984375,-105.10050964355467,226.9921264648437
1700075068,0.935882568359375,1.1194305419921875,-0.130218505859375,1.5600004196166992,-0.9126514792442322,-2.0113091468811035,135.3020477294922,-104.97122192382812,225.9013519287109
1700075068,0.872283935546875,0.8480682373046875,-0.130035400390625,1.811724543571472,-0.798431932926178,-1.881213545799256,135.3085479736328,-104.51437377929688,225.6665496826172
1700075068,0.8203125,0.6755828857421875,-0.2254180908203125,1.8850290775299072,-0.7396096587181091,-1.715904712677002,135.21051025390625,-103.82830810546876,225.209716796875
1700075068,0.7758331298828125,0.533203125,-0.2781524658203125,1.8585362434387207,-0.6822576522827148,-1.5824133157730105,135.28587341308594,-103.96101379394533,224.5915985107422
1700075068,0.745391845703125,0.3946685791015625,-0.28228759765625,1.7212742567062378,-0.5875186324119568,-1.4529210329055786,135.1971435546875,-103.4712371826172,224.24517822265625
1700075068,0.7136383056640625,0.2938690185546875,-0.2589569091796875,1.494611740112305,-0.5017299652099609,-1.268570899963379,134.93753051757812,-103.18644714355467,223.82147216796875
1700075068,0.7192230224609375,0.2661590576171875,-0.21087646484375,1.2384727001190186,-0.4117191135883331,-1.1128841638565063,134.8334503173828,-103.02374267578124,224.66766357421875
1700075068,0.7119140625,0.20782470703125,-0.181549072265625,0.9512582421302797,-0.3577134013175964,-0.9361517429351808,134.6747589111328,-102.88311767578124,223.90631103515625
1700075068,0.747528076171875,0.1570281982421875,-0.155487060546875,0.6196646094322205,-0.3739445805549621,-0.773319661617279,134.6728057861328,-102.64968872070312,223.5563201904297
1700075068,0.81793212890625,0.1159515380859375,-0.112091064453125,0.3759773671627044,-0.4077384769916534,-0.6627015471458435,134.50332641601562,-102.65731811523438,223.1174774169922
1700075068,0.902008056640625,0.0684356689453125,-0.072296142578125,0.1426761895418167,-0.3977487087249756,-0.612901508808136,134.49073791503906,-102.30810546875,223.14129638671875
1700075068,0.9447174072265624,0.073516845703125,-0.1380767822265625,-0.0447831824421882,-0.2385955303907394,-0.6048179864883423,134.153564453125,-101.95173645019533,223.36785888671875
1700075068,0.874237060546875,0.0624542236328125,-0.3026885986328125,-0.222917765378952,-0.0679151341319084,-0.5323589444160461,134.34970092773438,-101.86872863769533,222.885009765625
1700075068,0.7977752685546875,0.0921478271484375,-0.405303955078125,-0.382432073354721,0.081034131348133,-0.3019886314868927,134.02452087402344,-101.75404357910156,222.2190856933593
1700075068,0.719940185546875,0.15777587890625,-0.4770050048828125,-0.3996403515338897,0.1003082245588302,0.001391767989844,133.66493225097656,-101.75820922851562,222.62857055664065
1700075068,0.6696624755859375,0.203582763671875,-0.4595947265625,-0.2656210362911224,0.0020445086993277,0.3023097813129425,134.0213623046875,-100.99356079101562,222.5025787353516
1700075068,0.7395782470703125,0.208953857421875,-0.37530517578125,-0.2003810256719589,0.1210529208183288,0.6402835845947266,133.8549041748047,-100.69889831542967,222.48355102539065
1700075068,0.7993011474609375,0.26239013671875,-0.4495086669921875,-0.3084310591220855,0.9197194576263428,1.0646984577178955,133.9967498779297,-100.68798828125,222.15972900390625
1700075068,0.662811279296875,0.5005950927734375,-1.0619659423828125,-0.0570233389735221,1.0486963987350464,1.4648659229278564,133.775390625,-100.28317260742188,221.99029541015625
1700075068,0.375823974609375,0.77423095703125,-1.208099365234375,0.1410322189331054,2.2336132526397705,1.8094695806503296,133.6875762939453,-100.24041748046876,221.88351440429688
1700075068,0.4471435546875,0.9304962158203124,-2.0366973876953125,0.0319544710218906,1.3859580755233765,2.625934362411499,133.76394653320312,-100.022216796875,221.858139038086
1700075068,0.819366455078125,1.39483642578125,-1.713409423828125,-0.8704741597175598,-0.8246598243713379,1.453392744064331,133.78489685058594,-100.05230712890624,221.49072265625
1700075068,3.343017578125,0.2103271484375,0.636810302734375,-0.3776697814464569,0.5892888307571411,-0.4036894142627716,133.95957946777344,-99.6128387451172,221.0038299560547
1700075069,3.303070068359375,-1.24884033203125,0.2734375,1.170578122138977,1.7508901357650757,-0.5324753522872925,133.48387145996094,-99.59278869628906,221.0247802734375
1700075069,1.7288055419921875,-1.18743896484375,0.8954315185546875,1.280745267868042,1.548282504081726,0.830854594707489,133.6559600830078,-99.71556091308594,220.7333374023437
1700075069,0.6475830078125,-0.5942535400390625,0.468170166015625,0.3495955467224121,0.9772347211837769,1.8962827920913696,133.35279846191406,-99.05677795410156,221.04454040527344
1700075069,0.3656158447265625,-0.4124755859375,-0.145233154296875,-0.441987007856369,0.9848982095718384,1.593956708908081,133.33383178710938,-98.56048583984376,220.66539001464844
1700075069,0.7862091064453125,-0.6882171630859375,-0.126708984375,-1.0039739608764648,1.1878808736801147,1.1650352478027344,133.42413330078125,-98.52937316894533,220.5298614501953
1700075069,1.150665283203125,-0.5678558349609375,-0.26470947265625,-1.2258245944976809,1.1495859622955322,1.1325547695159912,133.34713745117188,-98.61466979980467,220.73892211914065
1700075069,1.4772796630859375,-0.1697235107421875,-0.4400482177734375,-0.5099234580993652,0.7817876935005188,1.1957210302352903,133.5640106201172,-98.11460876464844,220.59571838378903
1700075069,1.9342193603515625,0.129241943359375,-0.3048553466796875,0.0728803351521492,0.2791107296943664,1.2577177286148071,133.21087646484375,-98.05012512207033,220.3238220214844
1700075069,2.053939819335937,0.4817962646484375,-0.176483154296875,-0.2308555841445922,-0.0908398926258087,1.1420849561691284,133.1086883544922,-97.54446411132812,220.55679321289065
1700075069,1.836822509765625,0.69305419921875,-0.1192474365234375,-0.4572319984436035,0.0418363958597183,0.8322583436965942,132.86427307128906,-97.20954895019533,220.07359313964844
1700075069,1.5431060791015625,0.6707763671875,0.120880126953125,-0.3208334147930145,0.5043611526489258,0.6586050391197205,133.25306701660156,-96.81851196289062,220.0843505859375
1700075069,1.325531005859375,0.36248779296875,0.2663726806640625,-0.2721774578094482,0.7449554204940796,0.5454992651939392,133.4199676513672,-96.91343688964844,219.74005126953125
1700075069,1.172637939453125,0.085357666015625,-0.06146240234375,-0.1993519812822342,0.6005318760871887,0.5987443923950195,133.1099090576172,-96.30226135253906,220.1460418701172
1700075069,1.0191192626953125,0.1229705810546875,-0.47833251953125,0.0734076350927352,0.21514293551445,0.7647640109062195,133.17184448242188,-96.35256958007812,219.9346618652344
1700075069,0.9408721923828124,0.1685028076171875,-0.5692291259765625,0.2485874444246292,-0.0489587523043155,0.768250584602356,133.19398498535156,-96.0458984375,219.8945770263672
1700075069,0.9037933349609376,0.183502197265625,-0.453460693359375,0.2016953080892563,-0.0798945650458335,0.5770912766456604,132.81109619140625,-95.73045349121094,219.8074188232422
1700075069,0.8186492919921875,0.3414306640625,-0.310882568359375,0.0460378006100654,0.0202245786786079,0.3065769672393799,132.92381286621094,-95.29641723632812,220.2581787109375
1700075069,0.7791900634765625,0.4228057861328125,-0.207122802734375,0.0563599467277526,0.1015564501285553,0.1125278770923614,133.04249572753906,-95.13888549804688,219.80728149414065
1700075069,0.87725830078125,0.2696075439453125,-0.1906280517578125,0.1051019206643104,0.091260939836502,0.112062357366085,132.6684112548828,-94.4268035888672,220.1269378662109
1700075069,0.9844818115234376,0.112213134765625,-0.276458740234375,0.0708539336919784,0.0445741266012191,0.2222120314836502,132.91526794433594,-94.20986938476562,219.2985992431641
1700075069,1.0425567626953125,0.011383056640625,-0.3426971435546875,-0.0838344469666481,0.0100291986018419,0.3671127557754516,132.45388793945312,-93.66081237792967,219.5061492919922
1700075069,1.0736846923828125,-0.0491180419921875,-0.2908477783203125,-0.3058832287788391,0.0401812419295311,0.5125000476837158,132.53732299804688,-93.3112335205078,219.5989227294922
1700075069,1.0450439453125,-0.059967041015625,-0.2398681640625,-0.4014062881469726,0.1023538038134574,0.6322810649871826,132.57711791992188,-92.46672058105467,219.37673950195312
1700075069,0.9741668701171876,-0.03961181640625,-0.253204345703125,-0.36529541015625,0.1193000301718711,0.7279135584831238,132.1374053955078,-91.44215393066406,218.50875854492188
1700075069,0.947113037109375,-0.0134429931640625,-0.2527008056640625,-0.2963328659534454,0.1398228853940963,0.8090187907218933,132.06446838378906,-90.884033203125,218.5254364013672
1700075069,0.898834228515625,0.0185089111328125,-0.2775726318359375,-0.1738825738430023,0.1728878915309906,0.8700922727584839,132.01422119140625,-90.1608428955078,218.0191192626953
1700075069,0.8045654296875,0.069580078125,-0.3140716552734375,-0.0352677106857299,0.1814062744379043,0.899968683719635,131.70912170410156,-89.0782470703125,217.96661376953125
1700075069,0.7643890380859375,0.15789794921875,-0.28118896484375,0.0147158289328217,0.2210471630096435,0.8800269365310669,131.49171447753906,-88.00245666503906,217.61212158203125
1700075069,0.812713623046875,0.259979248046875,-0.2281646728515625,0.129707396030426,0.3088923394680023,0.840040922164917,131.130615234375,-86.7611083984375,216.74392700195312
1700075069,0.8933563232421875,0.2769622802734375,-0.1854705810546875,0.3218137323856354,0.3893640041351318,0.8732121586799622,131.00494384765625,-85.60105895996094,216.52517700195312
1700075069,0.9541168212890624,0.2335205078125,-0.1958465576171875,0.4587414860725403,0.4600093960762024,0.975058913230896,130.4239044189453,-84.54121398925781,216.7084045410156
1700075069,0.9950103759765624,0.157196044921875,-0.2170562744140625,0.4804108142852783,0.5306172370910645,1.1025282144546509,130.40057373046875,-83.28047180175781,216.3549041748047
1700075069,1.02252197265625,0.050994873046875,-0.2057342529296875,0.3973596096038818,0.5910718441009521,1.2168738842010498,129.91531372070312,-81.86849975585938,215.4627227783203
1700075069,1.0112457275390625,-0.07513427734375,-0.216033935546875,0.3559722304344177,0.6366294622421265,1.404531478881836,129.29373168945312,-80.19471740722656,215.03472900390625
1700075069,0.9027862548828124,-0.0975799560546875,-0.3336944580078125,0.3572249710559845,0.631586492061615,1.6066970825195312,128.7633514404297,-79.27464294433594,214.9152069091797
1700075069,0.814697265625,-0.033782958984375,-0.410675048828125,0.3532062768936157,0.6211884617805481,1.644153118133545,128.38197326660156,-77.93983459472656,214.0771942138672
1700075069,0.82879638671875,0.1316680908203125,-0.3603363037109375,0.372840404510498,0.6462189555168152,1.6391111612319946,127.77381896972656,-76.01829528808594,214.08282470703125
1700075069,0.815185546875,0.3457794189453125,-0.2855072021484375,0.4662843346595764,0.710262656211853,1.5696985721588137,127.35504150390624,-75.54635620117188,213.0946807861328
1700075069,0.8391265869140625,0.438812255859375,-0.22613525390625,0.6631545424461365,0.7966486811637878,1.5333940982818604,127.12869262695312,-74.50978088378906,212.7976989746093
1700075069,0.900238037109375,0.43231201171875,-0.2273712158203125,0.8473829627037048,0.8400244116783142,1.558909296989441,126.892333984375,-73.6376953125,212.30517578125
1700075069,1.002685546875,0.330780029296875,-0.2704620361328125,0.9211229681968688,0.8785089254379272,1.6460071802139282,126.04493713378906,-72.56358337402344,212.1177520751953
1700075069,1.067169189453125,0.2075958251953125,-0.3606109619140625,0.9460906386375428,0.8834741115570068,1.7705062627792358,125.7175750732422,-71.35197448730469,211.5896911621093
1700075069,1.025177001953125,0.132720947265625,-0.432830810546875,0.911327302455902,0.8558547496795654,1.895219683647156,125.07518005371094,-70.19699096679688,211.97775268554688
1700075069,0.944732666015625,0.1829986572265625,-0.452880859375,0.8392717838287354,0.8201819658279419,2.01089096069336,124.62435913085938,-68.67802429199219,211.5679931640625
1700075069,0.93463134765625,0.3468475341796875,-0.3640289306640625,0.7720211148262024,0.8332434296607971,1.9962717294692995,124.18080139160156,-67.68367004394531,210.71417236328125
1700075069,0.9327392578125,0.4480133056640625,-0.34613037109375,0.785434365272522,0.8329576849937439,1.965082049369812,123.39492797851562,-65.98323059082031,210.7540283203125
1700075069,0.88690185546875,0.5126190185546875,-0.34710693359375,0.879570484161377,0.8036131262779236,1.955158948898316,122.46697998046876,-64.19810485839844,210.49072265625
1700075069,0.832000732421875,0.535064697265625,-0.35272216796875,0.9128695726394652,0.7663000822067261,1.9459837675094604,121.72467041015624,-62.95875549316406,210.66542053222656
1700075069,0.81158447265625,0.5094757080078125,-0.3820343017578125,0.9110285043716432,0.7241315841674805,1.940174579620361,121.14276123046876,-61.15080261230469,210.65164184570312
1700075069,0.826446533203125,0.5237579345703125,-0.4298095703125,0.915512204170227,0.7015346884727478,1.9983322620391848,120.07034301757812,-59.8829345703125,209.9468231201172
1700075069,0.7494049072265625,0.50701904296875,-0.4562835693359375,0.9816156029701232,0.6810699105262756,2.008225679397583,118.96200561523438,-58.09600830078125,210.4925079345703
1700075069,0.784088134765625,0.4883880615234375,-0.4455108642578125,1.0205366611480713,0.6634344458580017,2.0136611461639404,117.4945831298828,-56.114532470703125,210.6201934814453
1700075069,1.010711669921875,0.55340576171875,-0.495208740234375,1.0128110647201538,0.5871415138244629,2.078041315078736,116.08238220214844,-54.529083251953125,210.90147399902344
1700075069,1.334381103515625,0.6034393310546875,-0.5012359619140625,0.9916583895683287,0.4529033005237579,2.168604612350464,114.53416442871094,-52.76103210449219,211.13528442382807
1700075069,1.5925445556640625,0.5843658447265625,-0.4571075439453125,0.9774208664894104,0.3463369011878967,2.283812999725342,112.8271484375,-51.226409912109375,211.9568786621093
1700075069,1.6753997802734375,0.48553466796875,-0.4221649169921875,0.9170510172843932,0.233432725071907,2.4108974933624268,111.41542053222656,-50.11564636230469,212.2611694335937
1700075069,1.6524658203125,0.3579254150390625,-0.4417724609375,0.8062701225280762,0.1006568372249603,2.503148078918457,109.73548889160156,-49.27848815917969,212.3082275390625
1700075069,1.6826019287109375,0.3274688720703125,-0.4775390625,0.6604593992233276,-0.0393436774611473,2.5039100646972656,108.70010375976562,-48.30711364746094,213.5702667236328
1700075069,1.613861083984375,0.3099212646484375,-0.5065460205078125,0.4810499846935272,-0.1694180518388748,2.3684585094451904,106.85871887207033,-47.993988037109375,213.1214294433593
1700075069,1.49896240234375,0.2577362060546875,-0.51544189453125,0.2821374237537384,-0.2716922163963318,2.175767183303833,105.85569763183594,-47.34048461914063,214.1213836669922
1700075069,1.277740478515625,0.2564239501953125,-0.565826416015625,0.1433166861534118,-0.3865389227867126,1.9597973823547363,104.82998657226562,-47.3265380859375,214.78048706054688
1700075069,0.991485595703125,0.2745819091796875,-0.5622406005859375,0.0650644898414611,-0.4024529159069061,1.6709271669387815,104.23893737792967,-47.263092041015625,215.03829956054688
1700075069,0.7169342041015625,0.2440643310546875,-0.5020294189453125,0.0974088460206985,-0.1952776163816452,1.2176520824432373,104.02490234375,-47.500396728515625,216.1719207763672
1700075069,0.439605712890625,0.1416473388671875,-0.4664154052734375,0.2032809555530548,-0.1234931722283363,0.811644434928894,104.2126922607422,-47.64321899414063,216.4790496826172
1700075069,0.17529296875,0.086578369140625,-0.3236846923828125,0.2411518990993499,-0.1537184566259384,0.5200157761573792,104.312255859375,-47.91207885742188,216.97381591796875
1700075069,-0.0880889892578125,0.16937255859375,-0.150115966796875,0.3450995981693268,-0.2519526183605194,0.117820106446743,104.52247619628906,-49.58518981933594,217.93731689453125
1700075069,-0.1995086669921875,0.1892547607421875,-0.027862548828125,0.4060108959674835,-0.4579646289348602,-0.5011728405952454,105.27091979980467,-50.96417236328125,218.7001800537109
1700075069,-0.168975830078125,0.158447265625,0.076629638671875,0.3368483185768127,-0.6479095220565796,-1.1253889799118042,105.92424011230467,-53.22525024414063,218.6009979248047
1700075069,-0.1375732421875,0.00311279296875,0.0928192138671875,0.0482016168534755,-0.6987959146499634,-1.6220698356628418,106.61412048339844,-55.959808349609375,219.0570373535156
1700075069,-0.0924530029296875,-0.243011474609375,-0.10528564453125,-0.3725863397121429,-0.612765371799469,-1.989511489868164,107.03012084960938,-58.88497924804688,219.54649353027344
1700075069,0.103912353515625,-0.44915771484375,-0.2684173583984375,-0.7894163131713867,-0.5370067358016968,-2.3505773544311523,107.42961120605467,-61.80613708496094,220.10958862304688
1700075069,0.35418701171875,-0.675140380859375,-0.18267822265625,-1.1882054805755615,-0.5948002338409424,-2.6196444034576416,108.1268310546875,-65.38044738769531,220.7613983154297
1700075069,0.5567779541015625,-0.764801025390625,-0.0637664794921875,-1.7103207111358645,-0.6825705766677856,-2.613370180130005,109.1043701171875,-68.92964172363281,222.1702117919922
1700075069,0.62445068359375,-0.4958648681640625,-0.1455535888671875,-2.1287903785705566,-0.7269662618637085,-2.708672285079956,109.34881591796876,-71.85569763183594,222.7998962402344
1700075069,0.643585205078125,-0.1774139404296875,-0.2617340087890625,-2.350918769836426,-0.7551278471946716,-2.978041887283325,109.54954528808594,-74.87625122070312,224.51239013671875
1700075069,0.697723388671875,0.039398193359375,-0.2476348876953125,-2.4269795417785645,-0.820097804069519,-3.240483522415161,109.55378723144533,-77.22706604003906,225.8607635498047
1700075069,0.769927978515625,0.234619140625,-0.17071533203125,-2.344078779220581,-0.948539137840271,-3.4379425048828125,109.595458984375,-79.60430908203125,227.371322631836
1700075069,0.857513427734375,0.3663482666015625,-0.1152801513671875,-2.1727898120880127,-1.071977972984314,-3.568183660507202,109.77809143066406,-81.57980346679688,228.15890502929688
1700075069,0.927520751953125,0.4735565185546875,-0.15887451171875,-1.8623768091201784,-1.1816246509552002,-3.639320611953736,109.3983917236328,-83.19996643066406,228.9635772705078
1700075069,0.9618988037109376,0.58258056640625,-0.2081146240234375,-1.2330129146575928,-1.309439778327942,-3.6365678310394287,109.1408233642578,-85.14488220214844,229.663330078125
1700075069,0.999755859375,0.691253662109375,-0.2060699462890625,-0.3828080892562866,-1.4174091815948486,-3.690680265426636,108.35896301269533,-86.687744140625,231.50503540039065
1700075069,1.0382537841796875,0.776153564453125,-0.2235260009765625,0.38523930311203,-1.4396841526031494,-3.801679372787476,107.97952270507812,-88.73081970214844,231.6542205810547
1700075069,1.048980712890625,0.8733978271484375,-0.260528564453125,0.84601891040802,-1.448996663093567,-3.906925916671753,106.96435546875,-91.17373657226562,233.30079650878903
1700075069,1.057525634765625,0.981201171875,-0.2596588134765625,0.9322645664215088,-1.4284143447875977,-4.00320291519165,106.37078857421876,-93.38699340820312,233.4076538085937
1700075069,1.062530517578125,1.0099945068359375,-0.2529449462890625,0.893174409866333,-1.3262627124786377,-4.082666873931885,105.2949676513672,-94.97175598144533,235.1846160888672
1700075069,1.053466796875,0.8769073486328125,-0.2412109375,0.6805854439735413,-1.1928503513336182,-3.9629173278808594,104.31878662109376,-96.16612243652344,235.325424194336
1700075069,0.9880523681640624,0.7487945556640625,-0.28521728515625,0.3202999830245971,-1.0725138187408447,-3.678539276123047,103.70376586914062,-97.653076171875,236.2202911376953
1700075069,0.9615020751953124,0.6840057373046875,-0.3567047119140625,-0.0163930878043174,-1.0206255912780762,-3.40598201751709,103.06037902832033,-98.78514099121094,237.3484344482422
1700075069,1.0388641357421875,0.6165771484375,-0.397857666015625,-0.3699125349521637,-0.9226811528205872,-3.091270685195923,102.5133056640625,-100.13339233398438,238.5810089111328
1700075069,1.101959228515625,0.6278533935546875,-0.5025177001953125,-0.6169577240943909,-0.8923217058181763,-2.807197093963623,101.74281311035156,-100.72703552246094,238.2104034423828
1700075069,1.2194976806640625,0.6761016845703125,-0.5511322021484375,-0.7426477670669556,-1.0114052295684814,-2.634990930557251,101.2919464111328,-101.2080535888672,238.743392944336
1700075069,1.3358001708984375,0.68414306640625,-0.459808349609375,-0.7110256552696228,-1.118981957435608,-2.504408121109009,100.74201965332033,-101.3611297607422,238.6669921875
1700075069,1.33050537109375,0.694427490234375,-0.3791656494140625,-0.519737184047699,-1.1982663869857788,-2.367436408996582,100.2096710205078,-101.60627746582033,238.5142822265625
1700075069,1.235870361328125,0.7210693359375,-0.2920684814453125,-0.1988015174865722,-1.157285451889038,-2.22512435913086,100.13137817382812,-101.8227996826172,238.7062225341797
1700075069,1.098541259765625,0.74267578125,-0.23779296875,0.1304144710302353,-1.0533031225204468,-2.0952837467193604,99.2946319580078,-102.06600952148438,238.87176513671875
1700075069,0.97869873046875,0.72747802734375,-0.1823577880859375,0.3686334192752838,-0.9187695384025574,-1.9999154806137085,98.8265380859375,-102.07362365722656,238.21710205078125
1700075069,0.92486572265625,0.659027099609375,-0.150604248046875,0.5066080689430237,-0.8024301528930664,-1.8812007904052728,98.4014892578125,-102.40505981445312,237.75596618652344
1700075069,0.905731201171875,0.5883941650390625,-0.1563568115234375,0.5343254804611206,-0.7542149424552917,-1.6856919527053833,98.18307495117188,-102.27120971679688,237.9013214111328
1700075069,0.8811798095703125,0.5306549072265625,-0.1358642578125,0.5084107518196106,-0.7162603735923767,-1.4671716690063477,97.70509338378906,-102.26022338867188,237.8322296142578
1700075070,0.8786163330078125,0.461456298828125,-0.1044158935546875,0.471543550491333,-0.6476756930351257,-1.277255296707153,97.53050231933594,-102.6673583984375,237.94210815429688
1700075070,0.8661041259765625,0.386749267578125,-0.0868377685546875,0.3996965289115906,-0.5813084244728088,-1.0702160596847534,97.12637329101562,-102.9407958984375,237.8255310058593
1700075070,0.809356689453125,0.324462890625,-0.0920257568359375,0.3424665331840515,-0.516296923160553,-0.849389374256134,96.93309020996094,-102.67123413085938,238.19287109375
1700075070,0.8000335693359375,0.262054443359375,-0.114959716796875,0.2943440079689026,-0.4786036014556885,-0.6315391063690186,96.32345581054688,-103.04437255859376,238.57778930664065
1700075070,0.854888916015625,0.205902099609375,-0.1201171875,0.1697269827127456,-0.4254682064056396,-0.3712667524814605,96.41828918457033,-103.25535583496094,238.7987823486328
1700075070,0.8931427001953125,0.2124786376953125,-0.1687774658203125,-0.0603754594922065,-0.3731956779956817,-0.0609994381666183,96.06666564941406,-103.57521057128906,238.6217193603516
1700075070,0.9034881591796876,0.3020172119140625,-0.2513275146484375,-0.2004215121269226,-0.3223277032375335,0.1980973780155182,95.88949584960938,-103.57373046875,238.87954711914065
1700075070,0.826385498046875,0.3950958251953125,-0.3260498046875,-0.1574431508779525,-0.2375528961420059,0.4117459952831268,96.1889190673828,-103.3839874267578,238.66876220703125
1700075070,0.7247772216796875,0.42425537109375,-0.323211669921875,-0.1540446877479553,-0.1792163550853729,0.5147551894187927,96.2666473388672,-103.53321838378906,239.19891357421875
1700075070,0.74505615234375,0.3713226318359375,-0.2801361083984375,-0.1579299718141555,-0.095486044883728,0.5081425905227661,95.92927551269533,-103.06961059570312,238.7581787109375
1700075070,0.8392181396484375,0.2779083251953125,-0.260955810546875,-0.2762462496757507,0.2238954156637191,0.5352133512496948,95.77873229980467,-102.68937683105467,238.7665557861328
1700075070,0.870391845703125,0.237640380859375,-0.4049224853515625,-0.5444523692131042,0.944497287273407,0.7728378772735596,95.07225036621094,-102.00418090820312,237.33865356445312
1700075070,0.6654052734375,0.438262939453125,-0.946685791015625,-0.5414547324180603,1.2873525619506836,1.2768182754516602,95.70263671875,-101.01864624023438,237.12615966796875
1700075070,0.4157257080078125,0.779144287109375,-1.1904754638671875,-0.1054313480854034,1.4633289575576782,1.7814254760742188,96.495361328125,-101.26614379882812,238.3471527099609
1700075070,0.676849365234375,1.02508544921875,-1.4151153564453125,0.2396943569183349,1.6084893941879272,1.9198951721191408,96.13844299316406,-101.93148803710938,237.99777221679688
1700075070,1.0372161865234375,0.998626708984375,-1.7234649658203125,0.2340793460607528,0.2081183195114135,0.9954153299331664,95.59385681152344,-101.58836364746094,237.2967834472656
1700075070,2.4337310791015625,0.228118896484375,-0.1539154052734375,0.4736442565917969,0.4932182431221008,-0.6184160709381104,95.48492431640624,-101.01258850097656,236.2656707763672
1700075070,3.009368896484375,-0.8812713623046875,0.140167236328125,0.7716711759567261,0.955787718296051,-0.7494036555290222,95.4892578125,-100.08169555664062,235.99673461914065
1700075070,1.780120849609375,-0.829864501953125,-0.0102081298828125,1.0725897550582886,0.831601619720459,0.4260866045951843,95.41847229003906,-99.49957275390624,235.1273498535156
1700075070,0.865753173828125,-0.74627685546875,0.141448974609375,1.4213216304779053,0.937632977962494,1.5280646085739136,95.28961181640624,-99.51817321777344,235.2716217041016
1700075070,0.725189208984375,-1.107940673828125,0.124847412109375,0.7723731398582458,1.061695575714111,1.5386914014816284,95.1456298828125,-99.46711730957033,235.1280212402344
1700075070,0.960723876953125,-1.4457244873046875,-0.097991943359375,-0.3075447678565979,1.148546576499939,1.3462015390396118,95.3318328857422,-98.92794799804688,235.142578125
1700075070,1.0401763916015625,-1.172515869140625,-0.32501220703125,-0.9676803350448608,1.247781753540039,1.6554454565048218,95.4168701171875,-98.25685119628906,234.90768432617188
1700075070,1.0843658447265625,-0.563751220703125,-0.3472747802734375,-0.937114715576172,1.1267858743667605,1.8985286951065063,95.94801330566406,-98.17916870117188,234.9735412597656
1700075070,1.3245849609375,-0.159027099609375,-0.155242919921875,-0.6110758781433105,0.8181164264678955,1.9015287160873413,95.9205322265625,-97.63401794433594,235.21707153320312
1700075070,1.518829345703125,0.2334136962890625,-0.052215576171875,-0.183818832039833,0.427909255027771,1.398611545562744,95.9950714111328,-97.93006896972656,235.01138305664065
1700075070,1.5765380859375,0.473175048828125,-0.10748291015625,0.1076247319579124,0.1987479776144027,0.7739329934120178,95.82418823242188,-97.53607177734376,234.6394805908203
1700075070,1.479461669921875,0.7027130126953125,-0.2593536376953125,0.1511615514755249,0.1178331598639488,0.5180785655975342,95.6889190673828,-96.99632263183594,234.1289978027344
1700075070,1.3292083740234375,1.0199432373046875,-0.1707916259765625,-0.148795872926712,0.1976342499256134,0.4137423038482666,95.5430145263672,-96.75918579101562,234.5556488037109
1700075070,1.291107177734375,1.134979248046875,0.009796142578125,-0.2270573824644088,0.3333571851253509,0.1235166117548942,96.01425170898438,-96.26060485839844,234.7228546142578
1700075070,1.422637939453125,0.7176361083984375,0.0567474365234375,-0.1630637496709823,0.4501280188560486,-0.1388098150491714,96.12757873535156,-96.20416259765624,234.79737854003903
1700075070,1.3488006591796875,0.3099517822265625,-0.210479736328125,-0.0787627249956131,0.3887171149253845,-0.2189046442508697,96.13131713867188,-95.9181671142578,234.08746337890625
1700075070,1.097503662109375,0.1242828369140625,-0.437835693359375,0.0490149483084678,0.1411427408456802,-0.0504708960652351,96.095703125,-95.46623229980467,233.82505798339844
1700075070,0.92523193359375,0.012939453125,-0.4392852783203125,0.2579857409000397,-0.0247279834002256,0.1822225302457809,95.8581085205078,-95.6143035888672,234.4933624267578
1700075070,0.8799896240234375,-0.10699462890625,-0.35968017578125,0.3194347321987152,0.0122486762702465,0.2713468074798584,95.70938110351562,-95.1436767578125,234.99078369140625
1700075070,0.906768798828125,-0.1621856689453125,-0.2520294189453125,0.2592033445835113,0.084239512681961,0.2819536626338959,96.10769653320312,-95.46958923339844,234.33155822753903
1700075070,0.9340362548828124,-0.0235595703125,-0.212646484375,0.2439530044794082,0.1074934378266334,0.3007230758666992,96.16439819335938,-95.44378662109376,234.4891052246093
1700075070,0.9530487060546876,0.135833740234375,-0.24298095703125,0.1916192322969436,0.0823521316051483,0.2049491554498672,96.36280822753906,-95.0377197265625,234.607177734375
1700075070,1.02838134765625,0.16632080078125,-0.2613372802734375,0.1349570155143737,0.0898952707648277,0.1126826032996177,96.59564208984376,-94.87591552734376,234.87747192382807
1700075070,1.0524139404296875,0.1263885498046875,-0.259918212890625,0.1476501822471618,0.1124764755368232,0.1111925691366195,96.48878479003906,-94.9455108642578,234.53176879882807
1700075070,0.99029541015625,0.068572998046875,-0.2840423583984375,0.1642826795578003,0.0794373005628585,0.1694414913654327,96.9279327392578,-94.36677551269533,234.80270385742188
1700075070,0.9554443359375,0.0388336181640625,-0.32171630859375,0.1269305199384689,0.036790769547224,0.2356825619935989,97.00973510742188,-93.85519409179688,234.45040893554688
1700075070,0.941925048828125,0.065338134765625,-0.3372039794921875,0.0257953777909278,0.0367132723331451,0.2783666551113128,97.1328125,-93.47525024414062,234.68463134765625
1700075070,0.9288787841796876,0.0857391357421875,-0.2821807861328125,-0.0937773585319519,0.0732153579592704,0.3213441967964172,97.0373077392578,-93.1363525390625,235.0184326171875
1700075070,0.8882293701171875,0.0850830078125,-0.2516326904296875,-0.1553238034248352,0.1132842153310775,0.3912252783775329,97.10385131835938,-92.51123046875,234.5148468017578
1700075070,0.8623809814453125,0.056121826171875,-0.25433349609375,-0.154084101319313,0.1526404023170471,0.4888453185558319,97.2008819580078,-91.96954345703124,234.4408721923828
1700075070,0.881103515625,0.0065765380859375,-0.2414398193359375,-0.0918393731117248,0.2032284885644912,0.624338686466217,96.97579956054688,-91.25079345703124,234.33953857421875
1700075070,0.908447265625,-0.0352783203125,-0.2337188720703125,0.0251178704202175,0.2613346576690674,0.7814702391624451,96.87942504882812,-90.98895263671876,233.9530487060547
1700075070,0.92938232421875,-0.0561981201171875,-0.227081298828125,0.1273821890354156,0.2990663349628448,0.93913471698761,97.25328063964844,-90.04313659667969,233.5060577392578
1700075070,0.94512939453125,-0.0591888427734375,-0.21478271484375,0.1728804260492324,0.3516051769256592,1.0774019956588743,96.95709228515624,-89.16685485839844,233.14100646972656
1700075070,0.91595458984375,-0.032012939453125,-0.2511138916015625,0.1888042688369751,0.3849119842052459,1.1591936349868774,97.16683959960938,-88.35444641113281,232.80810546875
1700075070,0.8665924072265625,0.03076171875,-0.307403564453125,0.1724338233470916,0.4023945927619934,1.172173023223877,97.11514282226562,-87.5340576171875,232.33575439453125
1700075070,0.8375091552734375,0.133880615234375,-0.308135986328125,0.1287657022476196,0.4343264102935791,1.122933268547058,97.12486267089844,-86.50222778320312,233.1051025390625
1700075070,0.858673095703125,0.2353363037109375,-0.2663421630859375,0.110874056816101,0.4959109425544739,1.0841888189315796,96.8460693359375,-85.81025695800781,232.4330291748047
1700075070,0.8983306884765625,0.285308837890625,-0.2249298095703125,0.1777388304471969,0.5570070743560791,1.103108525276184,96.8157958984375,-84.61898803710938,231.7559509277344
1700075070,0.9243621826171876,0.2587738037109375,-0.2210540771484375,0.2789765000343323,0.5926806330680847,1.1845746040344238,96.40267944335938,-83.38069152832031,230.83258056640625
1700075070,0.9554443359375,0.1895751953125,-0.25555419921875,0.3426337838172912,0.6323692202568054,1.2676867246627808,96.29336547851562,-82.4056396484375,230.886947631836
1700075070,0.993927001953125,0.101806640625,-0.29876708984375,0.4096258580684662,0.6622498631477356,1.4067565202713013,96.23765563964844,-81.01998901367188,230.5012969970703
1700075070,0.9935455322265624,0.0402374267578125,-0.3044586181640625,0.4578389227390289,0.6859272122383118,1.6132359504699707,95.64529418945312,-79.92683410644531,230.4191436767578
1700075070,0.9156494140625,0.0017547607421875,-0.3475189208984375,0.4822856783866882,0.7125873565673828,1.8019129037857056,95.46432495117188,-78.87481689453125,229.88873291015625
1700075070,0.8056488037109375,0.0193634033203125,-0.3812713623046875,0.46048504114151,0.7120429873466492,1.8121495246887207,95.2865753173828,-77.77033996582031,229.27392578125
1700075070,0.7773895263671875,0.1767578125,-0.341064453125,0.4395664632320404,0.7475682497024536,1.748620867729187,94.93203735351562,-76.57733154296875,229.4139404296875
1700075070,0.8068084716796875,0.392364501953125,-0.302978515625,0.4844476282596588,0.8014298677444458,1.6603877544403076,94.74577331542967,-75.66995239257812,228.88824462890625
1700075070,0.9114532470703124,0.4963836669921875,-0.2689361572265625,0.6861091256141663,0.8109426498413086,1.628179669380188,94.19862365722656,-74.63868713378906,228.82730102539065
1700075070,1.007598876953125,0.482666015625,-0.293914794921875,0.8548834919929504,0.7999976277351379,1.6869407892227173,94.09275817871094,-72.84742736816406,228.77769470214844
1700075070,0.999114990234375,0.4472198486328125,-0.3944091796875,0.8995481729507446,0.7803171277046204,1.7671512365341189,93.49803161621094,-72.01817321777344,228.60641479492188
1700075070,1.01092529296875,0.3835296630859375,-0.408355712890625,0.8970338702201843,0.7485114932060242,1.908941626548767,93.0626220703125,-70.77944946289062,228.4750823974609
1700075070,1.1246185302734375,0.306793212890625,-0.31915283203125,0.7675890922546387,0.7538561820983887,1.9904745817184448,92.65078735351562,-69.47807312011719,227.7724456787109
1700075070,1.232208251953125,0.1997528076171875,-0.3536529541015625,0.6467747688293457,0.7400514483451843,2.183105707168579,92.45808410644533,-68.60176086425781,227.7180938720703
1700075070,1.032684326171875,0.240325927734375,-0.4842529296875,0.6700918078422546,0.720876157283783,2.2864460945129395,91.8483428955078,-66.92259216308594,227.8294982910156
1700075070,0.7551422119140625,0.300079345703125,-0.4857330322265625,0.6694419980049133,0.7114706635475159,2.2327895164489746,92.11068725585938,-65.76101684570312,227.8882293701172
1700075070,0.7173309326171875,0.469085693359375,-0.3748626708984375,0.6633138060569763,0.726621150970459,2.1112451553344727,91.13357543945312,-64.57896423339844,228.19190979003903
