timestamp,acc-x,acc-y,acc-z,gyr-x,gyr-y,gyr-z,mag-x,mag-y,mag-z
1700075305,3.102752685546875,-1.590667724609375,0.937286376953125,3.113932609558105,2.6524221897125244,0.4987221956253052,79.75205993652344,-40.346710205078125,265.2486877441406
1700075305,1.1678466796875,-0.6900482177734375,1.5943450927734375,1.5261704921722412,1.865670084953308,1.587384581565857,80.65533447265625,-41.08489990234375,266.12646484375
1700075305,0.2308502197265625,-0.1561737060546875,0.534912109375,-0.8065580129623413,1.2314051389694214,1.7735190391540527,81.22128295898438,-42.32965087890625,265.7865600585937
1700075305,0.3327178955078125,-0.06451416015625,0.0749053955078125,-1.9663872718811035,1.4372992515563965,1.569149374961853,81.89353942871094,-43.22837829589844,266.3860168457031
1700075305,0.9520263671875,-0.06634521484375,-0.0321502685546875,-1.7087690830230713,1.1898428201675415,1.5256205797195437,83.14973449707031,-44.4241943359375,265.9366149902344
1700075305,1.8114166259765625,0.1616973876953125,0.26116943359375,-1.674101710319519,0.9235994219779968,1.417009711265564,83.22238159179688,-45.58195495605469,265.5326538085937
1700075305,2.575958251953125,0.3611907958984375,0.1039581298828125,-1.366593599319458,1.0648667812347412,1.063390851020813,83.9111328125,-46.37571716308594,266.3247985839844
1700075305,3.1690216064453125,0.2517547607421875,-0.1512603759765625,-0.3225396871566772,1.1065751314163208,1.0275408029556274,84.86599731445312,-47.62033081054688,266.1000061035156
1700075305,2.8253936767578125,0.3096466064453125,-0.1191558837890625,0.2250906378030777,0.6911089420318604,1.2470227479934692,85.11740112304688,-48.71820068359375,266.43267822265625
1700075305,1.62347412109375,0.3964691162109375,-0.210784912109375,0.5630084872245789,0.4661304056644439,1.1919094324111938,85.9326171875,-49.52183532714844,266.9813232421875
1700075305,0.97174072265625,0.207122802734375,-0.468994140625,0.8136990666389465,0.2549569308757782,0.717060387134552,86.78605651855469,-50.80613708496094,267.0498962402344
1700075305,0.63543701171875,0.0843048095703125,-0.5994720458984375,0.5374160408973694,0.014590660110116,0.3460293114185333,87.35186767578125,-52.2392578125,267.1756591796875
1700075305,0.524627685546875,0.2270355224609375,-0.63494873046875,0.2988607287406921,-0.21049864590168,0.2542895376682281,87.50247192382812,-52.67436218261719,267.0446472167969
1700075305,0.694091796875,0.411895751953125,-0.4315032958984375,0.4691757559776306,-0.3100651800632477,0.0905141904950141,87.84109497070312,-53.907623291015625,267.4591064453125
1700075305,0.9679107666015624,0.41729736328125,-0.2060394287109375,0.6174014210700989,-0.3495912849903106,-0.1318001002073288,88.53811645507812,-54.8631591796875,267.7179870605469
1700075305,1.106414794921875,0.4207916259765625,-0.16595458984375,0.5712435245513916,-0.4082750976085663,-0.2919847071170807,88.75706481933594,-55.65010070800781,268.0560607910156
1700075305,1.1343994140625,0.4758453369140625,-0.1975860595703125,0.5100626945495605,-0.4168675243854522,-0.4643769860267639,89.02461242675781,-56.25990295410156,268.52496337890625
1700075305,1.1358489990234375,0.4915313720703125,-0.1582183837890625,0.4257071018218994,-0.3375183939933777,-0.6484621167182922,89.24855041503906,-57.17021179199219,268.53631591796875
1700075305,1.1564178466796875,0.44061279296875,-0.0965118408203125,0.1907222867012024,-0.2132185399532318,-0.7197336554527283,89.42768859863281,-57.81578063964844,269.2322998046875
1700075305,1.14947509765625,0.27484130859375,-0.120025634765625,-0.0355441458523273,-0.1330456733703613,-0.7230929732322693,89.82656860351562,-58.27264404296875,269.1161499023437
1700075305,1.105133056640625,0.02520751953125,-0.194488525390625,-0.0109751531854271,-0.188437819480896,-0.6336719989776611,89.51313781738281,-58.49021911621094,269.16265869140625
1700075305,1.0057525634765625,-0.0846405029296875,-0.217498779296875,0.2203129231929779,-0.3042368590831756,-0.4223139584064483,89.57994079589844,-58.98652648925781,269.4830322265625
1700075305,0.869598388671875,-0.0927734375,-0.1855621337890625,0.4345796704292297,-0.3102297782897949,-0.2153903394937515,89.50471496582031,-58.83465576171875,269.2319641113281
1700075305,0.7606048583984375,-0.0317535400390625,-0.164764404296875,0.4465828239917755,-0.2239220440387725,-0.1278988420963287,89.72666931152344,-59.49977111816406,269.5760498046875
1700075305,0.69091796875,0.101287841796875,-0.2045745849609375,0.375008225440979,-0.1797151714563369,-0.1258924156427383,89.55586242675781,-59.54267883300781,270.3453063964844
1700075305,0.621612548828125,0.1600799560546875,-0.257110595703125,0.3845426142215729,-0.1460815817117691,-0.1721446067094802,89.671875,-59.67637634277344,270.52569580078125
1700075305,0.6226806640625,0.1129913330078125,-0.298980712890625,0.3895491063594818,-0.1073110103607177,-0.1743422448635101,89.38531494140625,-59.59519958496094,271.0589599609375
1700075305,0.6786956787109375,0.0525970458984375,-0.2796478271484375,0.2827938795089721,-0.0465075820684433,-0.042535476386547,89.35906982421875,-59.062896728515625,270.9686279296875
1700075305,0.72979736328125,0.0265045166015625,-0.2165679931640625,0.1290362775325775,-0.0225391313433647,0.0618860051035881,89.41410827636719,-59.22358703613281,271.3436889648437
1700075305,0.7888641357421875,-0.02679443359375,-0.1856536865234375,-0.0674352347850799,0.0019885823130607,0.175601378083229,88.98918151855469,-59.09523010253906,270.8209228515625
1700075305,0.840484619140625,-0.0510406494140625,-0.2443389892578125,-0.2355715036392212,-0.0267852749675512,0.2703561186790466,89.26881408691406,-58.86585998535156,270.564453125
1700075305,0.8708038330078125,0.0077667236328125,-0.279815673828125,-0.2801986336708069,-0.056754358112812,0.3153675496578216,88.7335205078125,-58.41673278808594,270.60955810546875
1700075305,0.9303436279296876,0.092315673828125,-0.2309417724609375,-0.2311778217554092,-0.0449517630040645,0.3318855166435241,88.53712463378906,-57.78794860839844,270.67333984375
1700075305,0.9748382568359376,0.1825408935546875,-0.138916015625,-0.186435654759407,0.0329086817800998,0.3439216911792755,88.50621032714844,-57.39044189453125,270.26666259765625
1700075305,0.9758453369140624,0.2017974853515625,-0.059295654296875,-0.0790492817759513,0.146669328212738,0.4056476354598999,87.83219909667969,-56.82228088378906,270.3277282714844
1700075305,0.922271728515625,0.10888671875,-0.0438385009765625,-0.0651686191558837,0.2156103253364563,0.5305855870246887,87.88369750976562,-56.25688171386719,269.8075561523437
1700075305,0.912384033203125,-0.0293426513671875,-0.096771240234375,-0.2047379612922668,0.2409196645021438,0.6945793032646179,87.44367980957031,-55.78375244140625,269.39508056640625
1700075305,0.9826812744140624,-0.1246795654296875,-0.1830596923828125,-0.3721067309379577,0.2233196347951889,0.8597051501274109,87.06755065917969,-54.98768615722656,268.8306884765625
1700075305,1.067657470703125,-0.1356353759765625,-0.266845703125,-0.476955384016037,0.147135391831398,0.9833794236183168,86.22747802734375,-53.878021240234375,267.529052734375
1700075305,1.142791748046875,-0.0754547119140625,-0.2863922119140625,-0.4955002963542938,0.0695146322250366,1.0472955703735352,85.66644287109375,-53.26667785644531,268.10919189453125
1700075305,1.179656982421875,0.0501708984375,-0.238311767578125,-0.4437217712402344,0.0496911220252513,1.0946710109710691,86.00260925292969,-53.53707885742188,268.54302978515625
1700075305,1.138916015625,0.1831817626953125,-0.1483612060546875,-0.3452239632606506,0.1014075800776481,1.117255687713623,85.87672424316406,-53.43247985839844,269.12860107421875
1700075305,1.0848236083984375,0.2355194091796875,-0.0859375,-0.2294662147760391,0.1669647544622421,1.1294509172439575,85.79541015625,-53.33348083496094,268.8461303710937
1700075305,1.06341552734375,0.2045440673828125,-0.082977294921875,-0.1446226984262466,0.1888575404882431,1.177910327911377,85.25506591796875,-52.62019348144531,268.728271484375
1700075305,1.078460693359375,0.153717041015625,-0.1175537109375,-0.1465071439743042,0.1625095456838607,1.2603273391723633,85.30708312988281,-52.568603515625,268.98260498046875
1700075305,1.1228179931640625,0.1168212890625,-0.14947509765625,-0.1838609129190445,0.1266242563724517,1.3590153455734253,84.87515258789062,-52.1546630859375,268.69732666015625
1700075305,1.1731109619140625,0.104644775390625,-0.17926025390625,-0.1790389865636825,0.0809923186898231,1.4207026958465576,84.44776916503906,-51.873138427734375,267.9779357910156
1700075305,1.20501708984375,0.127410888671875,-0.2138671875,-0.114877313375473,0.0344605036079883,1.4410556554794312,83.9398193359375,-51.213623046875,267.9210205078125
1700075305,1.2293853759765625,0.15509033203125,-0.2052154541015625,-0.0119072590023279,0.0105080343782901,1.4801537990570068,83.85519409179688,-51.056427001953125,267.60430908203125
1700075305,1.220703125,0.177154541015625,-0.1601409912109375,0.0758508220314979,0.006622748915106,1.554864764213562,84.06169128417969,-50.86415100097656,267.02276611328125
1700075305,1.1955718994140625,0.1601104736328125,-0.13092041015625,0.1652787029743194,-0.0114569189026951,1.655955195426941,83.61470031738281,-50.59626770019531,266.8946533203125
1700075305,1.1857452392578125,0.10589599609375,-0.11798095703125,0.2572421729564667,-0.0528142116963863,1.7833349704742432,83.6719970703125,-50.52587890625,266.2099609375
1700075305,1.2432098388671875,0.0462188720703125,-0.110504150390625,0.2806753516197204,-0.0977976694703102,1.8915027379989624,83.67906188964844,-49.91667175292969,266.0123596191406
1700075305,1.3455810546875,-0.0040283203125,-0.1532135009765625,0.276227593421936,-0.1304725259542465,1.9910351037979128,83.41490173339844,-49.53602600097656,265.9378662109375
1700075305,1.41241455078125,-0.054901123046875,-0.1730499267578125,0.305737555027008,-0.1402361989021301,2.121216297149658,82.83950805664062,-49.41302490234375,266.206298828125
1700075305,1.4077606201171875,-0.098480224609375,-0.10858154296875,0.394167810678482,-0.1570109277963638,2.262657403945923,83.06242370605469,-49.46650695800781,265.8421630859375
1700075305,1.3743133544921875,-0.113006591796875,0.0025787353515625,0.447110116481781,-0.2181770801544189,2.372877836227417,82.93147277832031,-49.67901611328125,266.20709228515625
1700075305,1.412689208984375,-0.1104736328125,0.113739013671875,0.4235877394676208,-0.301742821931839,2.4313671588897705,82.497802734375,-49.14768981933594,266.19342041015625
1700075305,1.559600830078125,-0.1600189208984375,0.1622161865234375,0.3335635960102081,-0.2858797013759613,2.4066946506500244,83.32562255859375,-49.188995361328125,266.2308349609375
1700075305,1.698272705078125,-0.2849273681640625,0.070648193359375,0.2060447782278061,-0.1372252404689788,2.279804944992065,83.0499267578125,-49.47969055175781,266.27899169921875
1700075305,1.714599609375,-0.4510650634765625,-0.0932464599609375,-0.0099112205207347,0.042670764029026,2.3604445457458496,83.05093383789062,-49.30747985839844,266.7178649902344
1700075305,1.5602264404296875,-0.43865966796875,-0.3227996826171875,-0.6416380405426025,0.2168620079755783,2.605278491973877,82.7374267578125,-49.64067077636719,267.0564270019531
1700075305,1.320648193359375,-0.304290771484375,-0.7213134765625,-1.2779804468154907,0.2690277397632599,2.8307621479034424,83.08799743652344,-49.68782043457031,267.02734375
1700075305,1.10760498046875,-0.2644500732421875,-1.01123046875,-1.5924904346466064,0.1595627665519714,2.9953606128692627,82.83955383300781,-49.68666076660156,267.3126220703125
1700075305,0.8799591064453125,-0.17041015625,-1.153839111328125,-1.6558467149734497,0.152663841843605,3.023056507110596,83.27297973632812,-49.56132507324219,266.8102111816406
1700075305,0.7624664306640625,-0.10369873046875,-1.3462982177734375,-1.6536136865615845,0.0375028997659683,2.963928461074829,83.15594482421875,-49.35884094238281,266.94287109375
1700075305,0.8013763427734375,-0.0087432861328125,-1.3044891357421875,-1.6324431896209717,-0.0885639563202858,2.900375843048096,82.82737731933594,-49.18144226074219,266.9399719238281
1700075305,0.8640594482421875,0.143524169921875,-1.2141876220703125,-1.5741751194000244,-0.3980365991592407,2.700977087020874,82.8653564453125,-49.42181396484375,267.2074584960937
1700075305,0.8864898681640625,0.2863922119140625,-1.0421295166015625,-1.821903944015503,-0.9358595609664916,2.3683831691741943,82.88932800292969,-49.28289794921875,266.6336669921875
1700075305,1.0027618408203125,0.419525146484375,-0.5715789794921875,-2.4221854209899902,-1.0991188287734983,1.8955059051513672,82.87185668945312,-49.05558776855469,267.0331115722656
1700075305,1.0052642822265625,0.6944427490234375,-0.069732666015625,-2.5299313068389893,-0.8841396570205688,1.2883167266845703,82.62199401855469,-48.95536804199219,266.9745483398437
1700075305,0.8196258544921875,0.594085693359375,0.168853759765625,-1.8318803310394287,-0.7835837602615356,0.7938342690467834,82.56742858886719,-48.849395751953125,266.83740234375
1700075305,0.6571502685546875,0.076171875,0.257354736328125,-1.6046695709228516,-0.9392801523208618,0.5169270038604736,82.05134582519531,-48.4853515625,266.7745666503906
1700075305,0.5499114990234375,-0.1196441650390625,0.049285888671875,-1.7866090536117554,-1.1833984851837158,0.4616829454898834,82.53767395019531,-47.98762512207031,266.28662109375
1700075305,0.4816131591796875,-0.147857666015625,-0.16949462890625,-2.017820358276367,-1.3979052305221558,0.3777395784854889,81.71994018554688,-47.92681884765625,266.4359741210937
1700075305,0.4744873046875,-0.2360382080078125,-0.2438201904296875,-2.2033674716949463,-1.5499320030212402,0.1985245496034622,81.623779296875,-47.58369445800781,266.5199584960937
1700075305,0.4894866943359375,-0.3014068603515625,-0.296051025390625,-2.336972951889038,-1.6588598489761353,-0.0167355705052614,81.18901062011719,-47.32707214355469,265.7601928710937
1700075305,0.466766357421875,-0.303955078125,-0.3780364990234375,-2.4842329025268555,-1.7620229721069336,-0.2371672689914703,80.26904296875,-47.00898742675781,265.95587158203125
1700075305,0.4585723876953125,-0.2880096435546875,-0.4710235595703125,-2.605477333068848,-1.9256601333618164,-0.5750124454498291,80.07345581054688,-46.42411804199219,265.631591796875
1700075305,0.559295654296875,-0.268646240234375,-0.4835662841796875,-2.653680324554444,-2.160584688186645,-0.9803482294082642,80.13821411132812,-46.06466674804688,265.66510009765625
1700075305,0.7280426025390625,-0.2010650634765625,-0.3960418701171875,-2.792879343032837,-2.3929319381713867,-1.3238980770111084,79.64677429199219,-45.72027587890625,265.5660400390625
1700075305,0.82177734375,-0.1107177734375,-0.33648681640625,-3.0456058979034424,-2.5722556114196777,-1.5895612239837646,79.17204284667969,-45.18714904785156,265.6831359863281
1700075305,0.81103515625,-0.02239990234375,-0.358612060546875,-3.3019940853118896,-2.6913962364196777,-1.7517740726470947,78.56430053710938,-44.72569274902344,265.8740234375
1700075305,0.748870849609375,0.06121826171875,-0.428131103515625,-3.483144521713257,-2.807544946670532,-1.8518139123916624,78.14358520507812,-44.2791748046875,265.80865478515625
1700075305,0.7201385498046875,0.0842437744140625,-0.477569580078125,-3.607175350189209,-2.91017484664917,-1.9517990350723269,77.54914855957031,-43.6165771484375,265.78326416015625
1700075306,0.747711181640625,0.0609588623046875,-0.5115509033203125,-3.714441299438477,-2.9938783645629883,-2.018797874450684,77.39707946777344,-43.68998718261719,265.2562866210937
1700075306,0.7874908447265625,0.0690765380859375,-0.5386962890625,-3.845271348953247,-3.066201448440552,-2.051510095596313,76.77290344238281,-43.40948486328125,265.8150634765625
1700075306,0.828826904296875,0.116424560546875,-0.57073974609375,-4.030081748962402,-3.141209125518799,-2.095545768737793,76.43441772460938,-43.01734924316406,265.5132141113281
1700075306,0.88165283203125,0.1689605712890625,-0.590850830078125,-4.289058685302734,-3.2250800132751465,-2.1920511722564697,75.77987670898438,-42.63670349121094,265.802001953125
1700075306,0.9516448974609376,0.187652587890625,-0.5817108154296875,-4.610785007476807,-3.318296194076538,-2.336536407470703,75.50337219238281,-42.32044982910156,265.9607238769531
1700075306,1.032989501953125,0.177398681640625,-0.5527801513671875,-4.929073333740234,-3.394238948822021,-2.4627718925476074,74.55238342285156,-42.33445739746094,265.480224609375
1700075306,1.091339111328125,0.178863525390625,-0.5264434814453125,-5.155919075012207,-3.44559383392334,-2.50659441947937,74.31687927246094,-41.73616027832031,265.5633850097656
1700075306,1.124908447265625,0.1976470947265625,-0.535675048828125,-5.298495292663574,-3.485818862915039,-2.498006582260132,73.69252014160156,-41.535552978515625,265.37176513671875
1700075306,1.1650238037109375,0.2262115478515625,-0.5994110107421875,-5.398115634918213,-3.5172486305236816,-2.4693989753723145,72.95294189453125,-41.1146240234375,265.6065673828125
1700075306,1.22503662109375,0.2555694580078125,-0.6913604736328125,-5.548050403594971,-3.528733491897583,-2.4379093647003174,72.28750610351562,-40.78431701660156,265.3843994140625
1700075306,1.3050079345703125,0.271087646484375,-0.803741455078125,-5.826441287994385,-3.51098895072937,-2.3651680946350098,71.93598937988281,-40.252685546875,265.6511535644531
1700075306,1.3819580078125,0.28607177734375,-0.924041748046875,-6.169539451599121,-3.4626259803771973,-2.206047534942627,71.02784729003906,-39.94477844238281,265.5487365722656
1700075306,1.449310302734375,0.2930908203125,-1.0075531005859375,-6.44437313079834,-3.385491371154785,-1.970530390739441,70.57267761230469,-39.98860168457031,265.4310302734375
1700075306,1.44659423828125,0.2878265380859375,-1.073822021484375,-6.643829345703125,-3.249011993408203,-1.6638778448104858,70.0750732421875,-39.474945068359375,265.6351928710937
1700075306,1.388763427734375,0.2781829833984375,-1.1426239013671875,-6.732752323150635,-3.0809333324432373,-1.3050304651260376,69.52789306640625,-39.440277099609375,265.04376220703125
1700075306,1.3400421142578125,0.2744293212890625,-1.193328857421875,-6.59824800491333,-2.8709876537323,-1.0655637979507446,69.27839660644531,-39.121185302734375,265.65301513671875
1700075306,1.3233489990234375,0.234588623046875,-1.23712158203125,-6.316407203674316,-2.646733522415161,-0.8024993538856506,68.49052429199219,-38.76390075683594,265.7491760253906
1700075306,1.155609130859375,0.336029052734375,-1.3347320556640625,-5.845875263214111,-2.4027531147003174,-0.6821692585945129,68.51788330078125,-38.665771484375,265.0984802246094
1700075306,0.963165283203125,0.4552154541015625,-1.4136962890625,-5.2613844871521,-2.051133155822754,-0.737825334072113,67.92866516113281,-38.80873107910156,264.733642578125
1700075306,0.8475799560546875,0.5504302978515625,-1.421295166015625,-4.497754096984863,-1.6118239164352417,-0.867254912853241,67.63359069824219,-38.727386474609375,264.25701904296875
1700075306,0.7854766845703125,0.6688690185546875,-1.326385498046875,-3.478881597518921,-1.1469987630844116,-0.9341303706169128,67.7572021484375,-38.12760925292969,263.68817138671875
1700075306,0.7657318115234375,0.779876708984375,-1.1525726318359375,-2.4957971572875977,-0.7322227954864502,-0.8827193975448608,67.76248168945312,-38.20722961425781,263.166015625
1700075306,0.72412109375,0.8530731201171875,-1.0398712158203125,-1.6957273483276367,-0.3504754602909088,-0.826443076133728,68.03262329101562,-38.30320739746094,262.4395751953125
1700075306,0.695892333984375,0.7840423583984375,-1.0218048095703125,-1.0179307460784912,0.0001451422722311,-0.7826263308525085,68.11582946777344,-38.20558166503906,262.4186706542969
1700075306,0.71478271484375,0.589935302734375,-1.0121002197265625,-0.5202730298042297,0.2209776490926742,-0.6606373190879822,68.80953979492188,-38.48532104492188,262.26959228515625
1700075306,0.7144622802734375,0.4421844482421875,-0.9839935302734376,-0.2185789495706558,0.3941829800605774,-0.4112722277641296,69.83599853515625,-38.242767333984375,262.1354675292969
1700075306,0.73773193359375,0.3665924072265625,-0.950927734375,-0.0840083509683609,0.6496363282203674,-0.156734749674797,70.94512939453125,-38.48814392089844,262.3248291015625
1700075306,0.62841796875,0.3294830322265625,-1.0627288818359375,-0.0260401219129562,0.9000679850578308,-0.0381471179425716,72.08255004882812,-38.468353271484375,262.3549194335937
1700075306,0.6204986572265625,0.2021331787109375,-1.0767364501953125,0.162115141749382,0.9245813488960266,0.0976852774620056,73.14717102050781,-38.64881896972656,261.91961669921875
1700075306,0.7449188232421875,0.09747314453125,-0.7894287109375,0.5289152264595032,0.608426570892334,0.1547685414552688,74.61244201660156,-38.94415283203125,262.1621398925781
1700075306,1.089508056640625,-0.05328369140625,-0.1601104736328125,0.78879314661026,0.0420864671468734,-0.2879708111286163,76.06155395507812,-39.29814147949219,262.34234619140625
1700075306,1.710479736328125,-0.419097900390625,0.64361572265625,-0.3137845695018768,0.7149008512496948,-0.2217172086238861,77.31478881835938,-39.38323974609375,262.396728515625
1700075306,1.8463592529296875,-0.4310302734375,0.4384002685546875,-1.3427541255950928,1.610756516456604,0.5962106585502625,78.87934875488281,-39.88916015625,261.90380859375
1700075306,1.5343170166015625,-0.064910888671875,0.0024261474609375,-1.1277179718017578,1.7539418935775757,1.2631224393844604,80.46017456054688,-40.66429138183594,261.6042785644531
1700075306,1.3124237060546875,0.26324462890625,-0.0106353759765625,-0.5820828676223755,1.1973832845687866,1.003467679023743,82.25624084472656,-41.20967102050781,260.8765563964844
1700075306,1.152984619140625,0.2826995849609375,-0.2158355712890625,-0.7762715220451355,0.6593760251998901,0.3848118484020233,83.80424499511719,-42.25830078125,260.8947448730469
1700075306,1.120452880859375,0.3674468994140625,-0.3498077392578125,-1.236038088798523,0.4180073738098144,0.1755997836589813,85.39088439941406,-43.6251220703125,261.0390625
1700075306,0.997589111328125,0.6359405517578125,-0.00433349609375,-0.9561802744865416,0.7926848530769348,-0.0593669191002845,87.07972717285156,-44.6165771484375,260.5965576171875
1700075306,0.927093505859375,0.6423492431640625,0.3352813720703125,0.0566185377538204,1.3916281461715698,-0.4345112442970276,88.82162475585938,-46.1917724609375,259.81219482421875
1700075306,0.9641571044921876,0.303985595703125,0.176239013671875,0.2514412999153137,1.526868224143982,-0.6230769157409668,90.12425231933594,-47.739288330078125,259.283447265625
1700075306,1.0004425048828125,0.22503662109375,-0.1360626220703125,-0.0897530540823936,1.2642492055892944,-0.6468562483787537,91.79214477539062,-49.10588073730469,259.46435546875
1700075306,1.0649871826171875,0.182830810546875,-0.256439208984375,-0.5793174505233765,0.8737711906433105,-0.5454510450363159,93.17630004882812,-50.82978820800781,259.4622802734375
1700075306,1.0584259033203125,0.0347747802734375,-0.40716552734375,-0.867461085319519,0.6026568412780762,-0.3946037590503692,94.81068420410156,-52.6722412109375,259.36846923828125
1700075306,1.0414276123046875,-0.154876708984375,-0.4220733642578125,-0.8825145959854126,0.4319183826446533,-0.3014242947101593,95.7501220703125,-54.7513427734375,259.3897399902344
1700075306,1.07952880859375,-0.3407745361328125,-0.2862091064453125,-0.7293466329574585,0.3643151223659515,-0.1299974173307418,97.14097595214844,-56.581146240234375,259.60601806640625
1700075306,1.0463714599609375,-0.36968994140625,-0.1963043212890625,-0.6390864849090576,0.3552939295768738,0.1576221138238906,98.04571533203124,-58.93070983886719,259.39697265625
1700075306,0.9446563720703124,-0.251800537109375,-0.155670166015625,-0.5605336427688599,0.376907080411911,0.2947331070899963,98.81494140625,-61.2314453125,259.6021728515625
1700075306,0.94342041015625,-0.1509552001953125,-0.08221435546875,-0.4937058389186859,0.4055855870246887,0.2699044644832611,99.70814514160156,-62.84977722167969,260.1485290527344
1700075306,0.9632568359375,-0.0276336669921875,-0.0419158935546875,-0.4688881337642669,0.4389805495738983,0.1627974361181259,99.740966796875,-65.09506225585938,259.9219055175781
1700075306,0.960418701171875,0.082000732421875,-0.013641357421875,-0.4568690061569214,0.4723409116268158,0.0342130959033966,100.65512084960938,-67.33721923828125,260.7532653808594
1700075306,0.988006591796875,0.177764892578125,-0.0151214599609375,-0.480432391166687,0.4820462763309479,-0.0942319631576538,100.85829162597656,-68.88076782226562,261.27593994140625
1700075306,1.0458984375,0.2215118408203125,-0.053070068359375,-0.5410640239715576,0.4751074016094208,-0.229229986667633,100.85665893554688,-70.88887023925781,261.7862548828125
1700075306,1.07989501953125,0.140533447265625,-0.0741729736328125,-0.6322805285453796,0.4830625355243683,-0.2733399271965027,101.0509033203125,-72.35858154296875,262.6241455078125
1700075306,1.02752685546875,-0.001220703125,-0.081878662109375,-0.694051206111908,0.5032240152359009,-0.2315983474254608,100.95501708984376,-73.53392028808594,263.19757080078125
1700075306,0.964324951171875,-0.126251220703125,-0.09173583984375,-0.6406875848770142,0.4878327846527099,-0.1178621873259544,101.3401336669922,-75.220947265625,263.2791748046875
1700075306,0.914215087890625,-0.2006988525390625,-0.1206817626953125,-0.3777906894683838,0.4418980479240417,0.0344599708914756,101.2944793701172,-76.58244323730469,263.3519897460937
1700075306,0.8957366943359375,-0.2055816650390625,-0.11810302734375,-0.2001919448375702,0.418077141046524,0.1120809987187385,101.20924377441406,-77.545166015625,263.86065673828125
1700075306,0.937286376953125,-0.1248626708984375,-0.1385650634765625,-0.2335515022277832,0.419457197189331,0.0932271480560302,101.21267700195312,-78.03437805175781,263.8548583984375
1700075306,0.9858551025390624,-0.0508575439453125,-0.11029052734375,-0.3623084127902984,0.4605817198753357,0.0604364462196826,101.03195190429688,-79.08869934082031,263.897705078125
1700075306,0.9709014892578124,0.0046539306640625,-0.1210479736328125,-0.3819934427738189,0.4674537479877472,0.0911067426204681,100.98643493652344,-79.14906311035156,263.8748474121094
1700075306,0.9532623291015624,0.0661773681640625,-0.1628875732421875,-0.4060026407241821,0.4314640462398529,0.0855889394879341,100.75804138183594,-79.55317687988281,263.3027648925781
1700075306,1.01141357421875,0.062286376953125,-0.18865966796875,-0.4651820659637451,0.4038105905056,0.0890997797250747,101.1620635986328,-79.39646911621094,263.305419921875
1700075306,1.0501708984375,0.0087890625,-0.16162109375,-0.4953868389129638,0.4173495769500732,0.1400524377822876,101.2646484375,-80.181884765625,262.74932861328125
1700075306,1.0107421875,-0.0557098388671875,-0.141845703125,-0.5658751130104065,0.4079174399375915,0.1798232942819595,101.13685607910156,-80.16868591308594,262.6058959960937
1700075306,0.9824676513671876,-0.1222686767578125,-0.1660308837890625,-0.644889235496521,0.38064906001091,0.2566520273685455,101.01083374023438,-79.77886962890625,261.89849853515625
1700075306,0.95257568359375,-0.1104583740234375,-0.2243194580078125,-0.6759909987449646,0.3366483151912689,0.2998170852661133,100.7518310546875,-79.74014282226562,261.45318603515625
1700075306,0.9568634033203124,-0.05255126953125,-0.2720794677734375,-0.7071648836135864,0.2937328219413757,0.2883777320384979,100.72830200195312,-79.71932983398438,261.4178466796875
1700075306,0.9754638671875,0.0191497802734375,-0.2595977783203125,-0.7740621566772461,0.2671206593513489,0.2590853571891784,101.1453857421875,-79.49990844726562,261.1240234375
1700075306,0.9914703369140624,0.060791015625,-0.182769775390625,-0.8245394229888916,0.2680596709251404,0.2579678893089294,100.67170715332033,-79.83212280273438,260.61505126953125
1700075306,0.99517822265625,0.043792724609375,-0.1419830322265625,-0.8300988078117371,0.2511752247810364,0.282054603099823,100.52694702148438,-79.38009643554688,260.2284851074219
1700075306,0.9941558837890624,0.0055694580078125,-0.1670989990234375,-0.8357265591621399,0.2146723568439483,0.3006314635276794,100.41763305664062,-78.60997009277344,259.47998046875
1700075306,1.0127410888671875,-0.0174560546875,-0.20001220703125,-0.7976303100585938,0.1756216287612915,0.307312548160553,100.34640502929688,-78.30455017089844,258.1025695800781
1700075306,1.0195465087890625,0.0090179443359375,-0.227325439453125,-0.6990907192230225,0.1344659328460693,0.2720096707344055,100.31413269042967,-77.75595092773438,257.1026611328125
1700075306,1.0189971923828125,0.0720367431640625,-0.22601318359375,-0.5946564078330994,0.1168392673134803,0.206438660621643,98.94393920898438,-76.66938781738281,253.8721160888672
1700075306,1.01806640625,0.1243133544921875,-0.16357421875,-0.5184798836708069,0.1462634652853012,0.1419227868318557,98.69244384765624,-75.92646789550781,253.99620056152344
1700075306,0.9993743896484376,0.1043548583984375,-0.0996246337890625,-0.4813429415225982,0.1999677121639251,0.1214814260601997,98.58189392089844,-75.89164733886719,254.70880126953125
1700075306,0.9715118408203124,0.0223236083984375,-0.107574462890625,-0.5412986874580383,0.2135378420352935,0.1356057673692703,98.39891052246094,-76.01982116699219,254.35064697265625
1700075306,0.95977783203125,-0.069580078125,-0.1702880859375,-0.6173798441886902,0.1862862557172775,0.1829663515090942,97.41140747070312,-75.44439697265625,252.9363250732422
1700075306,0.96551513671875,-0.113433837890625,-0.2260589599609375,-0.6181524395942688,0.1344563513994217,0.2592816352844238,96.97764587402344,-75.181884765625,251.4275817871093
1700075306,0.9753570556640624,-0.1008758544921875,-0.25714111328125,-0.5401061177253723,0.0820730328559875,0.2930079102516174,96.89445495605467,-74.43673706054688,251.62957763671875
1700075306,0.99755859375,-0.0495147705078125,-0.2462005615234375,-0.4297939836978912,0.0522488243877887,0.2565923631191253,96.14981079101562,-74.5789794921875,250.4666748046875
1700075306,1.006072998046875,0.040771484375,-0.2203826904296875,-0.3426830470561981,0.0452106222510337,0.2281916290521621,95.8620147705078,-74.03030395507812,249.5782623291016
1700075306,0.9943389892578124,0.11700439453125,-0.1894378662109375,-0.2567662894725799,0.0505811534821987,0.1874769479036331,95.48130798339844,-74.0123291015625,249.23416137695312
1700075306,0.98931884765625,0.113067626953125,-0.164703369140625,-0.2034740298986435,0.0643712654709816,0.164877101778984,95.26380920410156,-74.09060668945312,249.33306884765625
1700075306,0.9730377197265624,0.0555572509765625,-0.1530609130859375,-0.1947822719812393,0.0822511985898017,0.1782512366771698,95.00839233398438,-73.90733337402344,248.6704559326172
1700075306,0.96392822265625,-0.0120391845703125,-0.14556884765625,-0.2311831563711166,0.1038744673132896,0.214101105928421,95.22799682617188,-73.45108032226562,248.5581512451172
1700075306,0.9685211181640624,-0.0584259033203125,-0.1493682861328125,-0.3004700839519501,0.1095491275191307,0.2631821036338806,95.4131317138672,-73.00117492675781,248.25816345214844
1700075306,0.9704742431640624,-0.063568115234375,-0.197113037109375,-0.3391279876232147,0.068709023296833,0.2922829985618591,94.97677612304688,-72.66831970214844,248.74278259277344
1700075306,0.99169921875,-0.0433197021484375,-0.2291107177734375,-0.3499585390090942,0.0287794508039951,0.3048997223377228,95.30917358398438,-72.32876586914062,248.4633026123047
1700075306,1.0170440673828125,-0.0390472412109375,-0.2325439453125,-0.3279736042022705,-0.0056925066746771,0.3250089883804321,95.42361450195312,-71.9896240234375,248.7047119140625
1700075306,1.0023956298828125,-0.0214385986328125,-0.25872802734375,-0.3205798864364624,-0.0551652498543262,0.3280985057353973,95.36990356445312,-71.90060424804688,249.0479736328125
1700075306,0.987457275390625,0.0148162841796875,-0.2629852294921875,-0.3463142812252044,-0.0859447345137596,0.3160682022571563,95.42617797851562,-72.03123474121094,249.19029235839844
1700075306,0.987213134765625,0.07794189453125,-0.2423248291015625,-0.3521575033664703,-0.09689911454916,0.2869750559329986,95.2626953125,-71.87997436523438,249.5328063964844
1700075306,0.989776611328125,0.130767822265625,-0.2129974365234375,-0.2983976006507873,-0.0968253463506698,0.2346833497285843,95.5299835205078,-71.64414978027344,249.3797912597656
1700075306,0.9939117431640624,0.126983642578125,-0.1814422607421875,-0.2408243268728256,-0.0774431228637695,0.206217348575592,95.39851379394533,-71.89022827148438,249.5487060546875
1700075306,0.9833221435546876,0.1046142578125,-0.154022216796875,-0.2217814028263092,-0.0571495741605758,0.2039480656385421,95.76101684570312,-72.15614318847656,250.1168365478516
1700075306,0.9771881103515624,0.0687103271484375,-0.1401519775390625,-0.2127279788255691,-0.0439693219959735,0.2003445476293563,95.93115234375,-72.09457397460938,249.9281616210937
1700075306,0.9857940673828124,0.01544189453125,-0.14532470703125,-0.2102304697036743,-0.0352181755006313,0.2092442959547042,95.53054809570312,-72.41732788085938,250.6026763916016
1700075306,0.991241455078125,0.00335693359375,-0.176300048828125,-0.1945460438728332,-0.0608106181025505,0.2371952384710312,95.90071105957033,-72.5133056640625,250.1580352783203
1700075307,0.9913787841796876,0.0207366943359375,-0.207244873046875,-0.1575693935155868,-0.0975366756319999,0.2417580336332321,95.84211730957033,-72.29972839355469,250.75457763671875
1700075307,1.0072479248046875,0.03533935546875,-0.2089385986328125,-0.1127427965402603,-0.117227554321289,0.2207230627536773,96.0032958984375,-71.77607727050781,250.2279052734375
1700075307,1.0030670166015625,0.0582275390625,-0.2124176025390625,-0.0534664206206798,-0.1381986141204834,0.2047014832496643,96.0098876953125,-72.29608154296875,250.7354888916016
1700075307,0.991607666015625,0.06396484375,-0.209808349609375,-0.0037515950389206,-0.1575912237167358,0.1973753869533538,96.31330871582033,-72.25048828125,250.55422973632807
1700075307,0.984527587890625,0.0611572265625,-0.2091522216796875,0.0633973479270935,-0.1717864125967025,0.2032945305109024,96.13687133789062,-72.30033874511719,250.7177581787109
1700075307,0.9808349609375,0.0619964599609375,-0.19451904296875,0.1059392169117927,-0.1662667393684387,0.2054642140865326,96.17912292480467,-72.01329040527344,250.9442138671875
1700075307,0.9842376708984376,0.0832672119140625,-0.15936279296875,0.1584450304508209,-0.1360505074262619,0.1940472424030304,96.36431884765624,-72.06080627441406,250.7161560058593
1700075307,0.992218017578125,0.097442626953125,-0.1321563720703125,0.2397374957799911,-0.1005580350756645,0.1950792074203491,96.05368041992188,-72.24026489257812,250.7425842285156
1700075307,0.9933624267578124,0.0822601318359375,-0.1093292236328125,0.2858048677444458,-0.0756191238760948,0.2172151356935501,95.99566650390624,-72.34059143066406,251.0287170410156
1700075307,0.992584228515625,0.0481109619140625,-0.10467529296875,0.2405779808759689,-0.0555809698998928,0.2500103712081909,96.30728149414062,-71.82307434082031,251.09353637695312
1700075307,0.99542236328125,-0.0031280517578125,-0.1241302490234375,0.1568508595228195,-0.0419972501695156,0.2971211671829223,95.88101196289062,-71.7584228515625,250.6409912109375
1700075307,0.99114990234375,-0.052337646484375,-0.173248291015625,0.1112801879644393,-0.0692102313041687,0.3490805029869079,95.99606323242188,-71.91943359375,250.5289459228516
1700075307,0.991912841796875,-0.0384368896484375,-0.213409423828125,0.0512613244354724,-0.1220548003911972,0.3757826685905456,95.74235534667967,-71.76089477539062,251.04200744628903
1700075307,1.007659912109375,0.0408172607421875,-0.2232818603515625,0.029583191499114,-0.141010120511055,0.332791268825531,95.85319519042967,-71.61825561523438,250.7075653076172
1700075307,1.00433349609375,0.1318511962890625,-0.1971893310546875,0.1078178063035011,-0.1163710802793502,0.2569340467453003,95.5664520263672,-71.49632263183594,251.44497680664065
1700075307,0.98504638671875,0.189605712890625,-0.1517333984375,0.2077760994434356,-0.0864549949765205,0.2084461450576782,95.81916809082033,-71.08248901367188,251.23736572265625
1700075307,0.964935302734375,0.2093963623046875,-0.1306304931640625,0.2710829079151153,-0.0592116564512252,0.1830968558788299,95.75296020507812,-70.81063842773438,250.6388092041016
1700075307,0.9396514892578124,0.18804931640625,-0.1292572021484375,0.3358304798603058,-0.0348293520510196,0.1583323776721954,95.38426208496094,-70.52839660644531,250.4814910888672
1700075307,0.9494781494140624,0.1012725830078125,-0.1217498779296875,0.3659931719303131,-0.0237868223339319,0.1763832867145538,95.71104431152344,-70.41987609863281,250.6939697265625
1700075307,0.96209716796875,0.0305023193359375,-0.1335601806640625,0.4031429290771484,-0.063711866736412,0.200872391462326,95.46238708496094,-69.94003295898438,250.5802764892578
1700075307,1.0025634765625,-0.0184783935546875,-0.1457061767578125,0.4766248762607574,-0.1186145320534706,0.2357233166694641,95.356201171875,-69.48002624511719,251.24424743652344
1700075307,1.04107666015625,-0.0243377685546875,-0.1568603515625,0.3673465847969055,-0.1069999560713768,0.3767566084861755,94.96568298339844,-69.15545654296875,251.15821838378903
1700075307,0.983001708984375,0.0936737060546875,-0.1922760009765625,0.35233274102211,-0.0931800082325935,0.3689761757850647,95.12078857421876,-68.78646850585938,250.7878875732422
1700075307,0.988067626953125,0.1044158935546875,-0.16845703125,0.3644104599952698,-0.1235179454088211,0.3632937967777252,95.04264831542967,-68.498046875,251.34347534179688
1700075307,1.0220489501953125,0.091156005859375,-0.125701904296875,0.141084149479866,-0.1363120377063751,0.4441172480583191,95.00535583496094,-67.82931518554688,250.98892211914065
1700075307,1.007720947265625,0.1305389404296875,-0.1330108642578125,-0.1521658301353454,-0.1285382658243179,0.5399188995361328,95.22372436523438,-67.31974792480469,251.7149810791016
1700075307,1.024810791015625,0.0967864990234375,-0.0855712890625,-0.5383667945861816,-0.157965138554573,0.6345077157020569,94.79930114746094,-67.04367065429688,251.74444580078125
1700075307,1.0506439208984375,0.070770263671875,-0.0012359619140625,-1.026824116706848,-0.2109244912862777,0.7529699206352234,94.75984191894533,-66.5811767578125,252.3077087402344
1700075307,1.08062744140625,0.0800018310546875,0.051483154296875,-1.5008387565612793,-0.2577452659606933,0.8592785000801086,94.6457061767578,-65.81086730957031,252.57432556152344
1700075307,1.098907470703125,0.1190338134765625,0.040283203125,-1.921068787574768,-0.262368768453598,0.9197594523429872,94.58970642089844,-65.25408935546875,252.30723571777344
1700075307,1.08770751953125,0.13922119140625,-0.0605316162109375,-2.2936999797821045,-0.2815637588500976,0.9426079988479614,94.68260192871094,-64.63465881347656,252.35519409179688
1700075307,1.06719970703125,0.16241455078125,-0.135040283203125,-2.68851089477539,-0.316540390253067,0.926343023777008,94.3168487548828,-63.59591674804688,252.5735626220703
1700075307,1.0770416259765625,0.1641693115234375,-0.13128662109375,-3.0856733322143555,-0.3452942669391632,0.9151036739349364,93.91342163085938,-62.87110900878906,252.65386962890625
1700075307,1.0665283203125,0.148162841796875,-0.1105194091796875,-3.409999132156372,-0.3925805687904358,0.9338480830192566,94.25163269042967,-62.043701171875,253.2895355224609
1700075307,1.0129241943359375,0.132415771484375,-0.083099365234375,-3.66885757446289,-0.4395118653774261,0.9130368232727052,93.87652587890624,-61.19511413574219,253.6610412597656
1700075307,0.958251953125,0.068267822265625,-0.0929412841796875,-3.838619947433472,-0.4730429053306579,0.8647057414054871,93.72825622558594,-60.15565490722656,254.33143615722656
1700075307,0.9340667724609376,0.005218505859375,-0.1135101318359375,-3.9681649208068848,-0.5151421427726746,0.7530844211578369,93.17463684082033,-59.03498840332031,255.11843872070312
1700075307,0.9359283447265624,-0.030426025390625,-0.1561126708984375,-3.94430160522461,-0.59916090965271,0.6746532917022705,93.25138854980467,-58.52973937988281,255.8011779785156
1700075307,0.8933868408203125,-0.0270538330078125,-0.1407318115234375,-3.767616033554077,-0.6604522466659546,0.595651388168335,92.43186950683594,-57.61314392089844,255.7631072998047
1700075307,0.862701416015625,-0.00714111328125,-0.1232147216796875,-3.484303474426269,-0.6940687894821167,0.4947255849838257,92.4430694580078,-56.24827575683594,256.7484436035156
1700075307,0.85296630859375,0.046600341796875,-0.1331939697265625,-3.119436025619507,-0.7248114943504333,0.3506853282451629,91.48013305664062,-54.99189758300781,257.0471496582031
1700075307,0.8658599853515625,0.11614990234375,-0.1561737060546875,-2.688789129257202,-0.7462195754051208,0.1719491183757782,90.83480834960938,-54.006744384765625,257.61309814453125
1700075307,0.897125244140625,0.1564788818359375,-0.17340087890625,-2.2391371726989746,-0.7409595847129822,-0.00070307450369,89.63310241699219,-53.480316162109375,257.6309814453125
1700075307,0.900054931640625,0.174224853515625,-0.185791015625,-1.8072434663772583,-0.7085851430892944,-0.15637868642807,89.24810791015625,-52.12721252441406,257.62811279296875
1700075307,0.8854522705078125,0.1683349609375,-0.1917724609375,-1.4032992124557495,-0.6614317297935486,-0.2849281430244446,88.32254028320312,-51.534210205078125,258.1420593261719
1700075307,0.87872314453125,0.1537628173828125,-0.1921539306640625,-1.0225363969802856,-0.6084345579147339,-0.3922777771949768,86.98014831542969,-50.7889404296875,257.80181884765625
1700075307,0.8722686767578125,0.1435089111328125,-0.20855712890625,-0.6873807907104492,-0.5461344122886658,-0.4655336141586303,85.92796325683594,-49.8919677734375,259.0066833496094
1700075307,0.87017822265625,0.149078369140625,-0.2385406494140625,-0.4161964058876037,-0.4902128577232361,-0.5313637256622314,85.16665649414062,-49.264068603515625,259.40802001953125
1700075307,0.883941650390625,0.1570587158203125,-0.252471923828125,-0.2117780297994613,-0.4393827021121979,-0.587132453918457,84.74139404296875,-49.172637939453125,259.5999755859375
1700075307,0.9109344482421876,0.14959716796875,-0.26239013671875,-0.2188633680343628,-0.2525081634521484,-0.5468175411224365,83.57368469238281,-48.83901977539063,259.8959350585937
1700075307,0.912353515625,0.176361083984375,-0.4018707275390625,-0.1360513120889663,-0.0624316856265068,-0.3835303485393524,83.14909362792969,-48.61921691894531,260.54644775390625
1700075307,0.8821868896484375,0.261871337890625,-0.628631591796875,0.0725538283586502,-0.0728800669312477,-0.1464128792285919,82.78993225097656,-48.383575439453125,260.3717346191406
1700075307,0.92449951171875,0.3670501708984375,-0.6495819091796875,0.2122978866100311,-0.0682885125279426,-0.0766031667590141,81.80351257324219,-48.05758666992188,260.51727294921875
1700075307,1.0405120849609375,0.3989105224609375,-0.628570556640625,0.3699141442775726,-0.1599182933568954,-0.2500132918357849,81.43838500976562,-47.71534729003906,261.3846435546875
1700075307,1.127166748046875,0.3134613037109375,-0.3916015625,0.4971874058246612,-0.2291013598442077,-0.4646987020969391,80.9053955078125,-47.21694946289063,261.5398864746094
1700075307,1.1396942138671875,0.2202606201171875,-0.0474853515625,0.6816323399543762,-0.2117998749017715,-0.5878299474716187,80.30070495605469,-47.29508972167969,261.19891357421875
1700075307,1.0647125244140625,0.074188232421875,0.1577606201171875,0.7369073033332825,-0.1504952311515808,-0.5184761881828308,79.70050048828125,-47.24656677246094,261.09393310546875
1700075307,0.959991455078125,3.0517578125e-05,0.1562957763671875,0.6865535974502563,-0.0726142823696136,-0.3047564327716827,79.37382507324219,-47.122833251953125,261.53253173828125
1700075307,0.895111083984375,0.08111572265625,0.008087158203125,0.5104179978370667,-0.0630814954638481,-0.1118636801838874,78.83787536621094,-47.16177368164063,261.68634033203125
1700075307,0.9545440673828124,0.17059326171875,-0.0706329345703125,0.2222114950418472,-0.076750174164772,-0.0917570814490318,78.96528625488281,-47.48832702636719,261.27032470703125
1700075307,1.08941650390625,0.16827392578125,-0.0551910400390625,-0.041218277066946,-0.0494298674166202,-0.1560580432415008,78.80174255371094,-47.84361267089844,261.67437744140625
1700075307,1.1302490234375,0.1342010498046875,-0.015228271484375,-0.184329092502594,-0.0069873356260359,-0.1320155560970306,78.43147277832031,-47.23365783691406,261.4913330078125
1700075307,1.0280914306640625,0.09912109375,0.005126953125,-0.2285024225711822,0.0321523435413837,-0.0758886411786079,78.2503662109375,-47.55494689941406,261.5011291503906
1700075307,0.9479522705078124,0.06103515625,-0.0388641357421875,-0.2129327803850174,0.0509721040725708,-0.0563498251140117,77.87727355957031,-47.39663696289063,261.1517028808594
1700075307,0.9355316162109376,0.0680084228515625,-0.1083221435546875,-0.1794299483299255,0.0480812415480613,-0.0749743729829788,77.66590881347656,-47.542877197265625,260.59991455078125
1700075307,0.963134765625,0.092315673828125,-0.1518096923828125,-0.1493261009454727,0.0316287651658058,-0.0980426743626594,77.56602478027344,-47.69317626953125,259.6776733398437
1700075307,0.9933319091796876,0.095489501953125,-0.1622314453125,-0.1107022762298584,0.0225109010934829,-0.0933009162545204,77.37330627441406,-48.03764343261719,259.4348449707031
1700075307,0.9928436279296876,0.0816802978515625,-0.1765899658203125,-0.0983161851763725,0.0024027039762586,-0.0781485959887504,77.48027038574219,-47.94758605957031,258.3900756835937
1700075307,0.9811248779296876,0.0730133056640625,-0.19970703125,-0.1263755112886428,-0.0240912213921546,-0.0713753774762153,77.75221252441406,-48.11300659179688,258.0450134277344
1700075307,0.9840087890625,0.0721893310546875,-0.1950531005859375,-0.1537829041481018,-0.0332048237323761,-0.07590302079916,78.17536926269531,-48.33534240722656,257.32086181640625
1700075307,0.989593505859375,0.0731353759765625,-0.1513671875,-0.163909837603569,-0.0196149796247482,-0.0739053860306739,78.38804626464844,-48.79933166503906,256.72467041015625
1700075307,0.991180419921875,0.067291259765625,-0.100006103515625,-0.1352038979530334,-0.0007595335482619,-0.0680901035666465,78.53800964355469,-49.14019775390625,255.9644470214844
1700075307,0.9964447021484376,0.064483642578125,-0.08294677734375,-0.120796725153923,0.0090470248833298,-0.0693729519844055,78.80426025390625,-49.54365539550781,254.50791931152344
1700075307,1.01220703125,0.072662353515625,-0.0972747802734375,-0.1249147728085517,0.0074999942444264,-0.0670152530074119,79.41207885742188,-50.12322998046875,253.10890197753903
1700075307,1.024444580078125,0.0900726318359375,-0.10260009765625,-0.1252671033143997,0.0038868836127221,-0.0671422854065895,79.66250610351562,-50.466583251953125,253.1194305419922
1700075307,1.017333984375,0.1131744384765625,-0.1044158935546875,-0.0992927625775337,0.0035494610201567,-0.073780745267868,80.31756591796875,-51.38571166992188,251.65548706054688
1700075307,0.997039794921875,0.13702392578125,-0.108184814453125,-0.0420180223882198,-0.00201121927239,-0.0866020023822784,80.50411987304688,-51.95455932617188,250.8253326416016
1700075307,0.9746551513671876,0.15106201171875,-0.099639892578125,0.0329760611057281,0.0069140987470746,-0.1067080721259117,81.10260009765625,-52.662841796875,249.45458984375
1700075307,0.9599609375,0.1335601806640625,-0.090179443359375,0.0836602747440338,0.0218405835330486,-0.1055181697010994,81.603759765625,-53.60481262207031,247.9233245849609
1700075307,0.9507293701171876,0.0858001708984375,-0.092437744140625,0.0947406217455864,0.035583559423685,-0.0710451453924179,82.04959106445312,-54.31278991699219,246.9531707763672
1700075307,0.9522857666015624,0.0289764404296875,-0.101470947265625,0.0579059086740016,0.0437179207801818,-0.0279197823256254,82.66714477539062,-55.31983947753906,245.6910095214844
1700075307,0.9650726318359376,-0.010162353515625,-0.1202239990234375,-0.0013930995482951,0.0468473993241786,0.0200908873230218,82.77195739746094,-56.46012878417969,243.7989044189453
1700075307,0.980255126953125,-0.0060272216796875,-0.14215087890625,-0.0549564585089683,0.0412579588592052,0.0391870848834514,83.06478881835938,-56.95414733886719,243.3682556152344
1700075307,1.006988525390625,0.0228118896484375,-0.13946533203125,-0.0802642107009887,0.0397375598549842,0.0478865653276443,83.46078491210938,-58.32249450683594,243.05357360839844
1700075307,1.0145721435546875,0.0620880126953125,-0.1099090576171875,-0.0690405890345573,0.0552510060369968,0.0565783232450485,83.42990112304688,-58.85540771484375,241.93345642089844
1700075307,0.9920196533203124,0.097381591796875,-0.0934295654296875,-0.0402669943869113,0.0663718357682228,0.0598731860518455,83.52586364746094,-59.07916259765625,241.81326293945312
1700075307,0.9778289794921876,0.1079559326171875,-0.09771728515625,-0.0401777811348438,0.0711721777915954,0.0576403923332691,83.65681457519531,-59.40751647949219,241.1108856201172
1700075307,0.981658935546875,0.09564208984375,-0.1045989990234375,-0.0443357713520526,0.0773102343082428,0.0682650730013847,83.56739807128906,-59.95082092285156,240.8113250732422
1700075307,0.98919677734375,0.07427978515625,-0.108612060546875,-0.053116213530302,0.0803345218300819,0.0738190934062004,83.31341552734375,-60.24034118652344,240.6944122314453
1700075307,0.9994049072265624,0.048370361328125,-0.108612060546875,-0.0703785568475723,0.0834802463650703,0.0875066816806793,83.08779907226562,-60.299896240234375,240.38218688964844
1700075307,1.003570556640625,0.042388916015625,-0.1251220703125,-0.0578928589820861,0.0801254585385322,0.0928971841931343,82.70547485351562,-60.175384521484375,240.05528259277344
1700075307,1.003631591796875,0.06878662109375,-0.13812255859375,-0.0721927061676979,0.0632705837488174,0.0725690051913261,82.374755859375,-60.28065490722656,239.5532684326172
1700075307,1.0183868408203125,0.09619140625,-0.1304473876953125,-0.0697029158473014,0.0671633258461952,0.0528938397765159,82.19035339355469,-60.096099853515625,239.54788208007807
1700075307,1.01312255859375,0.1200408935546875,-0.12103271484375,-0.0344583764672279,0.0597685240209102,0.0243823044002056,81.91075134277344,-60.37030029296875,239.8453369140625
1700075307,1.0020904541015625,0.13092041015625,-0.1210174560546875,-0.0093924365937709,0.0485632754862308,0.0037864823825657,81.494873046875,-60.42604064941406,239.8791656494141
1700075307,0.9964141845703124,0.146148681640625,-0.120819091796875,-0.0047931573353707,0.0435762405395507,-0.0156061239540576,81.30891418457031,-60.56805419921875,239.0304412841797
1700075307,0.98974609375,0.1536865234375,-0.113311767578125,-0.0102664856240153,0.0443863719701767,-0.0423085764050483,80.46134948730469,-60.45550537109375,238.4994659423828
1700075307,0.9844818115234376,0.13726806640625,-0.1118316650390625,-0.0123442839831113,0.0471352860331535,-0.053361490368843,79.43450927734375,-60.6419677734375,237.831771850586
1700075307,0.981231689453125,0.110565185546875,-0.1182708740234375,-0.0184389278292655,0.0401894971728324,-0.0614212825894355,79.15553283691406,-60.34101867675781,237.2267303466797
1700075307,0.9889984130859376,0.0832977294921875,-0.1321258544921875,-0.0326458290219306,0.0302348677068948,-0.0562033504247665,79.03363037109375,-61.077728271484375,237.1588897705078
1700075308,0.9944915771484376,0.0881805419921875,-0.153533935546875,-0.0343089699745178,0.0118454741314053,-0.0659151002764701,79.07087707519531,-61.3201904296875,236.87062072753903
1700075308,1.0021820068359375,0.0972137451171875,-0.1471710205078125,-0.0229617748409509,0.0124697191640734,-0.0735357329249382,78.72843933105469,-61.09666442871094,236.2747039794922
1700075308,0.99560546875,0.0883026123046875,-0.1258392333984375,-0.0157976057380437,0.0182168204337358,-0.0711181163787841,78.53921508789062,-61.40510559082031,235.8020172119141
1700075308,0.984649658203125,0.0758056640625,-0.128662109375,-0.0159294307231903,0.0095668733119964,-0.0650871247053146,77.88859558105469,-61.49171447753906,236.19891357421875
1700075308,0.9845123291015624,0.07525634765625,-0.146453857421875,-0.0288052819669246,-0.0057359160855412,-0.0576851330697536,77.63772583007812,-61.37715148925781,235.2136993408203
1700075308,0.989349365234375,0.0853729248046875,-0.1373291015625,-0.0308300834149122,-0.000343814084772,-0.0574353300034999,77.57133483886719,-61.62211608886719,234.9187469482422
1700075308,0.98785400390625,0.08648681640625,-0.116790771484375,-0.0138609539717435,0.0095402421429753,-0.0528333857655525,77.25718688964844,-61.509674072265625,234.7824859619141
1700075308,0.9825592041015624,0.083587646484375,-0.1207122802734375,0.0006940197781659,0.002355566015467,-0.048728123307228,76.980712890625,-62.44602966308594,234.4490509033203
1700075308,0.98980712890625,0.07647705078125,-0.122589111328125,0.0106917927041649,0.0031478563323616,-0.0374658815562725,77.32626342773438,-62.755157470703125,234.58094787597656
1700075308,0.993316650390625,0.0644683837890625,-0.11895751953125,0.0042970106005668,0.0079221054911613,-0.0161699149757623,76.74661254882812,-62.51826477050781,234.4569549560547
1700075308,0.986785888671875,0.0602874755859375,-0.1220855712890625,0.0036487970501184,0.0086616650223732,-0.0078920116648077,76.84951782226562,-62.828948974609375,234.1394500732422
1700075308,0.9924163818359376,0.0496063232421875,-0.1246185302734375,-0.0004572647449094,0.0096651446074247,0.0025755430106073,76.73422241210938,-62.64253234863281,234.218002319336
1700075308,0.9936065673828124,0.0517730712890625,-0.1352081298828125,0.0122414864599704,0.0030796795617789,0.0116470688953995,76.28291320800781,-63.06344604492188,234.370361328125
1700075308,0.9943084716796876,0.0737762451171875,-0.135498046875,0.0172474291175603,-0.0031649006996303,0.0088630001991987,76.24093627929688,-63.58126831054688,233.40115356445312
1700075308,1.0014190673828125,0.0891571044921875,-0.128875732421875,0.0344602391123771,-0.0011757856700569,0.0026810043491423,75.98710632324219,-63.52711486816406,233.3700408935547
1700075308,0.9923248291015624,0.10595703125,-0.1269989013671875,0.0518070049583911,0.0001603222917765,-0.0148455249145627,75.56101989746094,-63.64424133300781,233.17727661132807
1700075308,0.988800048828125,0.104217529296875,-0.119598388671875,0.0543404705822467,-0.0023933828342705,-0.0185350682586431,75.52935791015625,-64.00888061523438,233.2423095703125
1700075308,0.98309326171875,0.094940185546875,-0.118865966796875,0.0379404574632644,-0.0016120113432407,-0.0126084694638848,75.63310241699219,-63.99703979492188,232.8897247314453
1700075308,0.979339599609375,0.0863494873046875,-0.1235198974609375,0.0162436850368976,-0.0081053311005234,-0.0099322590976953,74.96028137207031,-64.03303527832031,232.92654418945312
1700075308,0.9869537353515624,0.077911376953125,-0.1335296630859375,-0.0108382664620876,-0.0162205155938863,-0.0069098374806344,74.9453125,-64.38795471191406,232.7163543701172
1700075308,0.99273681640625,0.0820465087890625,-0.1338043212890625,-0.0170618072152137,-0.0221018400043249,-0.0162969473749399,74.99807739257812,-64.54530334472656,232.5227508544922
1700075308,0.9971160888671876,0.084686279296875,-0.13409423828125,-0.0005520732956938,-0.0318990759551525,-0.0217383187264204,74.82919311523438,-64.70094299316406,232.6351318359375
1700075308,0.9942626953125,0.0902099609375,-0.134429931640625,0.0223417915403842,-0.0399665907025337,-0.0396499410271644,74.79179382324219,-64.64410400390625,232.61911010742188
1700075308,0.99761962890625,0.0936279296875,-0.13275146484375,0.0454292669892311,-0.0468958690762519,-0.0548992007970809,74.04837036132812,-64.64146423339844,232.5500640869141
1700075308,1.0002899169921875,0.098419189453125,-0.134765625,0.049943059682846,-0.0577296093106269,-0.066287413239479,74.22441101074219,-64.79151916503906,232.2977905273437
1700075308,0.9977874755859376,0.1075897216796875,-0.1370849609375,0.0572819299995899,-0.0659180283546447,-0.0852864012122154,73.884765625,-65.18359375,232.32618713378903
1700075308,0.9929656982421876,0.11285400390625,-0.130584716796875,0.0584308207035064,-0.0688930451869964,-0.0993465632200241,73.65092468261719,-65.18814086914062,232.31304931640625
1700075308,0.9770965576171876,0.1115264892578125,-0.11981201171875,0.0576449185609817,-0.0654298737645149,-0.0956524908542633,73.39158630371094,-65.72862243652344,231.443359375
1700075308,0.9584503173828124,0.1082305908203125,-0.112518310546875,0.0479163937270641,-0.0605147443711757,-0.0980480015277862,73.22352600097656,-65.75607299804688,231.8359375
1700075308,0.955718994140625,0.087310791015625,-0.107818603515625,0.0173329170793294,-0.0495494417846202,-0.0844001024961471,73.24130249023438,-65.87399291992188,231.67724609375
1700075308,0.962860107421875,0.0516357421875,-0.109649658203125,-0.0234853513538837,-0.0445653386414051,-0.0520863719284534,73.37579345703125,-66.184326171875,232.0589904785156
1700075308,0.974517822265625,0.0316009521484375,-0.12066650390625,-0.0463190302252769,-0.0402853712439537,-0.0274824909865856,73.19389343261719,-66.39112854003906,231.32623291015625
1700075308,0.999053955078125,0.016448974609375,-0.1174468994140625,-0.0435075312852859,-0.0352147109806537,-0.0028226843569427,73.07383728027344,-66.81840515136719,231.15122985839844
1700075308,1.002838134765625,0.026458740234375,-0.1292572021484375,-0.0390352830290794,-0.0396012067794799,0.0118523985147476,72.96492004394531,-67.08921813964844,231.4955291748047
1700075308,1.00494384765625,0.057373046875,-0.1219635009765625,-0.0250931028276681,-0.0337020382285118,0.0153019912540912,72.85389709472656,-67.1405029296875,231.22804260253903
1700075308,1.008087158203125,0.0695648193359375,-0.0977020263671875,-0.0011973571963608,-0.016465526074171,0.0238046646118164,72.28582763671875,-67.35662841796875,230.8150634765625
1700075308,0.9914703369140624,0.07269287109375,-0.1023406982421875,0.0134710678830742,-0.011860653758049,0.0386280864477157,72.4140625,-67.24760437011719,230.6938018798828
1700075308,0.9857940673828124,0.075469970703125,-0.1081695556640625,0.0201220456510782,-0.007980428636074,0.0484692640602588,72.37051391601562,-67.37904357910156,231.0245056152344
1700075308,0.987823486328125,0.07177734375,-0.105865478515625,0.0235926769673824,0.0031739552505314,0.0649678111076355,72.57173156738281,-67.75033569335938,231.0879821777344
1700075308,0.9764862060546876,0.066741943359375,-0.10980224609375,0.0241058692336082,0.0078017301857471,0.0825236365199089,71.85975646972656,-67.66473388671875,230.7197723388672
1700075308,0.9779205322265624,0.0545654296875,-0.107635498046875,0.0110151004046201,0.0120550645515322,0.0987697169184684,72.36036682128906,-67.96812438964844,230.9297790527344
1700075308,0.9845733642578124,0.0430755615234375,-0.11065673828125,0.0120774358510971,0.0105631621554493,0.1121355891227722,71.90402221679688,-68.42593383789062,230.69151306152344
1700075308,0.994415283203125,0.03851318359375,-0.1223907470703125,0.0151312826201319,0.002976348856464,0.1196579560637474,71.98733520507812,-67.96467590332031,230.87969970703125
1700075308,1.0069732666015625,0.0523529052734375,-0.1356658935546875,0.0211300533264875,-0.0101474430412054,0.109723299741745,71.94583129882812,-68.59100341796875,230.7587280273437
1700075308,1.0201263427734375,0.0717926025390625,-0.1300048828125,0.0368570834398269,-0.0106539754197001,0.0962141528725624,71.93428039550781,-68.63606262207031,230.5428924560547
1700075308,1.0165863037109375,0.09368896484375,-0.1278228759765625,0.0623174346983432,-0.019544405862689,0.0843449756503105,71.78103637695312,-68.795166015625,230.8982391357422
1700075308,1.0051422119140625,0.1175994873046875,-0.12261962890625,0.0877386406064033,-0.0189832784235477,0.0656336024403572,71.620361328125,-68.88232421875,230.65977478027344
1700075308,0.9944915771484376,0.1273345947265625,-0.11260986328125,0.1011742874979972,-0.0196200404316186,0.0562467612326145,71.74769592285156,-68.96356201171875,230.75344848632807
1700075308,0.975372314453125,0.1262054443359375,-0.1053466796875,0.1018435433506965,-0.012395417317748,0.0528291277587413,71.86785888671875,-68.93292236328125,230.49758911132807
1700075308,0.960479736328125,0.112060546875,-0.1014404296875,0.086376167833805,-0.0037638454232364,0.0601336434483528,71.86067199707031,-69.3282470703125,230.559326171875
1700075308,0.955047607421875,0.0858612060546875,-0.100494384765625,0.0350714325904846,-0.0002045307774096,0.0731788724660873,71.69078063964844,-69.06092834472656,231.0085601806641
1700075308,0.962677001953125,0.06365966796875,-0.1059112548828125,-0.0150449955835938,0.001291633117944,0.0905738398432731,71.48435974121094,-69.13580322265625,230.75965881347656
1700075308,0.97674560546875,0.05462646484375,-0.1229248046875,-0.0418174862861633,-0.0116292256861925,0.0962905809283256,71.4871826171875,-69.42388916015625,231.02413940429688
1700075308,0.99066162109375,0.0656585693359375,-0.1369781494140625,-0.0508208349347114,-0.0233838856220245,0.0887511745095253,71.617919921875,-69.52540588378906,230.7789764404297
1700075308,1.0022735595703125,0.0938720703125,-0.1337127685546875,-0.0311350151896476,-0.0326599404215812,0.0693343356251716,71.45358276367188,-69.6949462890625,230.75205993652344
1700075308,0.9954833984375,0.12811279296875,-0.124481201171875,0.0043044672347605,-0.0343710221350193,0.0440433584153652,71.68653869628906,-69.42373657226562,230.57049560546875
1700075308,0.989776611328125,0.1368560791015625,-0.1086578369140625,0.039276298135519,-0.0297784022986888,0.0323574058711528,71.62516784667969,-69.53749084472656,230.90760803222656
1700075308,0.9829559326171876,0.1287689208984375,-0.108489990234375,0.05443075299263,-0.0335366539657115,0.0290140751749277,71.47320556640625,-69.34005737304688,231.1832733154297
1700075308,0.9825286865234376,0.1102142333984375,-0.1107940673828125,0.0538363344967365,-0.0286292470991611,0.032307606190443,71.81301879882812,-69.88752746582031,230.93716430664065
1700075308,0.979034423828125,0.0943450927734375,-0.108367919921875,0.0497973822057247,-0.023233950138092,0.0369558855891227,71.58140563964844,-69.66416931152344,230.7840576171875
1700075308,0.973907470703125,0.0782470703125,-0.103759765625,0.0275557283312082,-0.017035974189639,0.0548054575920105,71.87821960449219,-69.95964050292969,230.15264892578125
1700075308,0.9737396240234376,0.06915283203125,-0.1024017333984375,-0.0155091844499111,-0.0097357183694839,0.0704043880105018,71.85171508789062,-70.09434509277344,231.12353515625
1700075308,0.988861083984375,0.0574188232421875,-0.1014404296875,-0.0272816885262727,-0.0059047606773674,0.0834911614656448,72.16249084472656,-70.18168640136719,230.8630523681641
1700075308,0.9996795654296876,0.0569610595703125,-0.1279144287109375,-0.0325100049376487,-0.0316492728888988,0.0826589241623878,72.232177734375,-69.73953247070312,230.6359100341797
1700075308,1.0139312744140625,0.0808563232421875,-0.1332244873046875,-0.0247524846345186,-0.0346695631742477,0.0681396424770355,71.95668029785156,-69.76119995117188,230.94448852539065
1700075308,1.0200958251953125,0.1116485595703125,-0.115142822265625,0.0019944412633776,-0.0289032869040966,0.05037821829319,71.9857177734375,-69.95826721191406,231.1465301513672
1700075308,1.0003509521484375,0.139251708984375,-0.105438232421875,0.0377202145755291,-0.0304463226348161,0.0358189828693866,72.02362060546875,-70.26861572265625,230.6655731201172
1700075308,0.9887847900390624,0.13958740234375,-0.1037139892578125,0.053090114146471,-0.0304947923868894,0.0354938134551048,72.13638305664062,-69.706298828125,231.1121826171875
1700075308,0.980560302734375,0.1223602294921875,-0.105560302734375,0.0475129224359989,-0.0255975052714347,0.0382051765918731,72.08494567871094,-69.72344970703125,230.65431213378903
1700075308,0.976165771484375,0.093597412109375,-0.1073455810546875,0.0384006537497043,-0.0218605585396289,0.0561226569116115,72.35069274902344,-69.54937744140625,231.17254638671875
1700075308,0.972808837890625,0.0727081298828125,-0.107421875,0.0198125876486301,-0.0162559356540441,0.0811912566423416,72.4639892578125,-69.77302551269531,230.6463317871093
1700075308,0.97369384765625,0.0676116943359375,-0.1060028076171875,0.015607189387083,-0.0100270677357912,0.1063445508480072,72.27522277832031,-69.65365600585938,230.9057464599609
1700075308,0.9767303466796876,0.069488525390625,-0.0998382568359375,0.0113615775480866,0.0033526534680277,0.1240484416484832,72.42080688476562,-69.21224975585938,230.89569091796875
1700075308,0.986053466796875,0.063232421875,-0.09576416015625,-0.001089232857339,0.0102353272959589,0.1437068283557891,72.29617309570312,-69.1627197265625,231.1466064453125
1700075308,0.9829254150390624,0.0772857666015625,-0.111358642578125,-0.0078177088871598,0.0085500786080956,0.1476557701826095,72.21908569335938,-69.01200866699219,231.0908203125
1700075308,0.9927215576171876,0.0878448486328125,-0.104827880859375,0.0059385830536484,0.0127592049539089,0.1519479900598526,72.11985778808594,-69.02627563476562,231.0475006103516
1700075308,0.994415283203125,0.1004486083984375,-0.1005706787109375,0.024836640805006,0.013424196280539,0.153631642460823,72.46458435058594,-68.92900085449219,231.35972595214844
1700075308,0.9919891357421876,0.119476318359375,-0.10467529296875,0.0392030626535415,0.0142758749425411,0.1499492824077606,72.85963439941406,-68.89059448242188,231.1160888671875
1700075308,1.0034332275390625,0.122650146484375,-0.0985565185546875,0.059211391955614,0.0205785110592842,0.1479457914829254,72.64366149902344,-68.59857177734375,230.72433471679688
1700075308,1.0028839111328125,0.1191558837890625,-0.10028076171875,0.077030599117279,0.0233370140194892,0.1495463550090789,72.63810729980469,-68.85514831542969,231.2831268310547
1700075308,0.999267578125,0.1094207763671875,-0.1048736572265625,0.089570365846157,0.0222150236368179,0.1494725793600082,73.05451965332031,-68.85104370117188,230.98068237304688
1700075308,0.998626708984375,0.099029541015625,-0.107025146484375,0.0848006382584571,0.0260007083415985,0.1584548950195312,73.12364196777344,-68.39743041992188,231.07655334472656
1700075308,0.998626708984375,0.0922393798828125,-0.1097259521484375,0.0876880437135696,0.0305957254022359,0.1729350239038467,72.74891662597656,-68.60810852050781,231.15280151367188
1700075308,0.9936370849609376,0.0988616943359375,-0.108062744140625,0.09041777998209,0.0299070328474044,0.17093525826931,72.90338134765625,-68.19618225097656,231.39561462402344
1700075308,1.00067138671875,0.1026153564453125,-0.1037445068359375,0.0904185771942138,0.0325651317834854,0.172557920217514,72.66207885742188,-67.9434814453125,231.4291381835937
1700075308,0.9932861328125,0.119354248046875,-0.1082763671875,0.0997468307614326,0.0421828739345073,0.1635362058877945,72.96192932128906,-67.67059326171875,231.1526794433593
1700075308,0.9904937744140624,0.1240234375,-0.1029510498046875,0.1136373504996299,0.0370842516422271,0.1616658568382263,72.73275756835938,-67.13615417480469,231.91043090820312
1700075308,0.99163818359375,0.125518798828125,-0.1029205322265625,0.1070071458816528,0.0351332202553749,0.1617066115140915,72.69029235839844,-67.53057861328125,231.47531127929688
1700075308,0.9928131103515624,0.1353302001953125,-0.1154327392578125,0.1015471294522285,0.0301738809794187,0.1579728573560714,73.12550354003906,-67.55783081054688,231.27967834472656
1700075308,1.0032196044921875,0.1377105712890625,-0.1108856201171875,0.0976360142230987,0.0283943563699722,0.1602834165096283,72.80610656738281,-67.75811767578125,231.2450256347656
1700075308,1.00238037109375,0.14581298828125,-0.1006011962890625,0.1017196998000145,0.0267828777432441,0.1689461469650268,73.10472106933594,-67.96543884277344,230.9815368652344
1700075308,0.995330810546875,0.1514892578125,-0.0927734375,0.1102452799677848,0.0317840278148651,0.1747579574584961,72.84184265136719,-68.50326538085938,231.2288360595703
1700075308,0.98321533203125,0.145233154296875,-0.096710205078125,0.096205897629261,0.0515292361378669,0.168581023812294,72.54061889648438,-68.82791137695312,230.8902740478516
1700075308,0.9829254150390624,0.1240234375,-0.1060333251953125,0.0875058770179748,0.0638660639524459,0.1861685365438461,73.20932006835938,-69.7840576171875,230.97467041015625
1700075308,0.982330322265625,0.1124267578125,-0.0979766845703125,0.0804301276803016,0.074234552681446,0.2211819142103195,73.20774841308594,-71.06947326660156,231.1127777099609
1700075308,0.9804534912109376,0.115447998046875,-0.09368896484375,0.0919347181916236,0.0797699317336082,0.2472441494464874,73.26473999023438,-71.8992919921875,230.8195037841797
1700075308,0.9803314208984376,0.1212310791015625,-0.085906982421875,0.1004802659153938,0.0903477370738983,0.2593359649181366,73.48265075683594,-73.26498413085938,230.484603881836
1700075308,0.980072021484375,0.1279144287109375,-0.0897064208984375,0.1081003695726394,0.0988309755921363,0.2772611677646637,73.88629150390625,-74.10263061523438,230.4879150390625
1700075308,0.978759765625,0.1304931640625,-0.09332275390625,0.1218484044075012,0.1152757257223129,0.2965232729911804,73.83432006835938,-75.704345703125,230.8252868652344
1700075309,0.9868011474609376,0.1237335205078125,-0.100738525390625,0.1397294104099273,0.1213245615363121,0.3033953011035919,74.02059936523438,-76.98973083496094,231.239990234375
1700075309,1.00457763671875,0.10382080078125,-0.093597412109375,0.1518316119909286,0.1226739883422851,0.3127746880054474,73.96340942382812,-78.29725646972656,230.7457427978516
1700075309,1.0196685791015625,0.0904693603515625,-0.1015472412109375,0.1448759585618972,0.1340704560279846,0.3266255259513855,74.32432556152344,-79.5753173828125,231.0026092529297
1700075309,1.02191162109375,0.1075897216796875,-0.1328582763671875,0.1157785281538963,0.1336139887571334,0.3462322354316711,74.09577941894531,-80.47724914550781,231.7274780273437
1700075309,1.02655029296875,0.1363525390625,-0.1347198486328125,0.1035572811961174,0.1315862536430359,0.3480658233165741,74.62065124511719,-81.45741271972656,231.59939575195312
1700075309,1.031646728515625,0.1580810546875,-0.1227874755859375,0.1071546822786331,0.1319654881954193,0.3423778414726257,74.90483093261719,-82.56982421875,232.1800231933593
1700075309,1.0265045166015625,0.171722412109375,-0.107421875,0.1054001897573471,0.1211855486035347,0.341312050819397,74.97840881347656,-83.24835205078125,232.5483856201172
1700075309,1.025482177734375,0.178436279296875,-0.0968017578125,0.1091480553150177,0.0869612619280815,0.3298287689685821,74.87306213378906,-83.76710510253906,232.7416839599609
1700075309,1.04754638671875,0.159576416015625,-0.0914306640625,0.1453188508749008,0.0587900802493095,0.3023521304130554,75.1622314453125,-84.39949035644531,232.9264373779297
1700075309,1.0679168701171875,0.1229705810546875,-0.1035003662109375,0.1292770355939865,0.0669161826372146,0.3155459761619568,75.1595458984375,-84.707275390625,233.11924743652344
1700075309,1.040130615234375,0.1179656982421875,-0.1451873779296875,0.070743940770626,0.0781850814819336,0.3361716270446777,75.30616760253906,-85.52403259277344,233.40542602539065
1700075309,1.0098876953125,0.1209564208984375,-0.1638031005859375,0.0330279916524887,0.1125441193580627,0.3478900492191314,75.55976867675781,-85.1531982421875,233.5402984619141
1700075309,0.9917449951171876,0.1185455322265625,-0.1698150634765625,0.0318657867610454,0.1461888998746872,0.3593954443931579,75.51309204101562,-85.3499755859375,233.86363220214844
1700075309,0.979156494140625,0.137481689453125,-0.159454345703125,0.089240662753582,0.154155746102333,0.3439262211322784,75.90176391601562,-85.7138671875,233.4172821044922
1700075309,1.0029144287109375,0.1529541015625,-0.1426849365234375,0.2087766528129577,0.1721709668636322,0.2879146039485931,75.36460876464844,-85.627197265625,233.9554748535156
1700075309,1.048126220703125,0.1573333740234375,-0.141845703125,0.3333361446857452,0.2222453206777572,0.2494132965803146,75.28750610351562,-85.58294677734375,233.2815856933593
1700075309,1.0464019775390625,0.1656646728515625,-0.199249267578125,0.4483724534511566,0.2610188126564026,0.1958978623151779,75.48089599609375,-85.57881164550781,233.5527801513672
1700075309,1.0215911865234375,0.1416473388671875,-0.22296142578125,0.4675248563289642,0.2305770218372345,0.223293274641037,75.70558166503906,-85.89999389648438,233.43299865722656
1700075309,1.006256103515625,0.1529083251953125,-0.187530517578125,0.3543128073215484,0.2462345361709594,0.2794135212898254,75.79501342773438,-85.27159118652344,233.872802734375
1700075309,0.989532470703125,0.1920623779296875,-0.2111968994140625,0.3129725456237793,0.301526814699173,0.2823408842086792,75.53582763671875,-85.61711120605469,233.27130126953125
1700075309,0.98785400390625,0.176788330078125,-0.2288665771484375,0.3244736790657043,0.3212773501873016,0.2416709512472152,75.98493957519531,-85.36357116699219,233.3233184814453
1700075309,0.9873504638671876,0.155548095703125,-0.214141845703125,0.3530962765216827,0.298376053571701,0.1837983280420303,75.50349426269531,-84.94062805175781,233.5489654541016
1700075309,0.9854736328125,0.1327667236328125,-0.1771697998046875,0.3708600997924804,0.2681017518043518,0.0981457382440567,75.51666259765625,-85.19345092773438,233.3997344970703
1700075309,0.9824676513671876,0.0872955322265625,-0.1244964599609375,0.3466013669967651,0.2643291354179382,-0.0064142234623432,75.60025024414062,-85.09568786621094,233.64532470703125
1700075309,0.96502685546875,0.025115966796875,-0.0954132080078125,0.2784952819347381,0.2535268068313598,-0.0682610794901847,75.2283935546875,-84.91648864746094,233.84649658203125
1700075309,0.923797607421875,-0.00897216796875,-0.0937957763671875,0.216341882944107,0.2275279611349105,-0.1259597986936569,75.2943115234375,-84.86888122558594,233.53567504882807
1700075309,0.912261962890625,-0.0276947021484375,-0.098388671875,0.1590844541788101,0.1820819228887558,-0.2067126929759979,75.66323852539062,-85.35289001464844,233.55130004882807
1700075309,0.9215850830078124,-0.0396728515625,-0.0998687744140625,0.0956567525863647,0.1408138424158096,-0.2954747974872589,75.310302734375,-85.39837646484375,233.0770568847656
1700075309,0.93267822265625,-0.0295257568359375,-0.09478759765625,0.0401676595211029,0.1245922595262527,-0.3844265043735504,75.21083068847656,-85.51716613769531,233.4146270751953
1700075309,0.9362030029296876,-0.017059326171875,-0.0924835205078125,-0.009786850772798,0.1020001322031021,-0.4710301160812378,75.4652099609375,-85.48435974121094,232.984130859375
1700075309,0.9372406005859376,-0.0139312744140625,-0.09490966796875,-0.0517420247197151,0.0684834495186805,-0.5445844531059265,75.14512634277344,-85.44999694824219,233.382064819336
1700075309,0.942474365234375,-0.0096588134765625,-0.0925750732421875,-0.077481210231781,0.0371612161397933,-0.6197178363800049,75.26011657714844,-85.32931518554688,233.7470703125
1700075309,0.952056884765625,-0.0054168701171875,-0.086181640625,-0.1038720682263374,0.0046874298714101,-0.7030894160270691,75.15480041503906,-85.60014343261719,233.83639526367188
1700075309,0.9688262939453124,-0.004119873046875,-0.080047607421875,-0.1205197572708129,-0.019031748175621,-0.792153537273407,75.21096801757812,-85.34982299804688,233.87521362304688
1700075309,0.981536865234375,-0.0047149658203125,-0.0855712890625,-0.1283755451440811,-0.0461576431989669,-0.8600302934646606,75.23637390136719,-85.71592712402344,233.50230407714844
1700075309,0.9808349609375,0.00299072265625,-0.0958099365234375,-0.1293867528438568,-0.075329378247261,-0.9120125770568848,75.18428039550781,-85.71115112304688,233.9561309814453
1700075309,0.980926513671875,0.016845703125,-0.094879150390625,-0.1369336098432541,-0.1009942591190338,-0.96983540058136,75.09611511230469,-85.44282531738281,233.35235595703125
1700075309,0.988250732421875,0.0301971435546875,-0.0962982177734375,-0.1485093086957931,-0.1346941590309143,-1.0395907163619995,74.91171264648438,-85.73660278320312,233.4556579589844
1700075309,1.00128173828125,0.037750244140625,-0.096099853515625,-0.1659737974405288,-0.1658129394054412,-1.1179026365280151,75.16403198242188,-85.68778991699219,233.78436279296875
1700075309,1.012420654296875,0.028778076171875,-0.0920867919921875,-0.1949287354946136,-0.1807404905557632,-1.1791139841079712,75.08737182617188,-85.73855590820312,233.5384979248047
1700075309,1.0089111328125,0.0135345458984375,-0.1020355224609375,-0.2359036058187484,-0.200013518333435,-1.202811598777771,75.09774780273438,-85.797119140625,233.21841430664065
1700075309,1.0034332275390625,0.0057220458984375,-0.1065521240234375,-0.2935495972633362,-0.2218295931816101,-1.2180167436599731,75.08247375488281,-85.84515380859375,233.6745758056641
1700075309,1.016998291015625,-0.0046539306640625,-0.1131591796875,-0.3685654997825622,-0.2482047528028488,-1.2266381978988647,75.48806762695312,-86.01878356933594,233.5238342285156
1700075309,1.042510986328125,-0.0112152099609375,-0.1128387451171875,-0.4335932433605194,-0.273279994726181,-1.2384929656982422,75.13003540039062,-86.18728637695312,233.8419647216797
1700075309,1.0624847412109375,-0.0152587890625,-0.1107940673828125,-0.4935891926288605,-0.2934401333332062,-1.231116771697998,74.89816284179688,-86.22419738769531,233.4924468994141
1700075309,1.0639495849609375,-0.0043487548828125,-0.106903076171875,-0.5215404033660889,-0.3207558989524841,-1.2287654876708984,74.84194946289062,-85.95718383789062,233.90200805664065
1700075309,1.056976318359375,0.00946044921875,-0.090301513671875,-0.5311129093170166,-0.3220414221286773,-1.2405736446380615,74.8397216796875,-86.22100830078125,233.99002075195312
1700075309,1.0598907470703125,0.0184173583984375,-0.0867919921875,-0.5192977786064148,-0.3252369463443756,-1.246147394180298,74.85911560058594,-86.22906494140625,234.1727600097656
1700075309,1.065582275390625,0.0276641845703125,-0.09234619140625,-0.4997315108776092,-0.3450798988342285,-1.2306435108184814,74.82437133789062,-86.1343994140625,234.0837554931641
1700075309,1.0710296630859375,0.0358734130859375,-0.087249755859375,-0.4817296266555786,-0.3569141924381256,-1.2076610326766968,74.56051635742188,-86.18914794921875,233.7282867431641
1700075309,1.0695343017578125,0.0435028076171875,-0.090576171875,-0.4775833487510681,-0.3510024845600128,-1.1905781030654907,75.00749206542969,-86.08018493652344,234.0387115478516
1700075309,1.0547332763671875,0.0357818603515625,-0.1117401123046875,-0.4913939535617828,-0.3509273827075958,-1.15378999710083,74.7225341796875,-85.94474792480469,233.514404296875
1700075309,1.039520263671875,0.0238494873046875,-0.118438720703125,-0.5156204700469971,-0.3347846567630768,-1.110158085823059,74.63597106933594,-86.20423889160156,233.327880859375
1700075309,1.032379150390625,0.00531005859375,-0.13421630859375,-0.5378909111022949,-0.3153731226921081,-1.055668830871582,74.5460205078125,-86.05853271484375,233.943099975586
1700075309,1.0346527099609375,-0.0139312744140625,-0.14599609375,-0.579203724861145,-0.3091424107551574,-0.9829455614089966,74.63801574707031,-85.66107177734375,233.9785003662109
1700075309,1.045684814453125,-0.020172119140625,-0.1560211181640625,-0.6152493357658386,-0.3180775642395019,-0.9111494421958924,74.73100280761719,-85.94252014160156,234.03781127929688
1700075309,1.0562744140625,-0.01959228515625,-0.1461639404296875,-0.6347167491912842,-0.3131264746189117,-0.8603549599647522,74.67897033691406,-85.93289184570312,233.8348999023437
1700075309,1.0560455322265625,-0.02581787109375,-0.1261444091796875,-0.6058515906333923,-0.294351726770401,-0.8186432123184204,74.37324523925781,-85.83573913574219,233.58657836914065
1700075309,1.0375518798828125,-0.0268402099609375,-0.1063079833984375,-0.5526717305183411,-0.2695627808570862,-0.7798614501953125,74.67732238769531,-85.90972900390625,234.178451538086
1700075309,1.0162200927734375,-0.028900146484375,-0.0941314697265625,-0.4655565023422241,-0.2372122853994369,-0.7602323293685913,74.39332580566406,-86.19448852539062,233.37353515625
1700075309,1.000885009765625,-0.0341644287109375,-0.0884857177734375,-0.3504072725772857,-0.2173442989587783,-0.7419556379318237,74.4222412109375,-85.93869018554688,234.08279418945312
1700075309,0.9896392822265624,-0.031341552734375,-0.0754547119140625,-0.2294539660215377,-0.1873102337121963,-0.7230911254882812,74.41212463378906,-85.63591003417969,234.1221618652344
1700075309,0.98394775390625,-0.0205535888671875,-0.074951171875,-0.1073019579052925,-0.142654612660408,-0.7110664248466492,74.54859924316406,-86.19325256347656,233.53553771972656
1700075309,0.9736785888671876,-0.01519775390625,-0.0966033935546875,-0.0116073871031403,-0.1107297092676162,-0.6908562183380127,74.75332641601562,-86.12794494628906,233.83970642089844
1700075309,0.9685211181640624,-0.02142333984375,-0.100860595703125,0.0543207637965679,-0.0972186923027038,-0.6625811457633972,74.59413146972656,-86.17823791503906,233.9433135986328
1700075309,0.97003173828125,-0.03948974609375,-0.0974884033203125,0.0842981040477752,-0.0845867916941642,-0.6243219375610352,74.75302124023438,-86.0325927734375,234.28927612304688
1700075309,0.97052001953125,-0.0629425048828125,-0.0956268310546875,0.1044329330325126,-0.0738148316740989,-0.5770270824432373,74.36006164550781,-86.06306457519531,234.2818756103516
1700075309,0.9624786376953124,-0.089019775390625,-0.0897979736328125,0.107178121805191,-0.065571554005146,-0.537140429019928,74.49945068359375,-85.83847045898438,233.6312255859375
1700075309,0.9599761962890624,-0.1055755615234375,-0.09063720703125,0.1025609970092773,-0.069616362452507,-0.4930078387260437,74.50555419921875,-86.0711669921875,233.4605255126953
1700075309,0.9673309326171876,-0.1074981689453125,-0.0754547119140625,0.1172368749976158,-0.0739914029836654,-0.4746376276016235,74.49848937988281,-86.19345092773438,234.29042053222656
1700075309,0.9773712158203124,-0.1024322509765625,-0.0543212890625,0.1381091326475143,-0.062478557229042,-0.4734181463718414,74.65611267089844,-86.20988464355469,234.2725372314453
1700075309,0.9727325439453124,-0.094329833984375,-0.04852294921875,0.144069030880928,-0.0523481592535972,-0.4767252802848816,74.34011840820312,-86.36651611328125,233.6277770996093
1700075309,0.95867919921875,-0.0946807861328125,-0.045928955078125,0.1398383229970932,-0.0603815838694572,-0.4757934212684631,74.91680908203125,-86.32301330566406,233.7748565673828
1700075309,0.9454803466796876,-0.1026458740234375,-0.0393829345703125,0.1183604672551155,-0.0646277293562889,-0.481322169303894,74.42654418945312,-86.09754943847656,233.8617401123047
1700075309,0.93487548828125,-0.1162872314453125,-0.0344085693359375,0.0890907272696495,-0.0707553923130035,-0.4791756570339203,74.449462890625,-86.26399230957031,233.30877685546875
1700075309,0.925628662109375,-0.12518310546875,-0.0311126708984375,0.0450114160776138,-0.0699231550097465,-0.4631727039813995,74.69781494140625,-86.12713623046875,233.5129547119141
1700075309,0.91925048828125,-0.1284637451171875,-0.0385894775390625,0.0102031026035547,-0.0761317834258079,-0.4342031180858612,74.46884155273438,-86.22396850585938,233.8448028564453
1700075309,0.9210052490234376,-0.126861572265625,-0.0470733642578125,-0.0162804368883371,-0.0874491557478904,-0.4134813249111175,74.49655151367188,-86.08486938476562,233.4323883056641
1700075309,0.936370849609375,-0.12890625,-0.049346923828125,-0.0582156367599964,-0.0912990197539329,-0.376272439956665,74.40951538085938,-86.29159545898438,233.7937164306641
1700075309,0.94940185546875,-0.1207122802734375,-0.0598907470703125,-0.0366424322128295,-0.1089235544204711,-0.3775763213634491,74.37382507324219,-86.09585571289062,233.5093688964844
1700075309,0.9515228271484376,-0.1367645263671875,-0.043548583984375,-0.0130697293207049,-0.1030217260122299,-0.3676033020019531,74.39248657226562,-86.40632629394531,233.3798675537109
1700075309,0.933349609375,-0.131500244140625,-0.0498046875,0.0284002162516117,-0.1058199033141136,-0.3632695376873016,74.31256103515625,-86.15696716308594,233.54129028320312
1700075309,0.919097900390625,-0.10400390625,-0.0473175048828125,0.1024094596505165,-0.1025876253843307,-0.3766026794910431,74.34677124023438,-85.87033081054688,233.66082763671875
1700075309,0.91943359375,-0.089752197265625,-0.0442962646484375,0.1813777834177017,-0.0925557687878608,-0.3889075219631195,74.35865783691406,-86.22540283203125,233.42442321777344
1700075309,0.9192352294921876,-0.0898284912109375,-0.0479583740234375,0.216938704252243,-0.0845468416810035,-0.3758838772773742,74.333251953125,-85.79859924316406,233.23391723632807
1700075309,0.933258056640625,-0.114898681640625,-0.0442352294921875,0.1983652859926223,-0.076336845755577,-0.3328173756599426,74.33845520019531,-86.40800476074219,233.1133575439453
1700075309,0.943603515625,-0.14813232421875,-0.0507659912109375,0.124080404639244,-0.0741892755031585,-0.2780563831329345,74.1536865234375,-86.12945556640625,233.974853515625
1700075309,0.9453887939453124,-0.1829986572265625,-0.0498809814453125,0.0308971963822841,-0.0727101564407348,-0.2321139276027679,74.36517333984375,-85.98382568359375,233.49256896972656
1700075309,0.94024658203125,-0.2086029052734375,-0.0398406982421875,-0.0484508909285068,-0.0859410092234611,-0.1970060020685196,74.22067260742188,-86.18592834472656,233.80450439453125
1700075309,0.9294586181640624,-0.225799560546875,-0.01824951171875,-0.111342504620552,-0.082331359386444,-0.1539189964532852,74.60446166992188,-86.17610168457031,233.92633056640625
1700075309,0.919677734375,-0.2250823974609375,-0.00762939453125,-0.0441091395914554,-0.0885064303874969,-0.189610406756401,74.55671691894531,-86.46562194824219,234.10890197753903
1700075309,0.9225006103515624,-0.2672882080078125,0.0215301513671875,-0.0303579047322273,-0.0762039572000503,-0.1702945083379745,74.61997985839844,-86.31838989257812,233.9403076171875
1700075309,0.9007568359375,-0.2463836669921875,0.0003204345703125,-0.011836951598525,-0.0737972557544708,-0.1814672648906707,74.63882446289062,-86.26669311523438,233.7751007080078
1700075309,0.9020233154296876,-0.2377166748046875,-0.004791259765625,0.0414489060640335,-0.0897293537855148,-0.2131756544113159,74.69924926757812,-86.20381164550781,233.32598876953125
1700075309,0.9084014892578124,-0.244598388671875,0.0023040771484375,0.1208433285355568,-0.104377806186676,-0.2274478077888488,74.5811767578125,-86.22653198242188,233.5938873291016
1700075309,0.8989105224609375,-0.2342071533203125,0.027008056640625,0.2288611382246017,-0.101517304778099,-0.2191890776157379,74.796630859375,-86.35798645019531,233.2503662109375
1700075309,0.8793182373046875,-0.1965484619140625,0.043670654296875,0.3609067797660827,-0.0828813016414642,-0.2028644233942031,74.69471740722656,-86.46536254882812,233.2933349609375
1700075309,0.8652496337890625,-0.1446533203125,0.0251007080078125,0.5066429376602173,-0.0442857071757316,-0.1747094839811325,74.80755615234375,-86.43321228027344,233.73294067382807
1700075309,0.85211181640625,-0.095123291015625,-0.0231170654296875,0.6605417132377625,0.0021789984311908,-0.1052079126238823,74.8299560546875,-86.53776550292969,232.83555603027344
1700075309,0.8387451171875,-0.0507965087890625,-0.0684661865234375,0.7970630526542664,0.0227689612656831,0.0054847802966833,74.91217041015625,-86.39210510253906,233.4815673828125
1700075310,0.8543243408203125,-0.017181396484375,-0.106536865234375,0.9008917212486268,0.0581919327378273,0.1552907824516296,74.60997009277344,-85.9180908203125,233.42507934570312
1700075310,0.8708953857421875,0.03118896484375,-0.1486663818359375,0.9916900992393494,0.1261648535728454,0.2983339726924896,74.74089050292969,-85.96226501464844,233.81578063964844
1700075310,0.871917724609375,0.0835723876953125,-0.1937103271484375,1.095279335975647,0.2159472107887268,0.4338414669036865,74.86180114746094,-86.35902404785156,233.7908630371093
1700075310,0.86187744140625,0.133514404296875,-0.2423248291015625,1.2162773609161377,0.3672989010810852,0.5332311391830444,74.7474365234375,-85.91529846191406,233.89712524414065
1700075310,0.8763580322265625,0.1469573974609375,-0.3275909423828125,1.3246206045150757,0.3745056986808777,0.6725786924362183,74.90486145019531,-86.14419555664062,233.23272705078125
1700075310,0.8505859375,0.1534271240234375,-0.34417724609375,1.3297903537750244,0.3282955884933471,0.5248696208000183,74.90928649902344,-86.26655578613281,233.76803588867188
1700075310,1.0086212158203125,-0.0623016357421875,-0.165679931640625,1.2029876708984375,0.2823446094989776,0.2555476129055023,74.70231628417969,-85.74662780761719,233.92051696777344
1700075310,1.0892791748046875,-0.402099609375,-0.0160369873046875,0.7619583606719971,0.3063210546970367,0.0826181769371032,74.86000061035156,-86.02436828613281,233.2135162353516
1700075310,1.0426788330078125,-0.644317626953125,-0.05047607421875,0.100238986313343,0.3308540880680084,-0.1126277446746826,74.88534545898438,-85.65145874023438,234.1638336181641
1700075310,0.9962005615234376,-0.813507080078125,-0.1373748779296875,-0.3544707298278808,0.421069473028183,-0.2182026356458664,74.97744750976562,-85.66279602050781,233.8143310546875
1700075310,1.0729522705078125,-0.9859771728515624,-0.158416748046875,-0.6969844102859497,0.4658510386943817,0.442287415266037,74.8255615234375,-85.76142883300781,233.9510192871093
1700075310,1.0998687744140625,-0.7504425048828125,-0.238311767578125,-1.1370779275894165,0.6078108549118042,1.4420396089553833,75.07327270507812,-85.97926330566406,233.19216918945312
1700075310,1.2137451171875,-0.412017822265625,-0.3211822509765625,-1.2959295511245728,0.6473302841186523,1.7562953233718872,74.85566711425781,-85.56303405761719,233.49850463867188
1700075310,1.348358154296875,-0.3217926025390625,-0.1797943115234375,-1.1834049224853516,0.6703051328659058,1.6853058338165283,74.86355590820312,-85.78472900390625,233.7360382080078
1700075310,1.206268310546875,-0.1391754150390625,-0.1127777099609375,-0.7782462239265442,0.7414813041687012,1.442729115486145,74.81901550292969,-85.51167297363281,233.47732543945312
1700075310,0.991546630859375,0.0872955322265625,-0.1424407958984375,-0.2669366300106048,0.7346808910369873,1.1989144086837769,75.12606811523438,-85.33110046386719,233.63882446289065
1700075310,0.9100799560546876,0.26641845703125,-0.1014251708984375,-0.1298477500677108,0.6554497480392456,1.0147106647491455,74.90278625488281,-85.44966125488281,233.7301177978516
1700075310,0.9532318115234376,0.380889892578125,-0.0794525146484375,0.0344320088624954,0.6554234027862549,0.7471514344215393,75.12797546386719,-85.28904724121094,233.69140625
1700075310,0.9847869873046876,0.2696685791015625,-0.130523681640625,0.2322225868701934,0.6482842564582825,0.6286810040473938,75.29478454589844,-85.34803771972656,233.71173095703125
1700075310,0.94818115234375,0.122222900390625,-0.2871246337890625,0.3123951852321625,0.5444025993347168,0.599839985370636,75.57766723632812,-85.48167419433594,233.8498687744141
1700075310,1.0172119140625,0.0228729248046875,-0.3719940185546875,0.3591144979000091,0.3947742283344269,0.6308653354644775,75.31640625,-85.48863220214844,233.31466674804688
1700075310,1.106719970703125,-0.0102691650390625,-0.33160400390625,0.3143648505210876,0.3204810619354248,0.5785472393035889,75.47369384765625,-85.39448547363281,233.5931854248047
1700075310,1.14971923828125,-0.0214996337890625,-0.2544097900390625,0.2653251588344574,0.2942553162574768,0.4974318742752075,75.19026184082031,-85.41227722167969,233.785400390625
1700075310,1.0921173095703125,0.048736572265625,-0.1708221435546875,0.3120202124118805,0.3006447851657867,0.4053757190704345,75.67997741699219,-85.44590759277344,233.82540893554688
1700075310,1.031158447265625,0.1442108154296875,-0.11590576171875,0.4013879001140594,0.3323065638542175,0.2444811165332794,75.052978515625,-85.35574340820312,233.77362060546875
1700075310,1.0469818115234375,0.156524658203125,-0.0908203125,0.424952894449234,0.359800785779953,0.1073682680726051,75.41693115234375,-85.50163269042969,233.37811279296875
1700075310,1.0518798828125,0.1132965087890625,-0.0855255126953125,0.3703543543815613,0.3937523663043976,0.0425794199109077,75.19596862792969,-85.47209167480469,233.8750457763672
1700075310,1.03466796875,0.021087646484375,-0.12939453125,0.3022120594978332,0.3876199126243591,0.0430092513561248,75.29315185546875,-85.55476379394531,233.53225708007807
1700075310,1.0209503173828125,-0.06475830078125,-0.1763916015625,0.2442062795162201,0.3695937693119049,0.0745948776602745,75.28086853027344,-85.54640197753906,234.2188873291016
1700075310,1.0003509521484375,-0.1303558349609375,-0.2134857177734375,0.2114954739809036,0.3430039584636688,0.1217581257224083,75.45272827148438,-85.42068481445312,233.9134521484375
1700075310,0.964111328125,-0.178802490234375,-0.2630615234375,0.2729929089546203,0.2792931497097015,0.1816803216934204,75.15780639648438,-85.7696533203125,234.1592254638672
1700075310,0.9405517578125,-0.1749114990234375,-0.302734375,0.3351795971393585,0.2048474252223968,0.2220623642206192,75.30165100097656,-84.92701721191406,233.9698944091797
1700075310,0.9599609375,-0.1316986083984375,-0.304473876953125,0.3720417320728302,0.1685006022453308,0.2402171343564987,75.34541320800781,-85.14289855957031,233.76597595214844
1700075310,0.9789276123046876,-0.100982666015625,-0.2654266357421875,0.4122480154037475,0.1448709070682525,0.237634390592575,75.38778686523438,-84.98609924316406,233.5237274169922
1700075310,0.9740753173828124,-0.075439453125,-0.2371826171875,0.4043053984642029,0.1324584484100341,0.2273540645837783,75.48391723632812,-85.09950256347656,233.93630981445312
1700075310,0.9748687744140624,-0.0531768798828125,-0.23291015625,0.368021160364151,0.1301510781049728,0.2204072028398513,75.67080688476562,-85.17791748046875,233.6279754638672
1700075310,0.982330322265625,-0.0347747802734375,-0.20965576171875,0.3124324679374695,0.1322581768035888,0.2075012624263763,75.60099792480469,-84.99038696289062,234.24317932128903
1700075310,1.0021209716796875,-0.0194854736328125,-0.187652587890625,0.236386701464653,0.1440090984106063,0.179767906665802,75.54927062988281,-85.11061096191406,233.7672271728516
1700075310,1.01690673828125,-0.0322418212890625,-0.1843414306640625,0.1902740746736526,0.150984451174736,0.1724625825881958,75.62606811523438,-84.93341064453125,233.9508056640625
1700075310,1.0008697509765625,-0.0682373046875,-0.1702728271484375,0.1534838378429412,0.143663689494133,0.1767068654298782,75.68385314941406,-84.90859985351562,233.38511657714844
1700075310,0.97283935546875,-0.0966644287109375,-0.199951171875,0.1704321950674057,0.1148829087615013,0.1923326998949051,75.85398864746094,-84.84518432617188,233.5601043701172
1700075310,0.959228515625,-0.0738067626953125,-0.2574310302734375,0.1955969333648681,0.0755666643381118,0.1822126805782318,75.84780883789062,-85.18055725097656,233.358139038086
1700075310,0.9883880615234376,-0.0206756591796875,-0.2436981201171875,0.2357573956251144,0.0547244995832443,0.1561901420354843,75.71308898925781,-85.302490234375,233.9242401123047
1700075310,1.0073394775390625,0.01251220703125,-0.2229461669921875,0.3346621394157409,0.0286356396973133,0.1359202861785888,75.89413452148438,-84.90902709960938,233.771484375
1700075310,0.9981231689453124,0.013671875,-0.238800048828125,0.3836821615695953,0.0037856835406273,0.133962333202362,75.64126586914062,-84.82545471191406,233.35118103027344
1700075310,0.98779296875,-0.014312744140625,-0.2347564697265625,0.3648290932178497,-0.0045385588891804,0.1558399349451065,75.763427734375,-84.768310546875,233.9288024902344
1700075310,0.963470458984375,-0.061614990234375,-0.228179931640625,0.3319348096847534,-0.0011973571963608,0.2072607725858688,75.74114990234375,-84.88175964355469,233.49449157714844
1700075310,0.9359130859375,-0.107269287109375,-0.2257232666015625,0.2900709807872772,0.0041444110684096,0.2437420934438705,75.72752380371094,-84.61289978027344,233.45050048828125
1700075310,0.9380035400390624,-0.150909423828125,-0.2040252685546875,0.2444121390581131,0.028245486319065,0.2924920618534088,75.84361267089844,-84.60868835449219,233.0496368408203
1700075310,0.9403076171875,-0.1640625,-0.18597412109375,0.1847362965345382,0.0407042875885963,0.3558603823184967,76.00430297851562,-85.10061645507812,233.41818237304688
1700075310,0.9483184814453124,-0.139739990234375,-0.2136383056640625,0.152964249253273,0.0454369895160198,0.3879700899124145,75.71337890625,-84.628662109375,233.31619262695312
1700075310,0.9618988037109376,-0.1016082763671875,-0.255950927734375,0.1499098688364029,0.0377244763076305,0.4055554866790771,75.92277526855469,-84.68748474121094,233.5737762451172
1700075310,0.976165771484375,-0.05072021484375,-0.2445220947265625,0.181075245141983,0.0317139886319637,0.4092157483100891,75.82341003417969,-84.48692321777344,234.045639038086
1700075310,0.98876953125,-0.0097198486328125,-0.2252197265625,0.2367600798606872,0.0302740167826414,0.4107891321182251,76.1243896484375,-84.43186950683594,233.4439392089844
1700075310,0.984893798828125,0.0018768310546875,-0.227691650390625,0.2965621650218963,0.0347683653235435,0.412885308265686,76.07546997070312,-84.41310119628906,233.48487854003903
1700075310,0.9697723388671876,-0.0206146240234375,-0.2220458984375,0.3206675052642822,0.0435887575149536,0.4395579397678375,75.68429565429688,-84.51844787597656,233.437728881836
1700075310,0.9521636962890624,-0.04791259765625,-0.219970703125,0.2989528775215149,0.0563980266451835,0.4681307077407837,75.94412231445312,-84.50691223144531,233.5372772216797
1700075310,0.9535369873046876,-0.0943756103515625,-0.2009735107421875,0.261431872844696,0.0808615610003471,0.5047297477722168,75.91007995605469,-84.18858337402344,233.6920166015625
1700075310,0.957763671875,-0.1344451904296875,-0.2153167724609375,0.2188532501459121,0.0761658772826194,0.5469706654548645,75.9071044921875,-84.10270690917969,233.956787109375
1700075310,0.9700469970703124,-0.116058349609375,-0.23236083984375,0.1809343695640564,0.0731066986918449,0.5773499011993408,76.06999206542969,-84.13375854492188,234.2235870361328
1700075310,0.9917755126953124,-0.0645599365234375,-0.2462310791015625,0.1790051758289337,0.0697029158473014,0.5961377024650574,76.41867065429688,-83.955078125,233.5756225585937
1700075310,0.982391357421875,-0.0015106201171875,-0.2513580322265625,0.2455873936414718,0.0750790387392044,0.606111466884613,76.018310546875,-84.00712585449219,233.7896881103516
1700075310,0.977081298828125,0.0285797119140625,-0.2110595703125,0.2962609529495239,0.092022068798542,0.6232308149337769,76.0811767578125,-83.85804748535156,233.7582244873047
1700075310,0.976104736328125,0.0220184326171875,-0.179290771484375,0.3109727799892425,0.1433774083852768,0.656321108341217,76.34922790527344,-83.497802734375,233.244140625
1700075310,0.97515869140625,-0.0175323486328125,-0.1564483642578125,0.267002135515213,0.197872593998909,0.7310147881507874,76.08680725097656,-83.44796752929688,233.3309631347656
1700075310,0.96075439453125,-0.05645751953125,-0.13958740234375,0.2352676391601562,0.24537193775177,0.8127264380455017,76.17256164550781,-83.46591186523438,233.817626953125
1700075310,0.95330810546875,-0.0830078125,-0.168701171875,0.2061110883951187,0.2715092599391937,0.8847945332527161,76.12599182128906,-83.26235961914062,233.3813934326172
1700075310,0.960693359375,-0.0597076416015625,-0.20458984375,0.1820640712976455,0.292883813381195,0.9183942675590516,76.39033508300781,-82.76301574707031,233.40545654296875
1700075310,0.9849700927734376,-0.0098876953125,-0.2108154296875,0.173619732260704,0.310368001461029,0.936874508857727,76.35743713378906,-82.91366577148438,233.50244140625
1700075310,0.9947509765625,0.033233642578125,-0.2252044677734375,0.1790347248315811,0.304694652557373,0.96535325050354,76.37991333007812,-82.60455322265625,233.10650634765625
1700075310,0.9902496337890624,0.0672454833984375,-0.23291015625,0.1946741491556167,0.3027284443378448,0.9926251173019408,76.11697387695312,-82.75108337402344,233.8868408203125
1700075310,0.977630615234375,0.078704833984375,-0.2398681640625,0.201359212398529,0.3129174411296844,1.0300902128219604,76.31903076171875,-82.48738098144531,233.5495758056641
1700075310,0.963104248046875,0.077880859375,-0.2688751220703125,0.2116302251815796,0.3211567103862762,1.0493555068969729,76.39945983886719,-82.84376525878906,233.2327423095703
1700075310,0.9709320068359376,0.0568695068359375,-0.271026611328125,0.2120898813009262,0.3217194378376007,1.0601117610931396,76.60685729980469,-82.4859619140625,232.39051818847656
1700075310,0.9795989990234376,0.0551300048828125,-0.267120361328125,0.2181488424539566,0.3089759647846222,1.0853002071380615,76.38290405273438,-82.48710632324219,232.9244537353516
1700075310,0.995635986328125,0.0865478515625,-0.2807464599609375,0.2991963028907776,0.2845017611980438,1.0547842979431152,76.65095520019531,-82.4583740234375,232.673583984375
1700075310,1.0368194580078125,0.1322174072265625,-0.3053741455078125,0.4238748550415039,0.2722562849521637,1.0153783559799194,76.43185424804688,-82.44046020507812,232.8406219482422
1700075310,1.062835693359375,0.1967926025390625,-0.2680511474609375,0.4895502626895904,0.2869462966918945,0.9774757027626038,76.61891174316406,-82.1461181640625,232.7910003662109
1700075310,1.0720062255859375,0.2529449462890625,-0.242706298828125,0.6259390115737915,0.250600516796112,0.9348955154418944,76.46000671386719,-82.06495666503906,232.91363525390625
1700075310,1.1468048095703125,0.2352752685546875,-0.21826171875,0.6834110617637634,0.1799026578664779,0.929420292377472,76.55874633789062,-81.51506042480469,232.5230712890625
1700075310,1.2713775634765625,0.2271270751953125,-0.1599578857421875,0.5439551472663879,0.16878741979599,0.9663114547729492,76.50340270996094,-81.43098449707031,232.36476135253903
1700075310,1.3128204345703125,0.236541748046875,-0.0703125,0.3982970416545868,0.1856577396392822,1.0364607572555542,76.55989074707031,-81.23876953125,232.55743408203125
1700075310,1.320281982421875,0.2110595703125,-0.02001953125,0.186811164021492,0.1673655658960342,1.131763577461243,76.36854553222656,-81.35179138183594,232.1663360595703
1700075310,1.3535919189453125,0.1868438720703125,-0.0452423095703125,0.1144946217536926,0.1464022248983383,1.204451322555542,76.51846313476562,-80.95687866210938,232.0193023681641
1700075310,1.4141082763671875,0.1458740234375,-0.1135101318359375,0.1116809919476509,0.1046608984470367,1.2015948295593262,76.18711853027344,-80.34007263183594,232.112060546875
1700075310,1.4537353515625,0.108917236328125,-0.1747589111328125,0.1661948263645172,0.0497188195586204,1.1822019815444946,76.540771484375,-80.36819458007812,231.70733642578125
1700075310,1.4889373779296875,0.07525634765625,-0.1499786376953125,0.2018755972385406,-0.0329377092421054,1.169710397720337,76.28428649902344,-80.06965637207031,231.8232421875
1700075310,1.519805908203125,0.056884765625,-0.1593170166015625,0.2212122827768325,-0.1240449845790863,1.1575794219970703,76.49411010742188,-79.99113464355469,232.232421875
1700075310,1.5760955810546875,-0.028961181640625,-0.13836669921875,0.288780927658081,-0.1888591349124908,1.1426132917404177,76.07997131347656,-79.85877990722656,232.27761840820312
1700075310,1.6121978759765625,-0.1319122314453125,-0.1088714599609375,0.3475558459758758,-0.2393774390220642,1.1149126291275024,76.36627197265625,-79.89054870605469,231.8778839111328
1700075310,1.6232147216796875,-0.217681884765625,-0.0659332275390625,0.3984911739826202,-0.2887505888938904,1.084248185157776,76.22418212890625,-79.85662841796875,232.12283325195312
1700075310,1.5970001220703125,-0.2845916748046875,0.0217742919921875,0.3912295401096344,-0.3097418844699859,1.0698645114898682,76.27470397949219,-79.81842041015625,232.1420135498047
1700075310,1.5121612548828125,-0.3562164306640625,0.101043701171875,0.3359234035015106,-0.2551944851875305,1.061968445777893,76.22900390625,-79.96505737304688,232.0766143798828
1700075310,1.3951568603515625,-0.44635009765625,0.117950439453125,0.2599948346614837,-0.130527913570404,1.0458928346633911,76.07868957519531,-79.97882080078125,232.0817413330078
1700075310,1.272308349609375,-0.5143585205078125,-0.0197296142578125,0.1618759781122207,0.0845076963305473,1.1359015703201294,75.45489501953125,-79.82344055175781,232.15646362304688
1700075310,1.1295623779296875,-0.483367919921875,-0.311676025390625,0.1364971250295639,0.354649156332016,1.5202559232711792,75.67068481445312,-80.25051879882812,232.3062286376953
1700075310,0.98663330078125,-0.2817230224609375,-0.6842041015625,-0.0054890410974621,0.5475938320159912,2.0358870029449463,75.68994140625,-80.11354064941406,231.9741668701172
1700075310,1.0106353759765625,-0.0274810791015625,-0.995574951171875,-0.3378094732761383,0.7159165740013123,2.2197704315185547,75.43316650390625,-80.31631469726562,232.23716735839844
1700075310,1.317138671875,0.00909423828125,-1.1257476806640625,-0.8701708316802979,0.8280667662620544,2.1432127952575684,75.92356872558594,-80.14358520507812,232.4202117919922
1700075311,1.5814971923828125,-0.0157012939453125,-1.0845794677734375,-1.34401535987854,0.9495636820793152,2.165306806564331,75.65516662597656,-80.371337890625,232.2261199951172
1700075311,1.4820709228515625,0.11761474609375,-1.0501556396484375,-1.3074816465377808,1.072344183921814,2.263862609863281,75.26319885253906,-80.48397827148438,232.48426818847656
1700075311,1.2012176513671875,0.2718505859375,-1.045623779296875,-0.824878454208374,1.0040740966796875,2.478764295578003,75.70790100097656,-80.69325256347656,232.5717010498047
1700075311,1.1055145263671875,0.4755706787109375,-0.866119384765625,-0.6793590784072876,0.8548544645309448,2.562678575515747,75.64938354492188,-80.66032409667969,232.6748504638672
1700075311,1.257720947265625,0.64141845703125,-0.529266357421875,-0.5850933194160461,0.9685213565826416,2.525132417678833,75.3746337890625,-80.75044250488281,233.2449951171875
1700075311,1.361297607421875,0.788482666015625,-0.278778076171875,-0.373250275850296,1.092434287071228,2.3211669921875,75.3868408203125,-80.86882019042969,233.022689819336
1700075311,1.451751708984375,0.8213043212890625,-0.2089080810546875,-0.0229639057070016,0.955930233001709,1.847642064094544,75.12031555175781,-81.16912841796875,232.76412963867188
1700075311,1.5655975341796875,0.530853271484375,-0.1367034912109375,0.3801084458827972,0.9014821648597716,1.5159165859222412,75.425048828125,-81.38572692871094,232.7997131347656
1700075311,1.4261474609375,0.208526611328125,-0.198150634765625,0.5390632152557373,0.9823192358016968,1.4733062982559204,75.27426147460938,-81.68913269042969,233.2803497314453
1700075311,1.1783447265625,0.1300811767578125,-0.416717529296875,0.4855331480503082,1.0140122175216677,1.6587584018707275,74.92662048339844,-81.78800964355469,233.089096069336
1700075311,1.030120849609375,0.1678466796875,-0.5253753662109375,0.274136483669281,0.9529320001602172,1.780345797538757,74.98939514160156,-82.12515258789062,233.5736694335937
1700075311,1.0432281494140625,0.207672119140625,-0.57672119140625,-0.0562664680182933,0.880315899848938,1.6616662740707395,75.09799194335938,-82.39605712890625,234.0307006835937
1700075311,1.1165618896484375,0.28558349609375,-0.6545562744140625,-0.3594622910022735,0.8453280925750732,1.404012680053711,75.36753845214844,-82.81924438476562,234.0236053466797
1700075311,1.1594085693359375,0.3667144775390625,-0.6457672119140625,-0.63689124584198,0.7965831756591797,1.0663107633590698,75.25955200195312,-82.92549133300781,233.5549468994141
1700075311,1.1796417236328125,0.4188079833984375,-0.5524139404296875,-0.8057316541671753,0.6925622224807739,0.723267138004303,75.33203125,-83.31095886230469,234.19415283203125
1700075311,1.1362152099609375,0.4358673095703125,-0.42120361328125,-0.8670259118080139,0.5711806416511536,0.4077909588813782,74.92753601074219,-83.70065307617188,234.4912109375
1700075311,0.9952239990234376,0.3981475830078125,-0.3342437744140625,-0.8980125784873962,0.4776328802108764,0.2104536443948745,75.25027465820312,-83.76261901855469,234.3187561035156
1700075311,0.7532501220703125,0.393341064453125,-0.282440185546875,-0.9139694571495056,0.4414634108543396,0.0575309358537197,75.22285461425781,-83.61431884765625,234.3285217285156
1700075311,0.5043182373046875,0.3659515380859375,-0.20501708984375,-0.9792240858078004,0.3299579322338104,-0.1466634720563888,75.43556213378906,-84.05403137207031,234.528076171875
1700075311,0.38104248046875,0.2822265625,-0.1440582275390625,-1.095279335975647,0.2109377980232238,-0.3152626156806946,75.21688842773438,-84.30606079101562,234.2364196777344
1700075311,0.3483123779296875,0.2345733642578125,-0.19635009765625,-1.2392306327819824,0.1057211011648178,-0.386172741651535,75.58955383300781,-84.50300598144531,234.6858825683593
1700075311,0.324310302734375,0.24896240234375,-0.266387939453125,-1.4612705707550049,-0.0055465656332671,-0.5281413197517395,75.27705383300781,-84.96678161621094,234.41465759277344
1700075311,0.3371734619140625,0.2637939453125,-0.3137054443359375,-1.6374843120574951,-0.1280021667480468,-0.8352349400520325,75.40702819824219,-84.8697509765625,234.87452697753903
1700075311,0.379058837890625,0.20849609375,-0.291748046875,-1.654905080795288,-0.208477571606636,-1.088621973991394,75.4451904296875,-84.84822082519531,234.7784576416016
1700075311,0.342437744140625,0.1945037841796875,-0.2423858642578125,-1.568393588066101,-0.2932718098163605,-1.2084341049194336,75.66392517089844,-85.06007385253906,234.9597625732422
1700075311,0.218505859375,0.1734161376953125,-0.21246337890625,-1.5354197025299072,-0.3926072120666504,-1.3721489906311035,75.05027770996094,-85.03582763671875,235.2688446044922
1700075311,0.1592254638671875,0.1090545654296875,-0.2365264892578125,-1.4856513738632202,-0.49201101064682,-1.5959261655807495,75.33891296386719,-85.1190185546875,234.8298797607422
1700075311,0.148681640625,0.0583953857421875,-0.267333984375,-1.3437589406967163,-0.5876448750495911,-1.803252458572388,75.24525451660156,-84.80320739746094,235.0203399658203
1700075311,0.1504974365234375,0.05926513671875,-0.2117462158203125,-1.174110770225525,-0.6791985034942627,-1.992638349533081,75.31756591796875,-85.13626098632812,235.36376953125
1700075311,0.12322998046875,0.1290435791015625,-0.1994781494140625,-0.9739363789558412,-0.7610867023468018,-2.2446038722991943,75.47802734375,-85.01545715332031,235.0035858154297
1700075311,0.1243896484375,0.1809234619140625,-0.1993408203125,-0.7915745377540588,-0.8477379679679871,-2.5367796421051025,75.53379821777344,-84.99134826660156,234.6918182373047
1700075311,0.1592559814453125,0.17877197265625,-0.1721954345703125,-0.6012696027755737,-0.8923805356025696,-2.722489595413208,75.03712463378906,-85.03169250488281,234.87355041503903
1700075311,0.1456298828125,0.1593170166015625,-0.162872314453125,-0.4601572155952453,-0.9252785444259644,-2.8704168796539307,75.09690856933594,-84.80326843261719,234.57882690429688
1700075311,0.14208984375,0.13232421875,-0.1866455078125,-0.5280331969261169,-0.964386820793152,-3.0188148021698,75.48651123046875,-85.06797790527344,235.20318603515625
1700075311,0.143035888671875,0.1878662109375,-0.2227020263671875,-0.6917909979820251,-0.9707709550857544,-3.121039867401123,75.67959594726562,-84.88619995117188,234.9766540527344
1700075311,0.1221923828125,0.2435760498046875,-0.245758056640625,-0.8895458579063416,-1.0246456861495972,-3.124394655227661,75.24267578125,-84.97145080566406,235.2306365966797
1700075311,0.1175384521484375,0.323516845703125,-0.2461700439453125,-0.9185932278633118,-1.115899920463562,-3.009182929992676,75.45919799804688,-84.843505859375,234.93836975097656
1700075311,0.129180908203125,0.49542236328125,-0.2796783447265625,-0.6967388391494751,-1.1634013652801514,-2.823364496231079,75.71844482421875,-84.8665771484375,234.58837890625
1700075311,0.146759033203125,0.78460693359375,-0.3863983154296875,-0.3024613261222839,-1.1125839948654177,-2.6809628009796143,75.690185546875,-84.79951477050781,234.7754821777344
1700075311,0.12091064453125,1.0825042724609375,-0.558197021484375,0.1106330379843711,-0.9615095257759094,-2.4641776084899902,75.51298522949219,-85.10574340820312,234.7494506835937
1700075311,0.10931396484375,1.3681640625,-0.7096710205078125,0.5190815329551697,-0.7644217610359192,-2.13820481300354,75.66781616210938,-84.52616882324219,234.3773193359375
1700075311,0.177337646484375,1.6085662841796875,-0.828369140625,1.1101341247558594,-0.5814394354820251,-1.823341488838196,75.515380859375,-84.44589233398438,234.9419403076172
1700075311,0.28753662109375,1.7166595458984375,-0.8974609375,1.4680448770523071,-0.4421979188919067,-1.1984707117080688,75.618408203125,-84.61491394042969,235.05821228027344
1700075311,0.2537078857421875,2.0400390625,-0.9907989501953124,1.523558497428894,-0.2967123687267303,-0.7110232710838318,75.66531372070312,-84.57923889160156,234.32302856445312
1700075311,0.2944183349609375,2.2357940673828125,-0.944061279296875,1.486579418182373,-0.1843541264533996,-0.4317831099033355,75.76287841796875,-84.69221496582031,234.5968780517578
1700075311,0.3049163818359375,2.2270660400390625,-0.787200927734375,1.7133619785308838,-0.0987958163022995,-0.2378266751766204,76.07327270507812,-84.67840576171875,234.21864318847656
1700075311,0.2787017822265625,1.9271087646484373,-0.572784423828125,1.3688576221466064,0.2821139693260193,-0.3385575413703918,75.72067260742188,-84.30232238769531,234.88150024414065
1700075311,0.21600341796875,1.33331298828125,-0.80853271484375,0.7404607534408569,0.2734067738056183,-0.3428566753864288,75.72720336914062,-84.21914672851562,234.7342071533203
1700075311,0.199432373046875,0.7422637939453125,-0.947174072265625,0.004121774341911,-0.0282942224293947,-0.362750768661499,76.025146484375,-84.47608947753906,234.3191833496093
1700075311,0.99005126953125,0.25640869140625,-0.5117645263671875,0.1179258376359939,-0.2335360497236251,-0.7708136439323425,75.65020751953125,-84.17501831054688,233.92648315429688
1700075311,2.088531494140625,-0.207550048828125,-0.171875,0.0714286416769027,-0.2058133482933044,0.056904561817646,75.86213684082031,-83.93038940429688,233.8421173095703
1700075311,2.1502838134765625,0.08636474609375,-0.3920745849609375,0.2001738399267196,-0.2464225590229034,1.433998465538025,75.33702087402344,-83.97773742675781,234.52915954589844
1700075311,1.8041229248046875,0.301025390625,-0.3290252685546875,-0.2864666581153869,-0.244412675499916,1.5898059606552124,75.51327514648438,-84.20672607421875,233.95790100097656
1700075311,1.4798583984375,0.174072265625,-0.144927978515625,-0.8114944696426392,-0.1542734652757644,1.1302332878112793,75.88926696777344,-84.18672180175781,233.97999572753903
1700075311,0.9539947509765624,0.5601654052734375,-0.1400299072265625,-0.7468031048774719,0.1151644065976142,0.5491201281547546,76.10734558105469,-83.97401428222656,234.1879425048828
1700075311,0.42242431640625,0.6534576416015625,-0.4454803466796875,-0.349901020526886,0.0949827060103416,0.1667074859142303,75.99784851074219,-84.02037048339844,234.22506713867188
1700075311,0.44366455078125,0.5331573486328125,-0.4656524658203125,-0.2821078598499298,-0.0020530307665467,0.0733367949724197,75.83802795410156,-84.11546325683594,233.9461212158203
1700075311,0.7233428955078125,0.50531005859375,-0.4089508056640625,-0.3089464008808136,0.0212557539343833,-0.0387098453938961,75.67030334472656,-84.28091430664062,233.795654296875
1700075311,0.815338134765625,0.4085693359375,-0.33837890625,-0.3386433124542236,0.1105733811855316,-0.1628040969371795,75.88923645019531,-84.0465087890625,234.0248870849609
1700075311,0.97552490234375,0.2870330810546875,-0.2965545654296875,-0.3019215166568756,0.1301649212837219,-0.2101068943738937,75.79612731933594,-83.79623413085938,234.3680114746093
1700075311,1.1999053955078125,0.223297119140625,-0.3426971435546875,-0.1428189426660537,0.0657385364174842,-0.1794539093971252,75.84523010253906,-83.83670043945312,233.51119995117188
1700075311,1.3674774169921875,0.199249267578125,-0.3994140625,-0.0218419153243303,-0.0156170427799224,-0.1612434834241867,75.90695190429688,-83.33219909667969,233.8059844970703
1700075311,1.3386077880859375,0.1725311279296875,-0.4762725830078125,0.0364426970481872,-0.097412571310997,-0.1467084884643554,75.84530639648438,-83.28059387207031,233.5414581298828
1700075311,1.130462646484375,0.1937408447265625,-0.5036773681640625,0.0159805640578269,-0.1658273190259933,-0.1542675942182541,76.07994079589844,-82.86215209960938,233.575927734375
1700075311,1.0303192138671875,0.2274017333984375,-0.480224609375,-0.1178544610738754,-0.2325791865587234,-0.1781311184167862,75.95918273925781,-82.38005065917969,233.3300018310547
1700075311,1.0275115966796875,0.2264556884765625,-0.42962646484375,-0.2386839538812637,-0.2761804461479187,-0.1839413344860077,75.60011291503906,-82.16371154785156,233.5132293701172
1700075311,1.00006103515625,0.204376220703125,-0.416656494140625,-0.2349192947149276,-0.311229795217514,-0.1972004175186157,75.76486206054688,-81.48899841308594,232.6371307373047
1700075311,0.9020233154296876,0.177276611328125,-0.469451904296875,-0.0934734940528869,-0.3721549212932586,-0.2491049021482467,75.61387634277344,-80.93592834472656,232.64263916015625
1700075311,0.795440673828125,0.1742401123046875,-0.51214599609375,0.0786817595362663,-0.4360873103141784,-0.3273144662380218,75.74493408203125,-80.1275634765625,232.23716735839844
1700075311,0.7693328857421875,0.2105560302734375,-0.48016357421875,0.1405936032533645,-0.472061276435852,-0.4170547425746918,75.59268188476562,-79.63209533691406,232.3925628662109
1700075311,0.8212432861328125,0.2612152099609375,-0.4045257568359375,0.0962743386626243,-0.4685658812522888,-0.5133285522460938,75.29371643066406,-79.22099304199219,232.3831481933593
1700075311,0.9088134765625,0.2698974609375,-0.3626251220703125,0.0654407888650894,-0.4522857069969177,-0.5754132270812988,75.37576293945312,-78.56828308105469,231.9554901123047
1700075311,1.027099609375,0.227569580078125,-0.364837646484375,0.0764439105987548,-0.456407755613327,-0.5732818841934204,75.09365844726562,-78.56352233886719,231.9444122314453
1700075311,1.1377716064453125,0.1770782470703125,-0.3726654052734375,0.0880441069602966,-0.4640693962574005,-0.5062954425811768,74.81480407714844,-78.64302062988281,231.8505249023437
1700075311,1.1908721923828125,0.1513824462890625,-0.36651611328125,0.0665020644664764,-0.4543477892875671,-0.4382431209087372,74.50297546386719,-78.60861206054688,231.7601928710937
1700075311,1.1401519775390625,0.149078369140625,-0.348876953125,0.0425991266965866,-0.441467672586441,-0.4247230589389801,74.37673950195312,-78.25328063964844,231.6710357666016
1700075311,1.070068359375,0.150726318359375,-0.318145751953125,0.1386130005121231,-0.40074023604393,-0.4481649994850158,74.26707458496094,-78.48153686523438,230.95396423339844
1700075311,1.021148681640625,0.128143310546875,-0.2864532470703125,0.3251922130584717,-0.3584950268268585,-0.4659261405467987,74.15805053710938,-78.70310974121094,231.6619415283203
1700075311,0.975128173828125,0.11541748046875,-0.3154754638671875,0.505236804485321,-0.351848304271698,-0.4652454555034637,74.34721374511719,-78.83332824707031,231.17120361328125
1700075311,0.9200897216796876,0.1327362060546875,-0.3347625732421875,0.5627450942993164,-0.3566350936889648,-0.483501672744751,74.15657043457031,-78.87232971191406,231.46392822265625
1700075311,0.8879547119140625,0.174591064453125,-0.316436767578125,0.5211042165756226,-0.3470059037208557,-0.5351366400718689,74.41354370117188,-78.5189208984375,231.2429962158203
1700075311,0.8583526611328125,0.2245941162109375,-0.2880706787109375,0.3851159811019897,-0.3259035348892212,-0.563001275062561,73.96710205078125,-78.39610290527344,230.8379669189453
1700075311,0.8332061767578125,0.2518157958984375,-0.2867584228515625,0.3174852728843689,-0.309110164642334,-0.5689806342124939,73.75433349609375,-78.32563781738281,230.94155883789065
1700075311,0.8300323486328125,0.2150115966796875,-0.3267059326171875,0.3288340866565704,-0.3237192034721374,-0.5350894927978516,73.55339050292969,-78.041748046875,229.907943725586
1700075311,0.8592376708984375,0.1378326416015625,-0.3597869873046875,0.41012042760849,-0.3329270780086517,-0.4779583215713501,73.58805847167969,-77.60244750976562,230.3343963623047
1700075311,0.891693115234375,0.0732269287109375,-0.349456787109375,0.5042663812637329,-0.3280005156993866,-0.443968653678894,73.37863159179688,-77.45469665527344,230.1590881347656
1700075311,0.905059814453125,0.0247650146484375,-0.332855224609375,0.5567242503166199,-0.3302189111709595,-0.4167831242084503,73.60530090332031,-77.12088012695312,230.53518676757807
1700075311,0.87030029296875,0.0150604248046875,-0.34710693359375,0.5138169527053833,-0.3231327831745147,-0.3825678825378418,73.10261535644531,-76.82931518554688,230.52053833007807
