timestamp,acc-x,acc-y,acc-z,gyr-x,gyr-y,gyr-z,mag-x,mag-y,mag-z
1699734697,7.187004547119141,-3.545377349853516,-6.159840545654297,0.9133995175361632,-0.5752736926078796,-0.177863210439682,36.22526550292969,-173.51771545410156,-303.70172119140625
1699734697,5.277126159667969,-5.143304443359376,-4.509672088623047,1.0913407802581787,0.4712553918361664,-0.5329853296279907,36.92436218261719,-174.00668334960938,-303.72515869140625
1699734697,3.079845428466797,-5.7684045410156255,-5.966592407226563,1.0926347970962524,0.7930139899253845,-0.7645573019981384,37.443145751953125,-174.03128051757812,-302.6064453125
1699734697,1.919608154296875,-5.368885345458985,-7.26454330444336,1.0264734029769895,0.642195463180542,-0.8978991508483887,37.907012939453125,-174.325927734375,-302.4482421875
1699734697,1.6115487670898438,-4.922363891601563,-6.98432601928711,0.9388404488563538,0.1911473274230957,-1.0644439458847046,38.06294250488281,-174.4986114501953,-302.5647888183594
1699734697,2.2243743896484376,-4.9002099609375005,-7.333849182128906,0.9179577827453612,-0.7616073489189148,-1.282692313194275,37.61322021484375,-174.35137939453125,-303.14874267578125
1699734697,2.3282583618164066,-4.80201416015625,-8.453221435546876,0.822868824005127,-2.364147901535034,-1.508404016494751,36.82508850097656,-174.47506713867188,-304.05694580078125
1699734697,1.8971548461914065,-4.055666198730469,-11.952644348144531,0.5783970355987549,-4.242459297180176,-1.7565025091171265,34.99299621582031,-174.23377990722656,-304.74090576171875
1699734697,1.7128880310058594,-3.861070861816408,-11.683204650878906,0.680533766746521,-4.396633148193359,-1.9865647554397583,33.884033203125,-174.4394989013672,-305.97296142578125
1699734697,1.823507995605469,-3.580105133056641,-6.680008850097656,0.918043315410614,-3.422957181930542,-2.117635726928711,33.10302734375,-174.25253295898438,-306.0652770996094
1699734697,2.4113356018066407,-2.616409149169922,-4.930297393798829,1.0154387950897217,-1.9827420711517327,-2.286939144134521,32.64591979980469,-174.1938018798828,-306.2924194335937
1699734697,2.068099365234376,-2.535277862548828,-4.475243682861328,1.107013702392578,-0.7522660493850708,-2.3929877281188965,33.35430908203125,-174.1701202392578,-306.4685974121094
1699734697,0.6523434448242188,-2.4412733459472657,-5.022655334472656,0.919252634048462,-0.1087579056620597,-2.305526733398437,33.83500671386719,-173.85855102539062,-306.6576843261719
1699734697,-0.4105961608886719,-5.494324493408204,-9.892628173828124,-0.1436298638582229,-0.7627484798431396,-1.913036227226257,33.62419128417969,-173.4300994873047,-307.0814514160156
1699734697,-0.0294886779785156,-7.767198028564453,-12.352462921142578,-1.0438262224197388,-0.7284474968910217,-1.6848293542861938,33.254425048828125,-172.6759796142578,-307.3006591796875
1699734697,1.069376220703125,-4.633314971923828,-6.111042022705078,-1.7379871606826782,-0.1375181823968887,-1.683455467224121,33.93296813964844,-171.53927612304688,-307.262939453125
1699734697,0.3046165466308594,-4.79722412109375,-4.163891143798828,-2.2353057861328125,0.4485130906105041,-1.8607019186019893,34.580596923828125,-170.12490844726562,-307.3829345703125
1699734697,-0.0558338928222656,-5.463937683105469,-3.8639149475097656,-2.507266998291016,0.9449867606163024,-2.055981397628784,35.254364013671875,-168.4337921142578,-306.8554077148437
1699734697,1.4962884521484376,-6.237379302978516,-6.290668487548828,-2.485044479370117,0.8599056601524353,-2.141556978225708,35.665618896484375,-167.19448852539062,-307.15069580078125
1699734697,4.484225006103516,-8.254734191894531,-12.270433502197266,-2.030808687210083,-0.4982763826847076,-1.9900883436203003,35.375701904296875,-165.93765258789062,-307.5458068847656
1699734697,4.524042205810547,-8.614585876464844,-12.64705032348633,-1.3628638982772827,-0.8198953866958618,-1.5334415435791016,35.51991271972656,-165.09507751464844,-306.88677978515625
1699734697,2.6050328063964847,-8.290958862304688,-5.072501678466797,-1.2508190870285034,-0.2273575216531753,-0.2637003362178802,35.232940673828125,-164.9657440185547,-307.3186340332031
1699734697,6.4446981811523445,-10.665920104980469,-7.160210266113282,-1.545671463012695,-0.6793990135192871,0.9780781269073486,34.809478759765625,-164.6279754638672,-307.8710632324219
1699734697,7.383096771240234,-6.318959655761719,-9.413175201416015,-1.769749879837036,-1.948180675506592,1.268421292304993,34.21282958984375,-164.3590545654297,-308.3832397460937
1699734697,2.581531677246094,-2.364932098388672,-10.414143676757812,-1.86168110370636,-3.443349838256836,1.4035391807556152,32.421722412109375,-163.92694091796875,-309.55914306640625
1699734697,-0.9012757873535155,-1.884580993652344,-9.713301086425782,-2.278614521026612,-4.877787590026856,1.4925910234451294,30.01513671875,-163.48614501953125,-310.52294921875
1699734697,-0.3381468200683594,-2.317780151367188,-11.984977111816407,-2.801727533340454,-5.279318332672119,1.6287469863891602,28.16395568847656,-162.61253356933594,-311.36492919921875
1699734697,0.8396040344238281,-5.840404815673828,-9.567204895019533,-2.8334643840789795,-1.9193599224090576,1.8446009159088133,27.792938232421875,-161.66799926757812,-311.7854309082031
1699734697,2.379302215576172,-8.256680145263672,-7.244485015869141,-2.728642225265503,0.2043763101100921,1.7781524658203125,28.313034057617188,-161.044921875,-311.7721252441406
1699734697,2.0185523986816407,-5.3025732421875,-8.565188598632814,-2.506216526031494,0.8994789123535156,1.4230550527572632,28.744949340820312,-160.32919311523438,-311.10357666015625
1699734697,0.6545887756347657,-2.5557852172851563,-10.07674530029297,-2.12918758392334,0.4559733867645263,1.072218418121338,28.981216430664062,-159.9686279296875,-311.5805969238281
1699734697,0.0546363830566406,-1.8139279174804688,-9.056317291259765,-1.3943016529083252,-0.2392658442258834,1.0144792795181274,28.824981689453125,-159.969482421875,-311.3981018066406
1699734697,1.035696258544922,-2.0710931396484376,-7.554640045166016,-0.2747021317481994,-0.3393197357654571,1.256763577461243,28.608444213867188,-160.61473083496094,-311.7433776855469
1699734697,2.3366409301757813,-1.0579998779296875,-5.887556762695313,0.8543098568916321,0.0311344843357801,1.347684621810913,28.966033935546875,-161.44586181640625,-311.6927185058594
1699734697,2.435435485839844,-0.1637594604492187,-7.111711120605469,1.646716594696045,-0.1124969869852066,1.1066638231277466,28.755050659179688,-162.66146850585938,-312.0572204589844
1699734697,1.281185760498047,-0.9762698364257812,-10.240953826904295,2.019015312194824,-0.5893764495849609,0.9059695601463318,28.744369506835938,-164.08160400390625,-312.03582763671875
1699734697,0.5701643371582031,-2.875071258544922,-10.024503936767578,2.1086370944976807,-0.6067144274711609,0.848493754863739,28.424484252929688,-165.44436645507812,-311.910888671875
1699734697,0.3037184143066406,-3.3341665649414063,-8.602760467529297,1.894034504890442,-0.4184854030609131,0.753233015537262,28.66366577148437,-166.43394470214844,-312.6180419921875
1699734697,0.7300318908691407,-3.0527517700195315,-9.86643264770508,1.2502177953720093,-0.4920166134834289,0.5594550371170044,27.943878173828125,-166.86546325683594,-312.4185791015625
1699734697,2.160157928466797,-2.3231689453125,-11.668684844970704,0.4451825320720672,-0.5749149322509766,0.3791702091693878,27.564178466796875,-167.15972900390625,-312.5517272949219
1699734697,1.6444802856445313,-1.902693328857422,-10.49542465209961,0.1889238506555557,-0.4943642020225525,0.3255024552345276,27.436553955078125,-167.7518768310547,-312.73876953125
1699734697,0.5068460083007813,-1.5693365478515626,-7.93754379272461,0.5193214416503906,-0.5516266822814941,0.2816945314407348,27.2601318359375,-168.0356903076172,-313.2726135253906
1699734697,0.5557942199707031,-1.1608360290527344,-8.140821075439453,0.9268066883087158,-0.9788589477539062,0.2771767377853393,26.691452026367188,-168.85618591308594,-313.09716796875
1699734697,0.6030958557128907,-0.6090834045410156,-9.596843261718751,1.3015179634094238,-1.5345884561538696,0.365742027759552,26.1165771484375,-169.6699981689453,-313.5312194824219
1699734697,0.3511697387695313,-0.3773652648925781,-10.175240478515626,1.5930390357971191,-1.9666485786437988,0.5080171227455139,24.84605407714844,-170.7171173095703,-313.5450744628906
1699734697,-0.0931063842773437,-0.7622149658203126,-10.729088745117188,1.661351203918457,-1.9607774019241333,0.7139330506324768,24.14080810546875,-172.02976989746094,-314.17999267578125
1699734697,-0.1190025329589843,-1.29091552734375,-10.519973602294922,1.4458119869232178,-1.6362462043762207,0.797764003276825,22.837448120117188,-172.93304443359375,-313.64703369140625
1699734697,-0.0040415954589843,-1.4820680236816406,-10.132579193115236,1.148281812667847,-1.183374524116516,0.8257913589477539,22.910202026367188,-173.2050323486328,-313.92889404296875
1699734697,-0.6468049621582032,-1.988315277099609,-9.602830810546877,0.810008704662323,-0.7347288727760315,0.8336631655693054,22.450439453125,-174.13577270507812,-314.0278015136719
1699734697,-0.9804611206054688,-2.148631896972657,-9.646390228271486,0.5629001259803772,-0.3802930116653442,0.8433583974838257,22.35321044921875,-174.50135803222656,-314.11358642578125
1699734697,-0.8921447753906251,-2.4312442016601565,-9.39236846923828,0.4509607851505279,-0.2337168902158737,0.8829262852668762,22.21844482421875,-175.05361938476562,-314.255615234375
1699734697,-0.5736071777343751,-2.225272521972657,-8.93387191772461,0.439751535654068,-0.2016825228929519,0.9237493872642516,21.58358764648437,-175.73233032226562,-314.5521240234375
1699734697,-0.5848338317871095,-2.120340728759765,-8.836574249267578,0.5583708882331848,-0.4689951837062835,0.8101514577865601,21.363113403320312,-176.11627197265625,-314.59771728515625
1699734697,-1.1217672729492187,-2.384990386962891,-8.719068603515625,0.6092588305473328,-0.7230349183082581,0.7157567739486694,21.060806274414062,-176.1683807373047,-314.3109130859375
1699734697,-1.0505154418945313,-2.6063800048828125,-7.970475311279297,0.5066823959350586,-0.9185929894447328,0.7008950114250183,20.61509704589844,-176.71328735351562,-314.540283203125
1699734697,-1.6471746826171876,-1.8636245727539065,-7.506140899658203,0.5225225687026978,-1.0067172050476074,0.7043434977531433,20.130203247070312,-176.9849395751953,-314.5090637207031
1699734697,-3.3251852416992187,-0.9449848937988282,-7.020550689697266,0.6654523015022278,-0.8837217688560486,0.7838476896286011,19.652664184570312,-177.57814025878906,-314.695556640625
1699734697,-4.843627624511719,-0.0896635437011718,-6.036646728515625,0.8613017201423645,-0.7231555581092834,1.0992565155029297,19.360122680664062,-177.90284729003906,-314.5972900390625
1699734697,-6.173162841796875,1.137484588623047,-4.439168701171875,0.863581657409668,-0.4050313830375671,1.5615758895874023,19.143356323242188,-178.7530975341797,-314.8455810546875
1699734697,-7.114405517578126,1.66693359375,-3.429817657470703,0.6162919402122498,-0.9537560343742372,1.9091988801956177,17.911956787109375,-178.91114807128906,-314.9303283691406
1699734697,-6.525530090332032,2.055974578857422,-2.8394453430175783,0.2844759225845337,-2.4044156074523926,2.548471212387085,16.699295043945312,-179.09902954101562,-314.85662841796875
1699734697,-7.410938873291016,2.1848565673828126,-3.083587646484375,0.017189372330904,-4.111217975616455,3.0582783222198486,14.049179077148438,-179.00332641601562,-315.7744140625
1699734697,-0.9045689392089844,3.679648132324219,-2.218536529541016,0.049847450107336,-5.121343612670898,2.629152774810791,10.995040893554688,-179.09559631347656,-315.53814697265625
1699734697,3.610491943359375,5.737269287109375,0.8753796386718751,0.3177215158939361,-5.672150611877441,2.081022024154663,8.083404541015625,-179.3427276611328,-315.6787109375
1699734697,0.5553451538085937,8.84675308227539,1.2582833862304688,0.4752424359321594,-6.289018154144287,1.5878962278366089,4.817306518554688,-179.5343475341797,-315.56414794921875
1699734697,-2.036515045166016,7.107819213867188,-1.7131874084472658,0.4870402216911316,-6.728018760681152,2.188004732131958,1.487640380859375,-179.15878295898438,-315.025390625
1699734697,-3.1569351196289066,2.0874092102050783,-3.269051971435547,0.3735216557979584,-6.6364593505859375,3.404305934906006,-1.6570892333984375,-178.8137664794922,-314.45098876953125
1699734697,-3.9637573242187503,2.7925927734375,-3.280877380371094,0.1534739732742309,-6.052196502685547,4.352524280548096,-5.513595581054688,-177.72930908203125,-313.42608642578125
1699734697,-4.108057250976563,6.228996734619141,-3.756139068603516,-0.0302684232592582,-5.644028186798096,4.877739429473877,-8.052017211914062,-176.9358367919922,-313.1768798828125
1699734697,-5.4301080322265625,7.682174835205078,-4.407434692382813,-0.1017311513423919,-5.407220363616943,5.215185165405273,-11.14422607421875,-175.47572326660156,-311.980224609375
1699734697,-5.994883575439453,7.500752105712891,-4.952151947021485,-0.0925277993083,-5.331336498260498,5.496798992156982,-13.371170043945312,-174.11058044433594,-310.9722900390625
1699734697,-6.108048248291016,7.761509857177734,-5.810167694091797,0.005388906225562,-5.598723411560059,5.715359687805176,-16.028182983398438,-172.11517333984375,-309.9119567871094
1699734697,-6.741231536865235,7.213349761962891,-6.489604797363282,0.2951562702655792,-5.991542816162109,6.152010917663574,-18.557052612304688,-170.60836791992188,-308.232177734375
1699734697,-9.295370178222656,6.066883850097657,-6.938970336914063,0.6032829284667969,-6.160778045654297,6.603065013885498,-20.925796508789062,-168.775634765625,-306.84765625
1699734697,-11.724967803955078,6.613247680664063,-7.917485504150391,0.8756210207939148,-5.805524349212647,6.792511463165283,-23.055892944335938,-166.96896362304688,-305.0123596191406
1699734697,-13.228740692138672,7.146588592529297,-8.44723388671875,1.1233916282653809,-5.148255825042725,6.833242893218994,-24.196563720703125,-165.0748748779297,-304.2186279296875
1699734697,-14.805861053466796,6.497687988281251,-8.680299224853517,1.3042259216308594,-4.281163215637207,6.877456665039063,-24.91059875488281,-163.37722778320312,-302.7274169921875
1699734697,-15.8598193359375,5.563929748535156,-8.746311950683594,1.3648079633712769,-3.269746780395508,6.765466690063477,-25.547515869140625,-161.48080444335938,-301.8563232421875
1699734697,-16.451838226318362,4.87865478515625,-8.576714630126954,1.2858213186264038,-2.253629446029663,6.49629545211792,-25.26397705078125,-159.82554626464844,-301.5059814453125
1699734697,-17.832566986083986,4.450095977783203,-8.5454296875,0.9848292469978333,-1.2627817392349243,6.219084739685059,-24.94966125488281,-158.15248107910156,-301.2674560546875
1699734697,-18.2451091003418,4.312831420898438,-8.94345199584961,0.526304304599762,-0.4348052442073822,5.942705631256104,-24.276687622070312,-156.6558837890625,-301.9565124511719
1699734697,-18.094073181152343,4.047133941650391,-8.800948333740235,0.0245881676673889,0.1628440469503402,5.617772102355957,-23.51132202148437,-154.75949096679688,-301.589111328125
1699734697,-18.15364929199219,3.462000732421876,-8.795709228515625,-0.3993963897228241,0.3628162741661072,5.200722217559815,-22.2705078125,-152.93995666503906,-302.2546691894531
1699734697,-17.54202117919922,3.435056762695313,-9.032965850830076,-0.6171106100082397,0.1961636543273925,4.773372173309326,-21.922088623046875,-151.7084197998047,-302.1114196777344
1699734697,-17.226776733398438,3.645070037841797,-8.897647247314453,-0.5228573679924011,-0.0974242910742759,4.343581676483154,-21.186538696289062,-150.36843872070312,-302.4555053710937
1699734697,-17.07080108642578,3.7717066955566407,-8.419541473388673,-0.1195245310664177,-0.3952762186527252,3.880914688110352,-20.624099731445312,-149.41409301757812,-302.97760009765625
1699734697,-17.511484680175784,3.7145256042480472,-8.421786804199218,0.4303337931632995,-0.5824754238128662,3.381061792373657,-19.925308227539062,-148.7550506591797,-303.16534423828125
1699734697,-18.44614105224609,3.141068115234375,-8.58659408569336,1.0134392976760864,-0.3988528549671173,2.770418882369995,-19.50897216796875,-148.37374877929688,-302.82244873046875
1699734697,-18.903739471435543,2.6385630798339843,-8.264164581298829,1.5220601558685305,0.0561977587640285,2.125054121017456,-19.009933471679688,-148.12503051757812,-303.5272521972656
1699734697,-19.299366760253907,2.858156433105469,-8.64362548828125,1.8931940793991089,0.7154936194419861,1.5942825078964231,-18.42176818847656,-148.56597900390625,-303.9110412597656
1699734697,-19.14009796142578,3.623065795898438,-8.402776336669922,2.1818647384643555,1.3545039892196655,1.2391986846923828,-17.246505737304688,-148.8849334716797,-304.3573608398437
1699734697,-18.143919525146487,4.513414306640625,-7.939789123535155,2.469565153121948,1.458707332611084,1.1239469051361084,-16.693588256835938,-149.531494140625,-305.5857238769531
1699734697,-17.715660095214844,5.052892456054688,-6.93163558959961,2.586143970489502,1.3712059259414673,1.1246150732040403,-15.474319458007812,-149.7689208984375,-306.15509033203125
1699734697,-17.10612762451172,4.437821502685547,-4.731361083984376,0.0922849252820015,2.483781099319458,0.9338696599006652,-13.91644287109375,-149.13320922851562,-307.143798828125
1699734697,-17.65892807006836,2.202519836425781,-0.6448590087890625,-3.948165416717529,3.6576220989227295,0.8638759255409241,-12.207992553710938,-147.0471649169922,-307.37274169921875
1699734697,-19.160006561279296,-3.005450134277344,-0.4629872131347656,-3.633081197738648,4.466878890991211,1.2435460090637207,-10.262298583984377,-145.5043487548828,-307.0997314453125
1699734697,-18.63429977416992,-2.998414764404297,5.724994812011719,-1.8579535484313965,4.0932722091674805,1.010249376296997,-9.058807373046877,-144.54571533203125,-307.7763061523437
1699734697,-13.439951477050782,6.397097167968751,5.64790512084961,-0.7955663800239563,2.7831122875213623,0.4969099164009094,-7.836257934570312,-144.37484741210938,-307.9345092773437
1699734697,-11.148965606689451,7.694898376464844,5.7624169921875,0.1897217333316803,1.4292054176330566,0.3265427052974701,-7.7683563232421875,-144.3441619873047,-308.8267822265625
1699734698,-9.978699188232422,6.882687377929688,5.821993103027344,1.1391980648040771,0.0032314795535057,0.1639465987682342,-7.610198974609375,-144.70675659179688,-308.1745300292969
1699734698,-9.082213439941407,6.587201843261719,3.847449188232422,1.3102984428405762,-0.8269197940826416,0.1829208135604858,-8.109664916992188,-145.28517150878906,-308.6151733398437
1699734698,-9.16244659423828,6.102060699462891,1.6732205200195314,1.4655511379241943,-1.2503522634506226,0.2897077202796936,-8.63671875,-145.97364807128906,-309.0083923339844
1699734698,-9.085057525634763,7.493866424560547,-0.6807843017578126,2.064812660217285,-1.8106157779693604,0.0816882029175758,-9.789382934570312,-146.62767028808594,-308.92779541015625
1699734698,-8.64078140258789,7.784412231445313,-3.108286285400391,2.6710147857666016,-2.4862492084503174,-0.2005160599946975,-11.435394287109377,-147.7757568359375,-308.70294189453125
1699734698,-8.124505004882813,5.4161869812011725,-4.91697509765625,2.726969718933105,-2.742570161819458,-0.2864544093608856,-12.3924560546875,-149.31239318847656,-308.4759216308594
1699734698,-9.89532257080078,3.6579432678222656,-5.8677978515625,2.774468183517456,-2.2443766593933105,-0.3045172989368438,-13.553787231445312,-149.78652954101562,-308.75714111328125
1699734698,-10.514884185791017,3.193908233642578,-5.810467071533203,2.351403951644897,-1.362762451171875,-0.4297226071357727,-14.034652709960938,-151.12513732910156,-308.789794921875
1699734698,-8.80738494873047,1.9538868713378907,-5.029990081787109,2.0940585136413574,-0.96653014421463,-0.7648758292198181,-14.906356811523438,-152.27452087402344,-308.94781494140625
1699734698,-6.710245971679688,1.2078382873535156,-4.549040222167969,2.1177611351013184,-1.158126950263977,-1.3622550964355469,-15.139541625976562,-152.91741943359375,-308.5213928222656
1699734698,-5.171894989013672,0.8255332946777344,-4.076323242187501,1.9125301837921145,-1.5430426597595217,-1.824594259262085,-16.344802856445312,-154.2890167236328,-307.997314453125
1699734698,-3.553310852050781,-1.9371217346191407,-2.492167510986328,1.1619023084640503,-1.960301160812378,-1.993924617767334,-17.735824584960938,-155.39691162109375,-307.20904541015625
1699734698,-2.602787475585937,-2.763253784179688,-1.2600796508789065,0.8875421285629272,-2.6238584518432617,-2.287281513214112,-18.899887084960938,-156.40399169921875,-306.79791259765625
1699734698,-2.375709686279297,-1.3427078247070314,-0.238304443359375,0.8820556998252869,-3.402851819992065,-2.469522476196289,-21.018280029296875,-157.4039306640625,-305.5091857910156
1699734698,-2.022144927978516,-0.3150947570800781,0.2493814086914062,0.7968246936798096,-3.854334592819214,-2.275648832321167,-22.4000244140625,-158.1994171142578,-304.421875
1699734698,-3.7937109375,0.0607736206054687,0.6987469482421875,0.6648584008216858,-3.797160625457764,-2.5684244632720947,-24.420669555664062,-159.6175537109375,-303.1752624511719
1699734698,-5.5708154296875,-0.2628533935546875,0.7893086242675782,0.3007870018482208,-3.644646167755127,-2.8085665702819824,-25.633071899414062,-160.70883178710938,-301.482421875
1699734698,-7.477101287841797,-1.5560142517089846,-0.2104623413085937,-0.1745598167181015,-3.3408148288726807,-2.9981002807617188,-27.24642944335937,-161.1754150390625,-300.4286499023437
1699734698,-9.703571319580078,-3.349285125732422,-1.0135423278808595,-0.6775747537612915,-2.8450417518615723,-3.707270622253418,-28.297134399414062,-162.38209533691406,-298.93280029296875
1699734698,-11.814481658935549,-7.362439727783204,-0.8836125183105469,-0.9335039854049684,-2.60463547706604,-4.4435715675354,-28.961578369140625,-163.772705078125,-297.6784362792969
1699734698,-14.095737762451172,-8.161627807617188,-2.0854632568359377,-0.8208062052726746,-2.612544775009156,-4.718456745147705,-30.341293334960938,-164.98025512695312,-296.8377380371094
1699734698,-14.412329406738282,-6.8003585815429695,-4.728367309570313,-0.7449974417686462,-2.604710340499878,-3.618161678314209,-31.15283203125,-166.2320556640625,-295.0541381835937
1699734698,-12.127630462646485,-6.829098815917969,-4.265230407714844,-0.5376099348068237,-1.7700223922729492,-2.199465036392212,-31.725311279296875,-166.38613891601562,-293.9388427734375
1699734698,-10.455308074951173,-3.401676177978516,-5.962999877929688,-0.0638937577605247,-0.975655436515808,-1.6095887422561646,-32.31483459472656,-167.19937133789062,-293.1283264160156
1699734698,-6.220464477539063,1.9812799072265623,-5.935606842041016,1.0455024242401123,-0.6040228009223938,-1.6353329420089722,-32.05369567871094,-167.86795043945312,-292.69500732421875
1699734698,-3.8339772033691406,3.560795288085937,-4.66310302734375,1.7271260023117063,-0.5291969776153564,-1.1677212715148926,-32.28263854980469,-168.33975219726562,-292.42291259765625
1699734698,-3.647465057373047,5.911806335449219,-2.428849182128906,1.3888007402420044,0.3099453449249267,-0.3649673163890838,-32.253570556640625,-168.7732696533203,-292.3939208984375
1699734698,-5.021757202148438,8.868607635498048,2.8461813354492187,0.9386838674545288,0.8274585008621216,0.6120375394821167,-31.82635498046875,-168.5712890625,-292.5087280273437
1699734698,-6.773713989257812,6.90289535522461,3.3495845031738285,0.6096915602684021,0.4384916126728058,1.2389557361602783,-31.71435546875,-167.83035278320312,-292.656005859375
1699734698,-5.3685859680175785,5.411696319580078,1.2436138916015629,0.2026327401399612,-0.5967113375663757,1.6855984926223757,-31.94073486328125,-166.70066833496094,-291.8021850585937
1699734698,-5.053341522216797,6.862479400634766,-1.069376220703125,0.0994299203157424,-0.7692106366157532,2.017838954925537,-31.81671142578125,-166.01498413085938,-292.265869140625
1699734698,-6.693181457519532,8.542735290527345,2.096689910888672,-0.0753677263855934,0.6086785197257996,2.827735662460327,-31.70977783203125,-164.7537078857422,-292.28131103515625
1699734698,-7.611521759033203,7.486082611083985,3.916006622314453,-1.071466088294983,0.9711464643478394,4.049322128295898,-31.790573120117188,-162.72474670410156,-293.0262451171875
1699734698,-5.745502166748048,5.417384490966797,-5.406157836914063,-1.623318076133728,0.4817146956920624,4.5300140380859375,-31.045730590820312,-160.6014404296875,-293.158203125
1699734698,-5.969885559082032,8.5789599609375,-0.0624201965332031,-1.2841049432754517,1.6216565370559692,4.637708187103272,-30.2913818359375,-158.5572052001953,-293.84356689453125
1699734698,-10.347681884765626,6.9076853942871095,1.1966116333007812,-1.024510622024536,1.8670381307601929,5.011307239532471,-29.48237609863281,-156.41375732421875,-294.69775390625
1699734698,-14.327755279541016,5.386997680664063,-4.4264451599121095,-0.9612520337104796,1.2997338771820068,4.932597160339356,-28.561080932617188,-154.16184997558594,-294.911865234375
1699734698,-17.548607482910157,6.368057556152344,-7.123087463378907,-1.245447039604187,-0.520849883556366,3.77881121635437,-28.439498901367188,-152.73878479003906,-294.59991455078125
1699734698,-17.839752044677734,7.276668090820313,-9.884395294189453,-1.628840446472168,-1.6061832904815674,2.0542774200439453,-28.94366455078125,-151.2872772216797,-293.4505615234375
1699734698,-17.788408813476565,4.765789489746094,-8.972790985107423,-1.9495481252670288,-0.9391240477561952,0.8207089900970459,-28.90728759765625,-150.5940399169922,-292.8690185546875
1699734698,-21.63002014160156,2.02858154296875,-6.62986312866211,-2.2358946800231934,0.0395407527685165,0.2927809953689575,-29.118865966796875,-149.39691162109375,-293.228515625
1699734698,-23.36775650024414,2.320175170898437,-6.250402221679688,-2.315746545791626,0.6610043048858643,0.1520928591489792,-28.94525146484375,-148.62315368652344,-293.134521484375
1699734698,-22.95237030029297,3.626658325195313,-6.072572021484375,-2.284785985946656,0.9282346963882446,0.3909733593463897,-28.466140747070312,-147.79380798339844,-292.65087890625
1699734698,-22.92856979370117,3.662583618164063,-7.150929565429688,-2.4383621215820312,0.0627134516835212,1.1729533672332764,-28.391128540039062,-146.23072814941406,-292.17108154296875
1699734698,-22.566173400878903,0.4276606750488281,-8.192164306640626,-2.6875360012054443,-1.975790977478028,2.3288803100585938,-28.899490356445312,-144.4122314453125,-290.5390930175781
1699734698,-19.495758361816407,-1.9450552368164065,-8.114326171875,-2.900144338607788,-4.568454742431641,3.243398427963257,-29.311264038085938,-142.63525390625,-287.5160217285156
1699734698,-14.51666244506836,-1.3642630004882814,-6.753805389404297,-3.013683319091797,-7.614191055297852,3.8300604820251465,-30.21275329589844,-140.27716064453125,-283.2081298828125
1699734698,-10.212213592529295,-0.6053411865234375,-5.848488006591797,-3.042375564575196,-10.672704696655272,4.233506202697754,-31.234649658203125,-137.9781951904297,-277.75616455078125
1699734698,-5.707481231689453,0.0971479797363281,-4.58646240234375,-2.7244350910186768,-13.12179183959961,4.417372703552246,-31.6788330078125,-135.82583618164062,-271.46124267578125
1699734698,0.5529501342773437,2.228565673828125,0.9331594848632812,-1.4526851177215576,-12.563525199890137,3.893003463745117,-31.232437133789062,-134.1818084716797,-266.22686767578125
1699734698,13.845158843994142,10.33495834350586,23.393952026367188,2.2870473861694336,-5.316488742828369,-0.1128565073013305,-31.36314392089844,-134.10317993164062,-265.0640563964844
1699734698,29.17238571166992,18.979781341552734,37.2855143737793,4.307655811309815,-2.3587992191314697,-4.111214637756348,-32.89579772949219,-135.82896423339844,-265.03173828125
1699734698,15.420333251953126,10.990744628906253,10.683433685302736,4.818004608154297,-2.370413303375244,-4.9825944900512695,-34.534881591796875,-137.7912139892578,-265.3350524902344
1699734698,-0.9862989807128908,4.150269470214844,2.901266784667969,4.873374938964844,-2.3364081382751465,-3.88837194442749,-35.07307434082031,-138.90147399902344,-265.9722595214844
1699734698,-4.224664764404297,1.4380595397949218,1.92364974975586,5.040345668792725,-2.590875625610352,-3.454117774963379,-35.85186767578125,-140.2263946533203,-265.72802734375
1699734698,-0.8330177307128906,1.2079879760742187,0.6839277648925781,4.853271961212158,-1.887887477874756,-2.2404301166534424,-36.38380432128906,-140.97898864746094,-265.9141845703125
1699734698,-7.4429722595214844,0.9044192504882812,0.0601748657226562,4.314977645874023,0.4191011190414428,-0.8604388236999512,-36.547210693359375,-141.62928771972656,-267.3841247558594
1699734698,-8.010891265869141,2.467768249511719,-1.0961705017089844,2.9386978149414062,4.2352166175842285,1.3930691480636597,-36.08851623535156,-140.8685760498047,-270.2797241210937
1699734698,-9.998757476806642,2.433489532470704,-2.689157867431641,2.293181896209717,5.592289447784424,2.7227554321289062,-35.05772399902344,-139.86190795898438,-273.33563232421875
1699734698,-1.7588424682617188,2.240840148925781,-1.9784358215332032,2.161668062210083,5.168512344360352,3.0074641704559326,-33.56304931640625,-138.4431610107422,-276.3436889648437
1699734698,1.0120454406738282,2.276615753173828,-3.114872589111328,1.987260103225708,3.934333562850952,2.8712666034698486,-32.71044921875,-137.48703002929688,-278.4864501953125
1699734698,1.2386741638183594,3.4398468017578128,-5.672603759765625,1.1127368211746216,1.8734354972839355,2.2861151695251465,-31.595504760742188,-136.6720428466797,-279.3171691894531
1699734698,0.4584965515136719,10.880873107910157,-10.067165222167969,-2.3942251205444336,0.346609890460968,1.3535643815994265,-31.593231201171875,-135.88246154785156,-278.66259765625
1699734698,-2.753673706054688,18.524278564453127,-12.967234497070312,-5.025195121765137,-1.396087408065796,0.2760710120201111,-31.941619873046875,-134.7847137451172,-276.00244140625
1699734698,-0.2276765441894531,15.748750305175784,-6.890770568847657,-6.1209211349487305,-3.733430862426758,-1.0459681749343872,-32.75279235839844,-134.90879821777344,-273.624755859375
1699734698,0.3610491943359375,13.912069702148438,-3.4146990966796875,-6.135200023651123,-5.200255870819092,-2.299346923828125,-33.934051513671875,-135.56297302246094,-269.2357788085937
1699734698,-3.4362542724609377,12.153825988769531,-1.038240966796875,-5.707575798034668,-6.13529109954834,-2.372911214828491,-35.41343688964844,-136.17666625976562,-265.02593994140625
1699734698,-16.728762359619143,7.955057373046875,0.5638774108886719,-5.234470367431641,-6.807436466217041,-0.2572807967662811,-35.31687927246094,-135.86830139160156,-260.58544921875
1699734698,-27.753636016845704,6.557713165283204,2.473456420898437,-4.624587535858154,-6.946268081665039,1.7479431629180908,-34.4918212890625,-135.52943420410156,-256.50164794921875
1699734698,-23.118973846435544,8.241561584472656,11.514655151367188,-4.65924882888794,-3.2731645107269287,1.5151642560958862,-34.02745056152344,-134.89114379882812,-253.5044860839844
1699734698,-12.976066131591798,11.907438354492188,23.57762008666992,-3.503379821777344,0.2153770327568054,0.2944628000259399,-34.004425048828125,-135.2021942138672,-252.35983276367188
1699734698,-6.705006866455078,11.001522216796875,22.61003219604492,-1.6609805822372437,2.0344691276550293,-0.8982291221618652,-34.942352294921875,-135.99227905273438,-253.06329345703125
1699734698,-5.160518646240234,6.798861694335938,15.693365478515624,-0.423084408044815,2.510101556777954,-1.327633500099182,-35.651885986328125,-136.37583923339844,-253.4394989013672
1699734698,-6.548133087158203,2.2409898376464845,7.6640625,-0.3362842798233032,2.226285934448242,-1.3925045728683472,-36.57624816894531,-136.87344360351562,-254.32443237304688
1699734698,-5.370681610107422,0.410745849609375,1.317410430908203,-0.9892442226409912,1.286116123199463,-1.431889295578003,-37.09333801269531,-137.52008056640625,-253.61526489257807
1699734698,-3.23612045288086,3.2394136047363284,-0.9066645812988282,-1.464607000350952,-0.3853897750377655,-1.5080437660217283,-37.51530456542969,-138.48289489746094,-252.5967559814453
1699734698,-1.575773162841797,6.978787536621094,-0.5751040649414063,-1.612186312675476,-2.250664472579956,-1.615309476852417,-37.48814392089844,-139.4042205810547,-250.8969268798828
1699734698,0.3465293884277344,9.03446273803711,0.0387693786621093,-1.46453857421875,-3.612650871276856,-1.7905702590942385,-37.62507629394531,-140.36874389648438,-248.7802124023437
1699734698,1.539847869873047,10.830877075195312,2.029779052734375,-1.1114455461502075,-4.4268012046813965,-2.0278120040893555,-37.388092041015625,-141.22438049316406,-246.1768341064453
1699734698,4.672084350585938,11.403436431884764,4.441713409423828,-0.754866361618042,-4.29716157913208,-2.5895931720733643,-37.2486572265625,-142.41441345214844,-243.4078826904297
1699734698,3.0160780334472657,10.538235626220704,6.587950286865235,-1.2087979316711426,-2.2057154178619385,-2.5732944011688232,-37.36602783203125,-143.89166259765625,-241.8598175048828
1699734698,-0.4590953063964844,2.442919921875,4.155957641601563,-1.3469197750091553,-0.2680812478065491,-1.87442946434021,-37.871826171875,-145.3477783203125,-241.43946838378903
1699734698,-0.6951544189453125,4.737198944091797,6.287525024414063,-1.0442448854446411,1.2833677530288696,-1.370160698890686,-38.428619384765625,-145.55563354492188,-241.5789031982422
1699734698,1.5081138610839844,6.178551635742188,6.845714263916016,-0.9819176197052002,1.6735061407089231,-0.8416785001754761,-39.30294799804688,-146.1393585205078,-242.4226531982422
1699734698,0.1074765014648437,5.044659576416016,5.695805511474609,-0.9143279194831848,1.4935652017593384,-0.6641489863395691,-39.32374572753906,-146.44850158691406,-242.9515686035156
1699734698,-1.7726138305664063,4.5409570312500005,5.443580017089844,-0.6460226774215698,0.7566109895706177,-0.8727232217788696,-40.24908447265625,-147.0722198486328,-243.07107543945312
1699734698,-3.0190718078613283,5.028493194580078,5.7815771484375,-0.2847259938716888,0.1348736584186554,-1.1035135984420776,-40.41744995117188,-147.87457275390625,-242.91506958007807
1699734698,-4.725074157714844,4.504582672119141,6.132148132324219,0.0428465344011783,-0.0856363400816917,-1.1654421091079712,-40.73345947265625,-148.25192260742188,-242.6280517578125
1699734698,-5.907615051269532,3.145858154296876,6.56280258178711,0.3286564350128174,-0.1755893975496292,-1.1682573556900024,-40.9573974609375,-148.75729370117188,-242.6026763916016
1699734698,-6.132297821044922,1.77949951171875,6.491401062011719,0.4857283532619476,-0.1430325210094452,-1.076890230178833,-41.319580078125,-149.26779174804688,-243.00489807128903
1699734698,-6.540498962402344,1.1787986755371094,6.671027526855469,0.6001582741737366,-0.0980067253112793,-0.7711430788040161,-41.695831298828125,-149.3441619873047,-242.531005859375
1699734698,-7.324119415283204,0.2674937438964844,7.861801300048828,0.6958166360855103,0.2139442414045334,-0.4014603495597839,-41.8795166015625,-149.5730438232422,-242.6352996826172
1699734698,-7.246580657958985,-1.0958711242675785,8.968450012207033,0.818678081035614,0.4310563206672668,-0.1247571110725402,-42.02235412597656,-149.19332885742188,-242.91824340820312
1699734698,-7.068451080322266,-1.8232086181640623,8.892108764648437,0.9612413644790648,0.4814260303974151,0.0872307792305946,-42.02891540527344,-149.06005859375,-243.46275329589844
1699734698,-7.501350860595703,-2.3203248596191406,8.103099517822265,1.187566876411438,0.5044050812721252,0.2564578950405121,-42.398956298828125,-148.64776611328125,-243.6648864746093
1699734698,-7.774981842041016,-2.5667124938964845,7.217241668701172,1.4908682107925415,0.772282063961029,0.2910480797290802,-43.13548278808594,-148.2217559814453,-244.48126220703125
1699734698,-7.213798828125,-2.577939147949219,6.54558837890625,1.8469167947769165,1.299617052078247,0.1270231902599334,-43.20823669433594,-147.9523162841797,-245.8577575683593
1699734698,-6.344556427001954,-2.309696960449219,5.763614501953125,2.142384529113769,1.900186777114868,-0.1226867735385894,-43.64276123046875,-147.85423278808594,-247.2012481689453
1699734698,-6.2966560363769535,-1.7778529357910158,4.50308578491211,2.3144664764404297,2.25425672531128,-0.1691024750471115,-43.94332885742188,-147.68556213378906,-249.4814453125
1699734699,-6.700366516113282,-0.7084767150878907,3.3226405334472657,2.211233377456665,2.425225019454956,0.0855130329728126,-44.845611572265625,-147.319091796875,-250.43429565429688
1699734699,-6.61264892578125,0.931512908935547,2.25895248413086,1.53074848651886,2.1731863021850586,0.4257031083106994,-44.67427062988281,-146.87509155273438,-252.0058441162109
1699734699,-6.31132553100586,3.956422576904297,1.7706678771972657,-0.2752036154270172,1.0028774738311768,0.8102174997329712,-45.02633666992188,-146.64967346191406,-253.28237915039065
1699734699,-6.430178375244141,9.17771484375,5.219046936035157,-1.488448977470398,0.6957388520240784,1.0784822702407837,-45.01405334472656,-146.13648986816406,-253.34207153320312
1699734699,-6.8497558593750005,14.735806732177736,15.9029296875,-0.7838817238807678,2.939507484436035,0.8919134140014648,-45.84352111816406,-146.0714111328125,-255.05343627929688
1699734699,-8.804840240478516,17.537081451416018,16.10021942138672,0.9535773396492004,3.936464071273804,0.5276625156402588,-46.30584716796875,-145.6959228515625,-256.9773864746094
1699734699,-9.999056854248048,17.913249206542968,5.61437484741211,1.931451201438904,3.5263261795043945,0.2665264904499054,-46.633544921875,-145.15505981445312,-259.25933837890625
1699734699,-10.510992279052736,17.86729476928711,0.4882846069335937,1.277747631072998,2.2365591526031494,0.0498519800603389,-46.726165771484375,-145.18287658691406,-260.60260009765625
1699734699,-10.998079376220703,16.085100860595706,-2.179617462158203,0.2917772531509399,1.2491346597671509,0.0157557930797338,-47.03660583496094,-144.852294921875,-261.2384033203125
1699734699,-10.514435119628908,11.696676635742188,-1.094374237060547,0.0131845111027359,1.1799800395965576,0.2939605116844177,-46.96257019042969,-144.4654541015625,-261.99578857421875
1699734699,-8.588689727783203,7.784561920166016,1.2006532287597658,0.1684960722923278,1.613889455795288,0.6118050813674927,-46.84202575683594,-144.12692260742188,-262.6705322265625
1699734699,-6.424490203857422,5.435496826171876,2.732417907714844,0.4767929315567016,2.1833324432373047,0.8453466892242432,-46.92083740234375,-143.6630859375,-263.7088623046875
1699734699,-4.915328521728516,4.103865966796875,3.141217803955078,0.7444600462913513,2.546186685562134,0.9517951011657716,-46.82710266113281,-143.34864807128906,-265.1263427734375
1699734699,-4.007167053222656,3.5160383605957035,2.8165429687500003,0.8069657683372498,2.518907308578491,0.9204108119010924,-47.06245422363281,-142.88665771484375,-266.95733642578125
1699734699,-3.739523620605469,3.36066146850586,2.46926513671875,0.726326584815979,2.057046175003052,0.7999802827835083,-47.11224365234375,-142.47389221191406,-268.2379150390625
1699734699,-4.391417999267579,3.955524444580078,2.040556640625,0.7182068824768066,1.384443998336792,0.689720094203949,-46.688232421875,-141.8362579345703,-268.9815673828125
1699734699,-5.784570922851563,5.386698303222657,1.5688874816894531,0.8426057696342468,0.8201926350593567,0.6058946847915649,-46.92665100097656,-141.8121337890625,-269.6634216308594
1699734699,-7.160210266113282,6.974296875,1.218915252685547,1.0317347049713137,0.5965179800987244,0.5187704563140869,-46.72186279296875,-141.3457489013672,-270.18511962890625
1699734699,-8.418643341064454,8.415050811767578,1.2716056823730468,1.2122619152069092,0.6307705044746399,0.4163410365581512,-46.52290344238281,-141.2611846923828,-270.59521484375
1699734699,-9.49819839477539,9.359736328125,0.9515711975097656,1.2622767686843872,0.6173092722892761,0.2994495630264282,-46.73539733886719,-141.1163330078125,-271.54296875
1699734699,-10.371033325195311,9.971065063476564,0.26584716796875,1.109023928642273,0.5128982067108154,0.1604828834533691,-46.65303039550781,-141.1063232421875,-271.7637939453125
1699734699,-10.682385864257814,9.739496612548828,-0.0389190673828125,0.8938681483268738,0.4561193287372589,0.0677002146840095,-46.546173095703125,-140.98077392578125,-272.4452514648437
1699734699,-10.260563049316406,8.436905364990235,0.5306465148925782,0.7551872730255127,0.5876144766807556,0.0833255127072334,-46.453369140625,-140.7853546142578,-271.96600341796875
1699734699,-9.417366485595702,6.785689086914063,1.475182342529297,0.6934967041015625,0.8780159950256348,0.2140262722969055,-46.56828308105469,-140.466552734375,-273.032470703125
1699734699,-8.129594421386718,5.3563114929199225,1.99026123046875,0.6753706932067871,1.1802605390548706,0.3802520036697387,-46.520050048828125,-140.50909423828125,-273.7124938964844
1699734699,-6.658453674316407,4.68226318359375,1.960473175048828,0.6810474991798401,1.3041247129440308,0.5295333862304688,-46.23793029785156,-140.15194702148438,-274.1271667480469
1699734699,-5.182373199462891,5.0286428833007815,1.450034637451172,0.7391800880432129,1.2291021347045898,0.5917056798934937,-46.30766296386719,-140.0189666748047,-275.19781494140625
1699734699,-4.094734954833984,5.657934265136719,0.9678872680664063,0.8421306610107422,1.057026982307434,0.6058329343795776,-45.70738220214844,-139.81143188476562,-275.9935302734375
1699734699,-3.8755906677246097,6.037395172119141,0.6747967529296875,0.9058654308319092,0.9615079164505004,0.5978533029556274,-45.25785827636719,-139.14283752441406,-276.72686767578125
1699734699,-4.13859375,6.325545959472657,0.4728666687011719,0.9322302341461182,0.94711434841156,0.599686324596405,-45.125732421875,-139.27540588378906,-277.2781066894531
1699734699,-4.719835052490235,6.611301727294922,0.2116598510742187,0.9350752830505372,0.994625687599182,0.593022346496582,-45.23968505859375,-138.8268585205078,-277.707763671875
1699734699,-5.447172546386719,6.883585510253907,-0.0555345153808593,0.9373565316200256,1.0901497602462769,0.5775877237319946,-45.15135192871094,-138.7136993408203,-279.12744140625
1699734699,-6.286028137207032,7.060667266845703,-0.2480342102050781,0.9291606545448304,1.1561589241027832,0.560600221157074,-44.67962646484375,-138.67880249023438,-279.95867919921875
1699734699,-6.986122283935547,7.044800262451172,-0.5032534790039063,0.8793619275093079,1.2079672813415527,0.5340412855148315,-44.38619995117188,-138.3865966796875,-280.51824951171875
1699734699,-7.556585998535157,6.884483642578125,-0.7932005310058594,0.8001779317855835,1.1445236206054688,0.5349414348602295,-44.15541076660156,-138.32252502441406,-281.4820556640625
1699734699,-8.012537841796876,6.5819627380371095,-1.0222242736816407,0.7351903915405273,0.9686103463172911,0.5600699782371521,-43.578125,-138.26112365722656,-282.2672424316406
1699734699,-8.32269287109375,6.1469673156738285,-0.8403524780273438,0.6917853951454163,0.7641946077346802,0.6119241118431091,-43.56074523925781,-137.67201232910156,-282.441162109375
1699734699,-8.491092681884766,5.567073211669922,-0.2749781799316406,0.694340169429779,0.5803134441375732,0.6543360352516174,-43.278717041015625,-137.4566192626953,-283.1679077148437
1699734699,-8.441096649169923,5.087769927978516,0.4592449951171875,0.7206401824951172,0.4550399482250213,0.6617749929428101,-42.999359130859375,-136.94859313964844,-283.37158203125
1699734699,-8.240064697265625,4.89781494140625,0.9966275024414064,0.760704517364502,0.4156797528266907,0.5976431965827942,-42.90228271484375,-136.51516723632812,-283.72723388671875
1699734699,-8.003855895996095,4.860991516113281,1.2000544738769532,0.7985155582427979,0.4088021516799927,0.5167807936668396,-42.657562255859375,-136.36183166503906,-284.0652160644531
1699734699,-7.779472503662109,4.9097900390625,0.9319619750976564,0.8557125329971313,0.3761070668697357,0.4341293573379516,-42.48434448242188,-136.4170379638672,-284.19757080078125
1699734699,-7.481292572021485,4.951852569580079,0.5288502502441407,0.8955888152122498,0.3478876650333404,0.3726619780063629,-42.64222717285156,-136.24984741210938,-284.6443176269531
1699734699,-7.13476318359375,5.010829925537109,0.1998344421386718,0.9041383862495422,0.3256579935550689,0.3299739062786102,-42.22227478027344,-136.44723510742188,-284.8675537109375
1699734699,-6.611152038574219,4.933291168212891,-0.061072998046875,0.906247615814209,0.3496448099613189,0.2850594222545624,-42.16456604003906,-136.36126708984375,-285.2216186523437
1699734699,-6.105952606201172,4.833897857666016,-0.221539306640625,0.8753647804260254,0.4075941443443298,0.2371797859668731,-42.24656677246094,-136.51263427734375,-286.0936279296875
1699734699,-5.794151000976563,4.999902648925781,-0.2032772827148437,0.7833837270736694,0.5521438717842102,0.1665309220552444,-42.44642639160156,-136.58633422851562,-286.2204895019531
1699734699,-5.642216949462891,5.300028533935548,-0.0232017517089843,0.6405376195907593,0.7520961165428162,0.0937358140945434,-41.96083068847656,-136.61587524414062,-286.5254821777344
1699734699,-5.737568664550782,5.570665740966797,0.0633183288574218,0.4604211449623108,0.9513239860534668,0.0512823611497879,-41.72482299804688,-136.6634063720703,-287.28302001953125
1699734699,-5.85148178100586,5.758824462890625,0.0220042419433593,0.2522357106208801,1.1168320178985596,0.0518778450787067,-41.28392028808594,-136.642333984375,-288.0749206542969
1699734699,-5.979914703369141,5.822591857910156,-0.2272274780273437,0.0625227689743042,1.1508283615112305,0.0721844509243965,-41.18409729003906,-136.75787353515625,-288.46661376953125
1699734699,-6.417155456542969,6.013444976806641,-0.5098397827148438,-0.0976988598704338,1.0690977573394775,0.1139835566282272,-40.52838134765625,-136.8840789794922,-289.0078430175781
1699734699,-6.915469207763672,6.2051962280273445,-0.6587800598144532,-0.2125186622142791,0.9825498461723328,0.1298650503158569,-40.35063171386719,-136.75816345214844,-289.6011962890625
1699734699,-7.427704010009766,6.262077941894532,-0.6285429382324219,-0.2825656533241272,0.9066864848136902,0.139404758810997,-40.06547546386719,-136.26319885253906,-290.2543334960937
1699734699,-8.005951538085938,6.254144439697266,-0.6468049621582032,-0.305672287940979,0.8141259551048279,0.1250636428594589,-39.966094970703125,-136.49899291992188,-290.51025390625
1699734699,-8.660540313720704,6.296057281494141,-0.771046600341797,-0.2651608288288116,0.7020766139030457,0.0649560987949371,-40.07041931152344,-136.23524475097656,-290.89129638671875
1699734699,-9.285191345214844,6.360423431396485,-0.9126521301269532,-0.1631929129362106,0.6054267883300781,-0.0313403457403183,-39.83723449707031,-136.1562957763672,-291.2951354980469
1699734699,-9.920470275878907,6.300847320556641,-0.9032217407226564,-0.0158556625247001,0.5629605650901794,-0.0867607295513153,-39.654205322265625,-136.46006774902344,-291.5281982421875
1699734699,-10.656340026855467,5.972130889892578,-0.6426136779785157,0.1329117119312286,0.6303592920303345,-0.1100367531180381,-39.140380859375,-136.4180145263672,-291.7186279296875
1699734699,-11.46211441040039,5.975274353027344,-0.0091310119628906,0.2567188739776611,0.7953309416770935,-0.0726877823472023,-39.45033264160156,-136.45497131347656,-291.80682373046875
1699734699,-12.125085754394531,6.198460235595704,0.528101806640625,0.3415687978267669,0.8841721415519714,-0.0635203868150711,-39.34217834472656,-136.6663055419922,-292.3687744140625
1699734699,-12.104129333496097,6.968758392333985,0.3597019958496094,0.3979622721672058,0.7482670545578003,-0.0580182969570159,-39.178619384765625,-136.6726837158203,-293.2162170410156
1699734699,-12.382999420166016,7.7951898193359375,-0.3490740966796875,0.4146901369094848,0.414529800415039,-0.0073524550534784,-39.286376953125,-136.55303955078125,-293.1423034667969
1699734699,-12.311448211669925,8.582552490234375,-1.1163784790039064,0.4105294644832611,-0.0385955944657325,0.0243135951459407,-39.10911560058594,-136.88539123535156,-293.15631103515625
1699734699,-11.569141845703124,9.32815200805664,-1.8396743774414064,0.3931685984134674,-0.6707842350006104,-0.0866339579224586,-39.40020751953125,-136.60415649414062,-293.28875732421875
1699734699,-10.740914154052737,9.966724090576172,-2.5803341674804687,0.349715381860733,-1.3644548654556274,-0.1649708449840545,-39.7947998046875,-136.53184509277344,-292.80889892578125
1699734699,-10.77474380493164,10.355765075683594,-2.957400054931641,0.2699593007564544,-1.9331645965576167,-0.1722261011600494,-40.62141418457031,-136.83360290527344,-291.1357727050781
1699734699,-10.796748046875,10.88207061767578,-2.56506591796875,0.1153529584407806,-2.205604314804077,-0.1924493461847305,-41.28952026367188,-136.6390380859375,-289.60791015625
1699734699,-10.886860656738282,11.718082122802734,-1.658700714111328,-0.1642914712429046,-2.184359073638916,-0.2562805116176605,-41.931671142578125,-136.3479766845703,-289.0404052734375
1699734699,-10.919193420410156,12.402159576416016,-0.7358697509765625,-0.5711657404899597,-2.005459785461426,-0.3409469425678253,-42.93638610839844,-136.47491455078125,-287.3541259765625
1699734699,-10.647358703613282,11.940669250488282,-0.1703457641601562,-1.0645517110824585,-1.871371865272522,-0.3697037398815155,-43.80491638183594,-135.8868865966797,-286.27569580078125
1699734699,-10.000404052734376,10.339149627685549,0.0848735046386718,-1.577588438987732,-1.83433210849762,-0.3696328997611999,-44.14849853515625,-135.9642333984375,-284.2738952636719
1699734699,-9.023685150146486,9.236841888427737,0.5263055419921875,-2.0587708950042725,-1.859025478363037,-0.5114629864692688,-45.14990234375,-135.42897033691406,-282.2466735839844
1699734699,-7.871980133056641,8.931027832031251,1.5021263122558597,-2.514805793762207,-1.6885125637054443,-0.7199957370758057,-45.60685729980469,-135.24920654296875,-280.3643493652344
1699734699,-7.759713592529297,9.240584106445311,2.868185577392578,-2.941922187805176,-1.2911343574523926,-0.943982720375061,-46.56138610839844,-134.72186279296875,-278.426513671875
1699734699,-8.533304901123048,9.620793457031253,3.801045684814453,-3.342604398727417,-0.8601229786872864,-1.0821853876113892,-47.34584045410156,-134.49142456054688,-277.10260009765625
1699734699,-9.729168090820313,9.036408691406251,3.773952026367188,-3.7253804206848153,-0.6262484788894653,-1.10797119140625,-48.14262390136719,-134.5588836669922,-275.5194396972656
1699734699,-10.343340911865235,7.620054016113282,2.810555419921875,-4.010999202728272,-0.6784179210662842,-1.1021971702575684,-48.783294677734375,-134.81068420410156,-272.89654541015625
1699734699,-9.86643264770508,6.585255889892578,1.6480728149414063,-3.995039701461792,-0.7712671756744385,-1.208172082901001,-49.213897705078125,-134.6881561279297,-271.20758056640625
1699734699,-9.015901336669923,6.127058715820313,1.0719209289550782,-3.6641690731048575,-0.8260321617126465,-1.3656336069107056,-50.18852233886719,-134.99021911621094,-268.76519775390625
1699734699,-8.417146453857422,5.886808319091797,0.9488768005371094,-3.07458233833313,-0.5361135005950928,-1.5807445049285889,-50.96554565429688,-135.3719482421875,-266.9577331542969
1699734699,-8.334967346191407,6.226601715087891,1.3368699645996094,-2.3988699913024902,-0.068645104765892,-1.773196816444397,-51.71546936035156,-136.14791870117188,-265.47589111328125
1699734699,-8.571475524902343,6.360573120117188,0.779429168701172,-1.7494938373565674,0.2234882116317749,-1.8368772268295288,-52.56962585449219,-137.0660400390625,-265.16033935546875
1699734699,-8.67520980834961,6.117029571533204,-0.28740234375,-1.2290738821029663,0.2300212234258651,-1.7598940134048462,-53.08595275878906,-138.43736267089844,-264.15045166015625
1699734699,-8.47163314819336,5.811514892578125,-1.2193643188476564,-0.8364911675453186,-0.0761056840419769,-1.5548861026763916,-53.46226501464844,-139.06700134277344,-263.24542236328125
1699734699,-8.18902084350586,5.609584808349609,-1.840123443603516,-0.6048012375831604,-0.5684751868247986,-1.3199234008789062,-53.88458251953125,-139.830078125,-262.1478271484375
1699734699,-7.48967514038086,5.681585083007813,-1.8507513427734377,-0.5116190910339355,-1.1583826541900637,-1.160430669784546,-54.1322021484375,-140.57574462890625,-261.0283203125
1699734699,-6.727460174560547,5.730682983398438,-1.598076782226563,-0.5014825463294983,-1.7726894617080688,-1.0655632019042969,-54.76927185058594,-141.32919311523438,-258.655517578125
1699734699,-6.184988250732422,5.685027923583984,-1.2497511291503909,-0.5097444653511047,-2.439986228942871,-1.0181163549423218,-54.58680725097656,-141.59896850585938,-256.6694641113281
1699734699,-6.107150115966797,5.7965460205078125,-0.7313790893554688,-0.5622425675392151,-3.037541151046753,-0.9996814131736756,-54.539947509765625,-142.39877319335938,-253.84475708007807
1699734699,-6.017785949707031,5.737119598388672,0.9621990966796876,-0.5046716928482056,-3.4271748065948486,-1.119930386543274,-54.559814453125,-143.2949676513672,-251.266845703125
1699734699,-6.440357208251953,5.662275238037109,4.552333374023438,-0.3556622266769409,-3.2532315254211426,-1.2939136028289795,-54.12432861328125,-144.04737854003906,-248.00045776367188
1699734699,-7.334148559570313,5.7191569519042975,7.614365844726563,-0.3788684904575348,-2.6489803791046143,-1.56733238697052,-53.78581237792969,-144.8177490234375,-245.3309326171875
1699734699,-7.199728088378906,6.113586730957032,7.262747039794922,-0.5477432608604431,-2.0108866691589355,-1.800065994262695,-53.47259521484375,-145.6735382080078,-243.4038543701172
1699734699,-6.280489654541016,5.922284545898438,4.6201423645019535,-0.6565272808074951,-1.5850870609283447,-1.769892334938049,-53.52088928222656,-147.08120727539062,-241.5948486328125
1699734699,-5.635780334472656,4.719236297607422,1.811532897949219,-0.6729081273078918,-1.3834328651428225,-1.4686862230300903,-53.07136535644531,-148.0977325439453,-239.8907928466797
1699734699,-5.345982971191407,3.5356475830078127,-0.3079096984863281,-0.5489685535430908,-1.2629356384277344,-1.1155864000320437,-52.789825439453125,-148.90467834472656,-238.50428771972656
1699734699,-4.7734236145019535,2.689157867431641,-1.407073974609375,-0.3802700936794281,-1.2698743343353271,-0.8273860812187195,-52.50559997558594,-149.8028564453125,-236.7976226806641
1699734699,-3.8639149475097656,2.252066802978516,-1.8107844543457032,-0.2826333045959472,-1.4670507907867432,-0.619552493095398,-52.02424621582031,-150.33729553222656,-236.2333374023437
1699734699,-2.82851806640625,2.074535980224609,-1.5402969360351564,-0.2365869730710983,-1.811984658241272,-0.4851826727390289,-51.16996765136719,-150.44033813476562,-234.2143096923828
1699734700,-1.925745391845704,2.1260289001464843,-0.5285508728027344,-0.1502270549535751,-2.096223831176758,-0.4533680081367492,-50.67182922363281,-150.80824279785156,-233.21571350097656
1699734700,-0.913550262451172,2.4113356018066407,1.469344482421875,-0.0189736913889646,-1.969534397125244,-0.5207617282867432,-49.7513427734375,-151.10775756835938,-231.5680389404297
1699734700,-0.2139051818847656,2.783910827636719,3.7510496520996095,0.106825515627861,-1.4482499361038208,-0.5826615691184998,-49.15887451171875,-151.2992706298828,-230.1134185791016
1699734700,-0.1577719116210937,3.062032470703125,4.956043853759766,0.1462227255105972,-0.7661368250846863,-0.5641888380050659,-49.06861877441406,-151.38717651367188,-229.3555603027344
1699734700,-0.7746391296386719,3.115621032714844,4.937482452392579,0.1943955719470977,-0.2349517941474914,-0.4181775450706482,-49.1046142578125,-151.8094024658203,-229.1189422607422
1699734700,-2.218686218261719,2.457140350341797,4.474644927978516,0.3531053364276886,0.0402576737105846,-0.2054096162319183,-48.50746154785156,-151.6836700439453,-228.97413635253903
1699734700,-3.570525054931641,1.5429913330078129,4.091292114257813,0.6024507284164429,0.099050685763359,-0.0378730781376361,-48.98712158203125,-151.73492431640625,-229.4059295654297
1699734700,-4.285737762451172,0.8955876159667969,3.707490234375,0.8688133955001831,0.1019101217389106,0.1380031406879425,-48.91728210449219,-151.35986328125,-229.5981903076172
1699734700,-4.647086334228516,0.3239263916015625,3.61692855834961,1.075430989265442,0.2040561884641647,0.3736814558506012,-49.05345153808594,-150.77342224121094,-229.87017822265625
1699734700,-4.818629608154297,-0.2984793090820312,4.008963317871094,1.1764333248138428,0.4338494539260864,0.6028051972389221,-48.90049743652344,-149.8330535888672,-229.53794860839844
1699734700,-4.982538757324219,-0.789158935546875,4.46431640625,1.1447008848190308,0.7251984477043152,0.7448853254318237,-49.464447021484375,-149.08872985839844,-230.2678680419922
1699734700,-5.173840942382813,-1.00830322265625,4.460274810791016,1.104390025138855,0.9654257297515868,0.79485023021698,-49.61457824707031,-148.0229034423828,-231.0742645263672
1699734700,-5.423072662353516,-0.9445358276367188,3.996838531494141,1.0986703634262085,1.3976199626922607,0.7767359614372253,-50.33663940429688,-147.43995666503906,-232.5174255371093
1699734700,-5.512436828613281,-0.6146218872070313,3.276087341308594,1.2313990592956543,2.141288995742798,0.7420741319656372,-50.80723571777344,-146.7623291015625,-233.6537475585937
1699734700,-5.871091003417969,0.1522334289550781,2.256856842041016,1.4868372678756714,2.973904609680176,0.7894128561019897,-51.828643798828125,-145.7627716064453,-235.8923797607422
1699734700,-6.261628875732423,1.3748908996582032,1.596130828857422,1.647520661354065,3.600508213043213,0.9395797252655028,-52.861083984375,-144.64320373535156,-238.1010589599609
1699734700,-6.652316436767578,3.1651679992675783,1.2500505065917968,1.1721259355545044,3.1241555213928223,1.112761378288269,-53.55525207519531,-143.6643829345703,-240.84881591796875
1699734700,-7.33833984375,6.236181793212891,2.5786875915527343,-0.0218626875430345,1.5285828113555908,1.3680357933044434,-53.73556518554688,-142.59423828125,-241.78561401367188
1699734700,-9.205706634521484,12.061617736816409,10.911559295654298,-0.0159288998693227,1.827097058296204,1.3788087368011477,-54.41947937011719,-141.61508178710938,-243.08729553222656
1699734700,-11.226354675292969,14.418017578125,9.91627899169922,0.9175077080726624,2.4051156044006348,1.0302542448043823,-54.41448974609375,-140.56658935546875,-244.8106842041016
1699734700,-12.75677215576172,13.749507751464844,0.6848258972167969,1.7553927898406982,2.4380745887756348,0.5429708957672119,-54.80000305175781,-140.0205841064453,-246.38856506347656
1699734700,-14.955250396728516,14.555282135009769,-1.3706996154785156,1.450551152229309,1.850881814956665,-0.062640480697155,-55.38374328613281,-139.4612274169922,-248.13235473632807
1699734700,-17.630337524414063,14.584920501708986,-2.271825714111328,0.1416293084621429,0.7796574234962463,-0.4537720084190368,-55.31288146972656,-139.90274047851562,-248.22506713867188
1699734700,-18.97484161376953,11.153306579589843,-2.008074188232422,-0.3929153382778168,0.487235426902771,-0.0766343250870704,-55.38916015625,-139.80392456054688,-249.12503051757807
1699734700,-16.909736022949218,6.422993316650391,1.819316711425781,-0.1090242192149162,1.1449179649353027,0.514947235584259,-55.234893798828125,-139.48297119140625,-249.59524536132807
1699734700,-12.211456146240234,3.570674743652344,6.1769050598144535,0.4319455623626709,1.6866374015808103,0.7778028249740601,-54.941192626953125,-139.0072784423828,-250.25994873046875
1699734700,-7.585475921630859,3.1367271423339846,4.942571868896485,0.8463326096534729,1.4446961879730225,0.7606789469718933,-55.28512573242188,-138.15284729003906,-251.1808319091797
1699734700,-5.010530548095703,3.598067779541016,2.660717010498047,1.1283941268920898,0.7459090948104858,0.6833341121673584,-55.0740966796875,-137.7804718017578,-252.0116424560547
1699734700,-3.9038818359375,4.034859466552734,1.5245796203613282,1.3366293907165527,0.0189776849001646,0.6600226759910583,-54.91355895996094,-137.0276641845703,-251.8429107666016
1699734700,-3.622766418457032,4.545896759033203,0.968635711669922,1.4948714971542358,-0.4325074851512909,0.6943715810775757,-54.20414733886719,-136.48406982421875,-252.48214721679688
1699734700,-3.9998323059082033,5.326224060058594,0.6903643798828125,1.5931154489517212,-0.5706733465194702,0.7726882100105286,-54.02464294433594,-135.42601013183594,-252.0887908935547
1699734700,-4.924010467529297,6.409072265625,0.3499722290039063,1.6164910793304443,-0.4316273033618927,0.8786655068397522,-53.77734375,-135.1053009033203,-252.1601409912109
1699734700,-6.123615875244141,7.667655029296875,0.10777587890625,1.554861068725586,-0.067899689078331,0.9712990522384644,-53.746429443359375,-134.40383911132812,-252.3235626220703
1699734700,-7.281009063720703,8.867110748291015,-0.2041754150390625,1.407931208610535,0.3566566705703735,0.996369242668152,-53.24873352050781,-133.43394470214844,-252.6059112548828
1699734700,-8.136779479980468,9.847721557617188,-0.604742431640625,1.1857529878616333,0.6685255765914917,0.8914098143577576,-52.89933776855469,-132.42201232910156,-252.9791717529297
1699734700,-8.82175506591797,10.33735336303711,-0.8002359008789063,0.923146426677704,0.8434752821922302,0.6639750599861145,-52.76936340332031,-132.17063903808594,-254.2808532714844
1699734700,-9.231453094482424,9.527088317871094,-0.4701722717285156,0.659302294254303,1.0120917558670044,0.4752658605575561,-52.7601318359375,-131.4650115966797,-255.0898284912109
1699734700,-9.031319274902344,7.67409164428711,0.3917353820800781,0.4674436151981354,1.2630707025527954,0.4258362650871277,-52.70257568359375,-131.37069702148438,-255.50701904296875
1699734700,-8.359665985107423,6.14172821044922,1.2219090270996094,0.3967342972755432,1.5103793144226074,0.4949423670768738,-52.78611755371094,-131.11880493164062,-256.7664489746094
1699734700,-7.496560821533204,5.328319702148438,1.4802717590332033,0.4244996309280395,1.5937751531600952,0.5865223407745361,-52.86604309082031,-130.65646362304688,-257.4167175292969
1699734700,-6.695127410888672,5.083129577636719,1.1859837341308594,0.5152567028999329,1.4419329166412354,0.6626970171928406,-52.124298095703125,-130.2247314453125,-259.08770751953125
1699734700,-6.252048797607422,5.147495727539063,0.6836283874511719,0.6523380875587463,1.1356844902038574,0.7127143740653992,-52.00245666503906,-129.54647827148438,-259.788330078125
1699734700,-6.236481170654297,5.292843475341797,0.3198847961425781,0.8337880373001099,0.7742149829864502,0.7306100130081177,-51.60569763183594,-128.88796997070312,-259.78155517578125
1699734700,-6.487658843994141,5.485642547607422,0.0525407409667968,1.0451035499572754,0.459249883890152,0.7110453844070435,-51.127197265625,-128.33187866210938,-260.56787109375
1699734700,-6.91921142578125,5.602100372314453,-0.1859133911132812,1.2851115465164185,0.2718280553817749,0.6831316947937012,-51.046661376953125,-128.07374572753906,-261.33612060546875
1699734700,-7.282805328369141,5.53294418334961,-0.3465293884277344,1.48536479473114,0.2144803404808044,0.6849144101142883,-50.71867370605469,-127.70442199707033,-262.066650390625
1699734700,-7.315736846923828,5.355413360595703,-0.463436279296875,1.620927095413208,0.23212431371212,0.6952048540115356,-50.741485595703125,-127.35108947753906,-262.453857421875
1699734700,-7.000492401123047,5.237009582519532,-0.5843847656250001,1.6581546068191528,0.2470153868198394,0.7047267556190491,-49.96473693847656,-126.87615966796876,-263.2344970703125
1699734700,-6.486012268066407,5.1061816406250005,-0.7586224365234375,1.597556233406067,0.1835280209779739,0.7183687686920166,-49.61474609375,-126.4278564453125,-263.72607421875
1699734700,-5.995182952880859,4.870721282958985,-0.935105438232422,1.473289966583252,-0.0155123807489871,0.7675451040267944,-48.90069580078125,-125.79493713378906,-264.1215515136719
1699734700,-5.507347412109375,4.649631042480469,-0.7670050048828125,1.318759560585022,-0.2034481912851333,0.8068379163742065,-48.84101867675781,-125.36782836914062,-264.763427734375
1699734700,-5.144651641845703,4.740342407226563,-0.099393310546875,1.195617914199829,-0.2712328433990478,0.7856900691986084,-48.432952880859375,-124.98739624023438,-264.8316345214844
1699734700,-5.124443664550782,4.8895820617675785,0.4230203247070312,1.1401323080062866,-0.1889614015817642,0.7062351703643799,-48.06707763671875,-124.5059051513672,-265.3639221191406
1699734700,-5.544619903564453,4.882995758056641,0.6963519287109375,1.1178873777389526,0.0317328944802284,0.5954101085662842,-47.979034423828125,-123.88916015625,-265.49072265625
1699734700,-6.118975524902344,4.841232604980469,0.6511459350585938,1.0884003639221191,0.3384377062320709,0.4709930717945099,-47.53570556640625,-124.2087860107422,-265.86724853515625
1699734700,-6.587800598144532,4.84796859741211,0.3141966247558594,0.9501466155052184,0.6535245180130005,0.3481952548027038,-47.54133605957031,-123.53965759277344,-267.11492919921875
1699734700,-6.864275665283204,4.848866729736328,-0.2633024597167969,0.7123087644577026,0.7545952200889587,0.2309578508138656,-47.0684814453125,-123.38397216796876,-267.32476806640625
1699734700,-7.121291198730469,4.755460968017578,-0.9858499145507812,0.4414953887462616,0.5817946791648865,0.1309167444705963,-47.100677490234375,-123.60920715332033,-267.81134033203125
1699734700,-7.421566772460938,4.643194427490235,-1.1880793762207031,0.2046689838171005,0.3355108797550201,0.0861724317073822,-47.03108215332031,-123.6537628173828,-268.1864929199219
1699734700,-7.779322814941406,4.595294036865234,-0.5022056579589844,0.0378403216600418,0.2349813580513,0.0833470895886421,-46.81913757324219,-124.04624938964844,-269.1199951171875
1699734700,-8.089477844238282,4.777165832519532,0.7235952758789063,-0.0687732025980949,0.3579120635986328,0.0780758932232856,-46.85748291015625,-123.42633056640624,-268.7939147949219
1699734700,-8.366551666259767,5.1941986083984375,1.773511962890625,-0.161649078130722,0.5758656859397888,0.0415628887712955,-46.92999267578125,-123.28498840332033,-268.92431640625
1699734700,-8.594677276611328,5.656886444091797,1.9618203735351565,-0.2780249714851379,0.7337786555290222,-0.018933743238449,-46.770263671875,-123.4197235107422,-269.52813720703125
1699734700,-8.90423355102539,6.066734161376954,1.5155982971191406,-0.3820546865463257,0.7617194652557373,-0.0845308601856231,-47.02655029296875,-123.30403137207033,-269.5538330078125
1699734700,-9.379046173095702,6.29216537475586,0.8095166015625,-0.4500420093536377,0.6389565467834473,-0.1349136084318161,-46.733306884765625,-123.16744995117188,-269.8653564453125
1699734700,-9.964628448486328,6.375392303466797,0.2409988403320312,-0.4996066093444824,0.4796659350395202,-0.1666955053806305,-46.47238159179688,-123.32521057128906,-270.4461669921875
1699734700,-10.61367874145508,6.285130004882813,0.1695973205566406,-0.48831507563591,0.4163298308849334,-0.1613513380289077,-46.768890380859375,-123.02684020996094,-269.84307861328125
1699734700,-11.20719451904297,6.080056457519532,0.3715274047851563,-0.3994509875774383,0.4613311290740967,-0.1193413063883781,-46.875732421875,-123.45477294921876,-269.77154541015625
1699734700,-11.501482543945311,5.992488555908204,0.2851570129394531,-0.2581154406070709,0.4756006300449371,-0.0889277383685112,-46.89750671386719,-123.12388610839844,-269.7391967773437
1699734700,-11.61195281982422,6.153703308105469,-0.3058140563964844,-0.1044209450483322,0.3483481109142303,-0.0850557684898376,-47.04058837890625,-123.2537078857422,-270.11102294921875
1699734700,-11.727063446044925,6.578819274902344,-1.0620414733886718,0.0343401320278644,0.0784362182021141,-0.0982038006186485,-46.81819152832031,-123.14825439453124,-270.3687744140625
1699734700,-11.8936669921875,7.342531127929687,-1.5751744079589844,0.1023532673716545,-0.2573098242282867,-0.1099496707320213,-46.54718017578125,-123.32731628417967,-270.02020263671875
1699734700,-12.017160186767578,8.367300109863281,-1.6061599731445313,0.0617395304143428,-0.5416851043701172,-0.1051708906888961,-46.5208740234375,-123.26649475097656,-269.8365783691406
1699734700,-12.025542755126954,9.354347534179688,-1.1784992980957032,-0.0620878711342811,-0.6996246576309204,-0.1024044007062912,-46.46119689941406,-123.07302856445312,-269.65643310546875
1699734700,-12.039014739990234,10.078391876220705,-0.6144721984863282,-0.2034838795661926,-0.718711256980896,-0.1056324169039726,-46.80918884277344,-122.86585998535156,-268.5956420898437
1699734700,-12.074041900634766,10.431058502197263,-0.2935395812988281,-0.3042275309562683,-0.6974291801452637,-0.1238511055707931,-46.75604248046875,-122.74661254882812,-268.1484375
1699734700,-11.99141372680664,10.57925033569336,-0.3519181823730469,-0.3479750156402588,-0.7154936194419861,-0.1428554207086563,-46.43247985839844,-122.74337768554688,-267.2613525390625
1699734700,-11.603719940185549,10.623408508300782,-0.4198768615722656,-0.3539828360080719,-0.8388534188270569,-0.1327825486660003,-46.409942626953125,-122.56912231445312,-266.1030578613281
1699734700,-10.631791076660155,10.318043518066409,-0.2737806701660156,-0.3858704566955566,-1.0812984704971311,-0.1042997762560844,-46.71318054199219,-122.7301788330078,-264.80975341796875
1699734700,-9.423354034423827,9.807455291748049,0.4297563171386719,-0.4850265979766845,-1.4061967134475708,-0.1240409910678863,-46.05972290039063,-122.37043762207033,-264.41046142578125
1699734700,-8.35577407836914,9.404044189453126,1.867965545654297,-0.6380017995834351,-1.7101513147354126,-0.2475488036870956,-46.01870727539063,-122.42228698730467,-262.6405029296875
1699734700,-7.7213932800292975,9.185498657226564,3.579207000732422,-0.8175324201583862,-1.8603063821792605,-0.4594855606555938,-46.225341796875,-122.36564636230467,-260.7640380859375
1699734700,-7.692203979492188,9.269174652099611,4.654271392822266,-1.044103980064392,-1.8581873178482056,-0.7163596749305725,-45.85111999511719,-122.54568481445312,-259.8150634765625
1699734700,-8.59093505859375,9.570797424316408,4.243675231933594,-1.4281044006347656,-1.8785767555236816,-0.8691508173942566,-46.097564697265625,-122.72763061523438,-257.0714416503906
1699734700,-9.866582336425784,9.344168701171876,2.8589048767089844,-2.005823373794556,-1.9261850118637085,-0.8835899829864502,-46.00648498535156,-123.04289245605467,-254.9575653076172
1699734700,-10.552755432128906,8.476572875976563,1.640438690185547,-2.684056043624878,-1.873700261116028,-0.8394829630851746,-45.64816284179688,-123.68167114257812,-252.5791015625
1699734700,-10.490634613037107,7.700885925292969,0.8684939575195313,-3.3433260917663574,-1.684229612350464,-0.7842788100242615,-45.87361145019531,-124.24919128417967,-249.43975830078125
1699734700,-9.833052062988282,7.299869842529297,0.4824467468261719,-3.772336959838867,-1.357085347175598,-0.9349445104599,-45.92620849609375,-124.7331085205078,-246.31727600097656
1699734700,-8.503367156982423,7.492818603515626,0.9584568786621094,-3.871246576309204,-0.564195454120636,-1.3383153676986694,-45.90509033203125,-125.81072998046876,-243.66319274902344
1699734700,-7.828720092773437,7.94712387084961,1.4973362731933595,-3.5484964847564697,0.385425716638565,-1.7051935195922852,-46.26173400878906,-127.56956481933594,-242.0588531494141
1699734700,-8.011939086914063,7.786807250976563,0.9797126770019532,-2.990389585494995,1.099543809890747,-1.828249454498291,-46.699951171875,-128.7983856201172,-241.23521423339844
1699734700,-8.203241271972656,7.280709686279297,-0.3342549133300781,-2.507130622863769,1.331541657447815,-1.7875009775161743,-47.384307861328125,-130.66079711914062,-240.89517211914065
1699734700,-7.823331298828125,6.96516586303711,-1.7727635192871094,-2.1684911251068115,0.8740603923797607,-1.68323016166687,-47.891845703125,-131.94935607910156,-240.2605133056641
1699734700,-7.149732055664063,7.079528045654297,-2.4939637756347657,-1.937848329544068,-0.0711303725838661,-1.4625427722930908,-48.419189453125,-133.29534912109375,-239.6920166015625
1699734700,-5.641767883300782,7.141050109863282,-2.3896307373046874,-1.682761788368225,-1.0385196208953855,-1.2411280870437622,-48.50733947753906,-134.4649200439453,-237.68801879882807
1699734700,-4.423002319335938,6.83299072265625,-1.5587086486816406,-1.354853868484497,-1.6706666946411133,-1.038852572441101,-47.96800231933594,-135.00234985351562,-235.62710571289065
1699734700,-3.7811370849609376,6.298152923583984,-0.5429209899902344,-0.9554391503334044,-1.9894214868545528,-0.9094389081001282,-47.321807861328125,-136.3501434326172,-234.41603088378903
1699734700,-3.3956886291503907,5.644013214111329,0.0734971618652343,-0.586837649345398,-2.0452029705047607,-0.8583115339279175,-46.379425048828125,-137.18887329101562,-232.78863525390625
1699734700,-3.720213775634766,5.034929809570313,1.0750643920898435,-0.3902734816074371,-1.893391728401184,-0.8457379341125488,-46.0733642578125,-137.3481903076172,-231.27862548828125
1699734701,-5.271138610839844,4.076173553466797,2.595303039550781,-0.4663496017456054,-1.9059300422668457,-0.9503772854804992,-45.05010986328125,-138.3321075439453,-229.9149169921875
1699734701,-7.790100402832031,3.619922332763672,4.235442352294922,-0.8542158603668213,-1.9884731769561768,-1.2886602878570557,-44.37954711914063,-139.157470703125,-228.898681640625
1699734701,-9.495953063964844,3.7224591064453127,5.705834655761719,-1.137485146522522,-1.795452356338501,-1.6211990118026731,-43.65254211425781,-140.07398986816406,-226.6462860107422
1699734701,-9.79997085571289,3.65240478515625,5.0904643249511725,-1.1334415674209597,-1.5424426794052124,-1.820890545845032,-43.16693115234375,-141.38356018066406,-225.2952117919922
1699734701,-9.342222747802737,3.263363800048828,3.207529907226563,-0.849234402179718,-1.3407785892486572,-1.882468223571777,-42.81013488769531,-142.9496612548828,-224.39024353027344
1699734701,-8.322842559814454,2.4995022583007813,1.7513580322265625,-0.3978165984153747,-1.1566572189331057,-1.872002005577088,-42.36183166503906,-143.8914794921875,-223.34169006347656
1699734701,-7.417974243164063,1.914818115234375,0.6194119262695312,-0.0164865646511316,-1.1586287021636963,-1.7710436582565308,-42.35411071777344,-145.03561401367188,-222.7821655273437
1699734701,-6.549480285644532,1.4178515625,-0.3294648742675781,0.1710013002157211,-1.4056241512298584,-1.5929404497146606,-41.55366516113281,-145.46337890625,-222.321044921875
1699734701,-5.523214416503906,1.040935363769531,-0.583187255859375,0.2350268959999084,-1.8138736486434937,-1.40033221244812,-41.073028564453125,-146.33767700195312,-221.82974243164065
1699734701,-4.439767456054688,0.9732760620117188,-0.1442999267578125,0.2785149812698364,-2.1542067527771,-1.2190656661987305,-39.94667053222656,-146.85374450683594,-220.8847198486328
1699734701,-3.468736724853516,1.368603973388672,0.9093589782714844,0.3797675669193268,-2.208932876586914,-1.032961130142212,-39.33097839355469,-147.2179412841797,-218.9855499267578
1699734701,-2.787653045654297,2.0243902587890625,2.069596252441406,0.5233383178710938,-2.0375959873199463,-0.8131703734397888,-38.22685241699219,-147.52792358398438,-218.2321319580078
1699734701,-2.473905487060547,2.583028564453125,2.660717010498047,0.6452844738960266,-1.7573517560958862,-0.5751951336860657,-37.21687316894531,-147.43910217285156,-217.6576232910156
1699734701,-2.0743862915039064,3.0608349609375,2.949466552734376,0.7369531393051147,-1.4473925828933716,-0.3947638273239136,-35.93348693847656,-147.31173706054688,-217.3694610595703
1699734701,-1.5744259643554688,3.462898864746094,3.1521450805664064,0.793202817440033,-1.1200538873672483,-0.2708956897258758,-35.89398193359375,-147.09036254882812,-216.2112579345703
1699734701,-1.3239967346191408,3.697311401367188,3.1558872985839845,0.8232563138008118,-0.8596540093421936,-0.2046018838882446,-35.49183654785156,-146.7897491455078,-215.97393798828125
1699734701,-1.1373348999023438,3.663930816650391,2.984044647216797,0.8206658959388733,-0.6673439741134644,-0.1818861812353134,-35.12678527832031,-146.03729248046875,-216.504150390625
1699734701,-1.081501007080078,3.293900299072266,2.796784057617188,0.8074933290481567,-0.4792478084564209,-0.1651761680841446,-35.01719665527344,-145.6024627685547,-216.21934509277344
1699734701,-1.380579071044922,2.6502388000488284,2.78106674194336,0.7899569272994995,-0.2237468063831329,-0.0452015660703182,-34.43672180175781,-145.29954528808594,-215.9752960205078
1699734701,-2.49037124633789,1.6643888854980469,3.3561708068847658,0.794625461101532,0.0716422274708747,0.19837087392807,-34.667205810546875,-144.73609924316406,-216.3188018798828
1699734701,-3.420836334228516,0.8708889770507813,4.314627685546875,0.7941412925720215,0.3785571753978729,0.4375722706317901,-34.796173095703125,-144.22262573242188,-216.5442047119141
1699734701,-3.842509460449219,0.4662803649902344,5.000202026367187,0.7499962449073792,0.764959454536438,0.6121981739997864,-35.265960693359375,-143.43531799316406,-216.85145568847656
1699734701,-4.186344451904297,0.1510359191894531,5.407654724121094,0.6486813426017761,1.243958830833435,0.71317058801651,-35.62455749511719,-142.83798217773438,-217.0839385986328
1699734701,-4.740791473388672,-0.0763412475585937,5.369933166503906,0.5537286996841431,1.6655206680297852,0.7709729075431824,-36.26824951171875,-141.65855407714844,-218.5416412353516
1699734701,-5.576802978515626,-0.0983454895019531,4.884792022705079,0.4606333971023559,2.26839542388916,0.7314534187316895,-37.28364562988281,-140.96987915039062,-219.6336364746093
1699734701,-6.369404754638672,0.13172607421875,4.240531768798828,0.4836170077323913,3.1736984252929688,0.6367852687835693,-38.55488586425781,-140.34149169921875,-220.49722290039065
1699734701,-7.584727478027344,0.808319091796875,3.0481114196777344,0.7513006329536438,4.089030742645264,0.6119166612625122,-40.39988708496094,-139.68771362304688,-222.9975433349609
1699734701,-8.93432098388672,1.9083815002441409,1.3454022216796877,1.0445444583892822,4.625789165496826,0.7528982758522034,-42.091796875,-138.9617462158203,-225.4740447998047
1699734701,-10.12329849243164,3.313210144042969,-0.6734495544433594,1.085820555686951,4.435410499572754,1.0045976638793943,-44.15635681152344,-137.59429931640625,-228.2620544433593
1699734701,-11.160192260742187,4.9707133483886725,-1.8203645324707032,0.4696814715862274,3.101823091506958,1.2149964570999146,-45.47018432617188,-136.7726593017578,-230.63807678222656
1699734701,-12.636272735595703,7.800428924560547,-1.0246192932128906,-0.456935852766037,1.1278045177459717,1.3073554039001465,-45.76158142089844,-135.98025512695312,-231.9919586181641
1699734701,-14.419215087890626,11.006911010742188,3.7113821411132815,-0.2540381252765655,1.0693765878677368,1.026102066040039,-45.55010986328125,-135.1866455078125,-232.10455322265625
1699734701,-16.5495849609375,12.164603576660156,9.74144256591797,0.5586763024330139,2.1643505096435547,0.3179494738578796,-46.02641296386719,-134.99636840820312,-234.19921875
1699734701,-19.743642883300783,12.355307006835938,9.212742004394531,1.222850322723389,2.323052406311035,-0.615821123123169,-47.10655212402344,-134.2180633544922,-235.3174285888672
1699734701,-22.75552963256836,12.467274169921875,3.5474729919433594,0.8733152151107788,0.8110420107841492,-0.9589020609855652,-47.64649963378906,-134.5951385498047,-236.8080902099609
1699734701,-23.63480117797852,9.346863098144532,0.1519340515136718,0.7118893265724182,-0.3646067380905151,-0.0586952716112136,-47.66746520996094,-134.81875610351562,-237.3784027099609
1699734701,-20.043170013427737,4.924459533691406,3.291505279541016,1.0961509943008425,-0.34634730219841,0.7412376403808594,-46.99029541015625,-134.31007385253906,-237.03717041015625
1699734701,-11.32544860839844,4.212390289306641,5.341641998291016,1.5694178342819214,-0.1706372499465942,0.906979203224182,-46.73445129394531,-133.5336456298828,-237.1598358154297
1699734701,-5.874833221435547,4.794829101562501,3.51394271850586,1.887012362480164,-0.097400851547718,0.8154450058937073,-46.08305358886719,-132.67959594726562,-238.0253448486328
1699734701,-3.607947235107422,4.54769302368164,1.7262103271484377,1.953791618347168,-0.1346124112606048,0.6984512805938721,-46.04048156738281,-131.7030029296875,-238.9853515625
1699734701,-2.327958984375,3.982767791748047,0.9262738037109376,1.799858808517456,-0.2188194245100021,0.6681788563728333,-45.55538940429688,-130.78402709960938,-239.5140380859375
1699734701,-1.5929873657226563,3.695215759277344,0.7926017761230469,1.5562288761138916,-0.2280400842428207,0.693519115447998,-45.2105712890625,-130.17247009277344,-240.025146484375
1699734701,-1.2425660705566406,4.0424935913085935,0.9931846618652344,1.3395814895629885,-0.0559908300638198,0.6635732054710388,-44.67210388183594,-129.5438690185547,-239.898193359375
1699734701,-1.446142730712891,5.226681060791016,1.1367361450195312,1.1791294813156128,0.2571359276771545,0.60895174741745,-44.61119079589844,-128.78036499023438,-240.5930938720703
1699734701,-2.770738220214844,6.74482406616211,0.7852670288085938,1.012649655342102,0.6514070630073547,0.6722761392593384,-44.351654052734375,-128.20770263671875,-241.2507781982422
1699734701,-4.546046447753906,8.231831817626954,0.2447410583496093,0.8287544250488281,1.0169237852096558,0.8027377128601074,-44.55503845214844,-126.9633331298828,-241.6519927978516
1699734701,-6.271508331298828,9.6615087890625,-0.5575904846191406,0.617677628993988,1.250396966934204,0.9176698923110962,-44.269805908203125,-126.5653076171875,-243.1317901611328
1699734701,-7.710765380859375,10.72205337524414,-1.2379257202148437,0.4049544036388397,1.3522464036941528,0.9077746868133544,-43.87071228027344,-126.15074157714844,-243.9381103515625
1699734701,-8.810528411865235,11.01604202270508,-1.380728759765625,0.2260259389877319,1.3944932222366333,0.775794506072998,-44.34193420410156,-125.73367309570312,-244.88710021972656
1699734701,-9.48622329711914,10.23676254272461,-0.9934840393066406,0.1402242183685302,1.4789247512817385,0.6281174421310425,-43.70957946777344,-125.37986755371094,-245.75575256347656
1699734701,-9.511820068359375,8.786877593994141,-0.1670526123046875,0.1436911225318908,1.6855963468551636,0.5581386685371399,-44.0694580078125,-125.07496643066406,-246.6940155029297
1699734701,-9.29701675415039,6.985074462890625,0.6755451965332031,0.1992867439985275,1.8901036977767944,0.616262674331665,-44.13935852050781,-124.58522033691406,-247.45620727539065
1699734701,-9.018296356201173,5.382656707763672,0.8807684326171875,0.2834706008434295,1.8705841302871704,0.7727380394935608,-43.97172546386719,-124.50244140625,-248.31825256347656
1699734701,-8.726103973388673,4.349205780029297,0.4501139831542969,0.419166624546051,1.5640918016433716,0.9481934905052184,-44.03785705566406,-123.87547302246094,-249.5622100830078
1699734701,-8.452622680664064,3.884871368408204,0.0913101196289062,0.6302884817123413,1.1552842855453491,1.0647344589233398,-43.90614318847656,-123.44328308105467,-250.2505645751953
1699734701,-8.130791931152345,3.938160552978516,0.0666114807128906,0.8770543336868286,0.7729758620262146,1.070362567901611,-43.20637512207031,-122.92832946777344,-251.59165954589844
1699734701,-7.795638885498048,4.232149200439453,0.0056881713867187,1.153053641319275,0.4366092681884765,1.0028492212295532,-42.6922607421875,-122.37110900878906,-251.6597900390625
1699734701,-7.517517242431641,4.352648620605469,-0.2642005920410156,1.4268429279327393,0.1690031290054321,0.9100325107574464,-42.383087158203125,-121.56849670410156,-252.7797393798828
1699734701,-7.218289489746094,4.451892242431641,-0.3998185729980469,1.6523990631103516,0.0167483538389205,0.7992892265319824,-41.97772216796875,-121.15763854980467,-254.00694274902344
1699734701,-6.8919680786132815,4.593797149658204,-0.4152365112304688,1.8085873126983645,-0.0864278301596641,0.7199677228927612,-41.40394592285156,-120.77806091308594,-254.84703063964844
1699734701,-6.530170440673828,4.449197845458984,-0.379610595703125,1.856564998626709,-0.1896306574344635,0.6913344860076904,-41.10699462890625,-120.40016174316406,-255.12863159179688
1699734701,-6.000422058105469,4.208797760009766,-0.2935395812988281,1.812448620796204,-0.2890341877937317,0.7022140622138977,-40.89122009277344,-119.80963134765624,-255.8147125244141
1699734701,-5.413043518066407,3.993994445800781,-0.0097297668457031,1.693999171257019,-0.3158458471298218,0.7130478024482727,-40.50112915039063,-119.81805419921876,-256.4952697753906
1699734701,-4.907395019531251,4.022435302734375,0.310155029296875,1.5422000885009766,-0.2300153523683548,0.6745427250862122,-39.893402099609375,-119.14231872558594,-257.5333251953125
1699734701,-4.686604156494141,4.2801992797851565,0.4336482238769531,1.4131041765213013,-0.1085664257407188,0.5897666215896606,-39.48306274414063,-119.21083068847656,-257.6566162109375
1699734701,-4.789440307617188,4.62044174194336,0.2553689575195312,1.32228422164917,0.0366259217262268,0.4988310933113098,-39.48664855957031,-118.47763061523438,-258.1390075683594
1699734701,-5.132077789306641,4.812941436767578,0.0356259155273437,1.2344156503677368,0.2076272219419479,0.4256146848201751,-39.4024658203125,-118.36402893066406,-259.1824951171875
1699734701,-5.408852233886719,4.870272216796876,-0.0636177062988281,1.0737532377243042,0.4009069502353668,0.3651326894760132,-38.86383056640625,-118.03875732421876,-259.56085205078125
1699734701,-5.636678466796876,5.002597045898438,-0.1175056457519531,0.8098347783088684,0.5647262334823608,0.3140008151531219,-39.03684997558594,-118.08253479003906,-260.94122314453125
1699734701,-5.8299266052246095,5.138963470458985,-0.1917512512207031,0.4656691551208496,0.6652272939682007,0.2769682109355926,-39.01213073730469,-117.88624572753906,-261.20477294921875
1699734701,-6.066434783935547,5.326673126220704,-0.1983375549316406,0.0606409758329391,0.7533171772956848,0.2256509661674499,-38.89889526367188,-117.7463836669922,-262.1964111328125
1699734701,-6.538702697753907,5.560187530517578,-0.1523831176757812,-0.3316256105899811,0.8784476518630981,0.1269667297601699,-38.66387939453125,-117.53831481933594,-262.1674194335937
1699734701,-7.30525863647461,5.581593017578125,-0.0230520629882812,-0.6032014489173889,1.045362114906311,0.0138803953304886,-38.54661560058594,-117.48779296875,-262.2777099609375
1699734701,-8.263116760253906,5.299429779052734,0.2025288391113281,-0.682329535484314,1.169761061668396,-0.0881841853260994,-38.68397521972656,-117.64163208007812,-262.96307373046875
1699734701,-9.340426483154298,5.006339263916016,0.2725831604003906,-0.6154253482818604,1.2150957584381104,-0.1610951423645019,-38.53948974609375,-117.59529113769533,-263.598388671875
1699734701,-10.507100372314454,5.009333038330079,0.4568499755859375,-0.4753034114837646,1.2178316116333008,-0.2032231539487838,-38.637725830078125,-117.77313232421876,-263.9852294921875
1699734701,-11.624826049804687,5.2135084533691405,0.5619314575195313,-0.3213881552219391,1.0774800777435305,-0.1994039118289947,-39.01795959472656,-117.6093292236328,-264.1395874023437
1699734701,-12.540471954345705,5.422174530029297,-0.0476010131835937,-0.1684705018997192,0.7199714779853821,-0.1631681472063064,-38.99215698242188,-117.86012268066406,-264.5885009765625
1699734701,-13.24820022583008,5.3696337890625,-1.1003617858886718,-0.0500157624483108,0.2177315205335617,-0.0784812271595001,-39.02886962890625,-117.92971801757812,-265.20458984375
1699734701,-13.626014556884764,5.248685302734375,-1.9631675720214845,0.033327329903841,-0.3148404955863952,-0.0108830081298947,-38.87855529785156,-117.88639831542967,-265.39520263671875
1699734701,-13.748609619140623,5.309009857177735,-2.484533386230469,0.1091813445091247,-0.805898129940033,0.0040416130796074,-39.04800415039063,-118.14543151855467,-265.2434997558594
1699734701,-13.70235580444336,5.526657257080078,-2.468067626953125,0.1870393902063369,-1.098195195198059,-0.042238000780344,-38.85829162597656,-117.98910522460938,-264.5326538085937
1699734701,-13.261372833251954,6.158193969726563,-1.5015275573730469,0.2987672686576843,-1.0228229761123655,-0.1503916382789611,-39.05885314941406,-118.38053894042967,-264.45623779296875
1699734701,-12.54885452270508,7.207661590576172,-0.0489482116699218,0.4112051129341125,-0.6716292500495911,-0.2378700822591781,-39.13172912597656,-118.35832214355467,-264.3038330078125
1699734701,-12.115505676269532,8.303532714843751,0.9759704589843752,0.4512009918689728,-0.2832229137420654,-0.2650415301322937,-38.9263916015625,-118.27578735351562,-264.319580078125
1699734701,-11.91327621459961,9.44790298461914,1.347348175048828,0.3554808795452118,-0.0987763777375221,-0.2208937704563141,-38.82221984863281,-118.34994506835938,-264.13037109375
1699734701,-11.81597854614258,10.521021423339844,0.9907896423339844,0.112845592200756,-0.2671888172626495,-0.1368273496627807,-38.9901123046875,-118.56097412109376,-264.9898986816406
1699734701,-11.532617797851564,11.219918060302737,0.1428030395507812,-0.2111713588237762,-0.6581427454948425,-0.0845939815044403,-38.56712341308594,-118.4624481201172,-264.60943603515625
1699734701,-10.922037506103516,11.46301254272461,-0.5331912231445313,-0.5417213439941406,-1.0748907327651978,-0.0763996988534927,-38.59590148925781,-118.54391479492188,-264.2105712890625
1699734701,-10.1692529296875,11.297606506347655,-0.7809260559082032,-0.8357044458389282,-1.3873708248138428,-0.0957702025771141,-38.55581665039063,-118.9635009765625,-263.0189208984375
1699734701,-9.295220489501952,10.73357940673828,-0.5613327026367188,-1.0820876359939575,-1.5169453620910645,-0.1316259354352951,-37.96107482910156,-118.81024169921876,-261.9983215332031
1699734701,-8.423283691406251,10.090067596435548,0.0636177062988281,-1.2829946279525757,-1.478724479675293,-0.2043366283178329,-37.43649291992188,-119.1187744140625,-261.023193359375
1699734701,-7.684120788574219,9.658515014648438,1.0163864135742189,-1.4544146060943604,-1.3208767175674438,-0.31238853931427,-37.39433288574219,-119.03591918945312,-260.0589599609375
1699734701,-7.170838165283204,9.63755859375,2.245181121826172,-1.615321159362793,-1.1033062934875488,-0.505166232585907,-36.85273742675781,-119.24298095703124,-258.8466186523437
1699734701,-7.294780426025391,10.16880386352539,3.234623565673828,-1.8925570249557493,-0.9652813673019408,-0.6996792554855347,-37.09135437011719,-119.25593566894533,-257.27691650390625
1699734701,-8.238118743896484,10.485096130371094,3.3194970703125,-2.359684467315674,-1.0101377964019775,-0.8527311086654663,-37.09825134277344,-119.79299926757812,-255.56344604492188
1699734701,-9.027427368164062,9.912985839843753,3.0434710693359377,-2.967311382293701,-1.1484535932540894,-0.9469454884529114,-36.86627197265625,-120.78538513183594,-253.79464721679688
1699734701,-9.229806518554687,8.631351013183593,2.520308990478516,-3.565825223922729,-1.3716517686843872,-1.0154566764831543,-36.5074462890625,-121.30989074707033,-251.377197265625
1699734701,-9.051377563476564,7.251819763183594,1.9501446533203128,-4.048142433166504,-1.599380612373352,-1.01937735080719,-36.20640563964844,-121.95475769042967,-249.0854339599609
1699734701,-8.977730712890626,6.291566619873048,1.8314414978027345,-4.254730701446533,-1.5855810642242432,-1.095800280570984,-36.03422546386719,-123.13626098632812,-246.6955108642578
1699734702,-8.433761901855469,6.049969024658203,2.322719879150391,-4.045479774475098,-1.0844464302062988,-1.2376846075057983,-35.58049011230469,-124.2451171875,-244.4847412109375
1699734702,-7.966882781982422,6.285878448486328,2.379152526855469,-3.4339394569396973,-0.2940673232078552,-1.3648031949996948,-35.25944519042969,-125.8140869140625,-243.12277221679688
1699734702,-7.9608952331542975,6.367608489990235,1.473835144042969,-2.6823675632476807,0.4047352373600006,-1.384360432624817,-35.20011901855469,-126.7436981201172,-241.2579345703125
1699734702,-8.026009826660157,6.250701599121094,-0.1504371643066406,-2.0186309814453125,0.6664177179336548,-1.3085010051727295,-35.386016845703125,-128.10443115234375,-240.9842071533203
1699734702,-7.937693481445313,6.299649810791016,-1.7021104431152343,-1.584093451499939,0.3934250473976135,-1.2116600275039673,-35.45097351074219,-129.19964599609375,-240.289779663086
1699734702,-7.440277862548829,6.362818450927735,-2.537523193359375,-1.4281063079833984,-0.2513757646083832,-1.1202656030654907,-35.434051513671875,-130.0421600341797,-239.909423828125
1699734702,-6.619085540771485,6.408623199462891,-2.589165802001953,-1.358964204788208,-1.0306137800216677,-1.0207501649856567,-35.12614440917969,-130.55238342285156,-239.83680725097656
1699734702,-5.854026489257813,6.371350708007813,-2.037862243652344,-1.2587110996246338,-1.538120985031128,-0.8996834754943848,-34.81858825683594,-131.60562133789062,-238.42547607421875
1699734702,-5.301226043701172,6.063740386962891,-1.0006690979003907,-1.1087231636047363,-1.6769368648529053,-0.7837661504745483,-34.05384826660156,-132.67579650878906,-238.11392211914065
1699734702,-4.9960107421875,5.721402282714844,-0.0938548278808593,-0.9555030465126038,-1.5901247262954712,-0.673137366771698,-33.6932373046875,-133.20907592773438,-237.06256103515625
1699734702,-4.941224670410157,5.602549438476562,0.9369017028808594,-0.8735786080360413,-1.5037168264389038,-0.6444570422172546,-32.88572692871094,-133.7552490234375,-236.8672332763672
1699734702,-5.5164784240722655,5.0674122619628905,2.039059753417969,-0.96998929977417,-1.762149214744568,-0.7538330554962158,-32.23695373535156,-134.00938415527344,-236.0329132080078
1699734702,-7.253915405273438,4.316723327636719,3.339705047607422,-1.2621772289276123,-2.043540954589844,-1.0000228881835938,-31.22377014160156,-134.9510498046875,-235.0489501953125
1699734702,-8.733887786865235,3.660188598632813,5.651946716308594,-1.4346296787261963,-1.8765634298324585,-1.280809760093689,-30.901412963867188,-135.66221618652344,-234.5893402099609
1699734702,-8.905580749511719,3.293301544189453,6.3301863098144535,-1.2966033220291138,-1.6331212520599363,-1.523953199386597,-30.332046508789062,-136.83555603027344,-233.6891632080078
1699734702,-8.066725158691407,2.989433441162109,4.445904693603516,-0.9366750121116638,-1.5790363550186155,-1.5784592628479004,-30.263992309570312,-137.6536865234375,-232.6796264648437
1699734702,-7.132667541503906,2.359842681884765,2.24937240600586,-0.4721763134002685,-1.676804542541504,-1.383087396621704,-29.525360107421875,-138.74810791015625,-232.14747619628903
1699734702,-6.400839385986329,1.659598846435547,0.765208740234375,-0.0511609204113483,-1.8686847686767576,-1.0762220621109009,-28.855514526367188,-139.00389099121094,-231.90786743164065
1699734702,-5.713917846679688,1.337468719482422,-0.1942959594726562,0.2065108269453048,-2.156190633773804,-0.8094723224639893,-28.330795288085938,-139.62188720703125,-232.1134796142578
1699734702,-4.843178558349609,1.2793894958496097,-0.6312373352050782,0.2847321331501007,-2.475123405456543,-0.6541498303413391,-27.680892944335938,-139.8983154296875,-231.83380126953125
1699734702,-3.979923706054688,1.4911990356445313,-0.4930746459960938,0.2277394235134124,-2.660339117050171,-0.5900148153305054,-27.305160522460938,-139.7471160888672,-231.0404663085937
1699734702,-3.27923080444336,1.9728973388671875,0.3465293884277344,0.1386446952819824,-2.55347204208374,-0.568743884563446,-26.064498901367188,-140.15084838867188,-230.5790405273437
1699734702,-2.8261230468750003,2.544708251953125,1.7438735961914062,0.0392989367246627,-2.099259376525879,-0.519221842288971,-25.42074584960937,-140.24783325195312,-230.36349487304688
1699734702,-2.488724670410156,2.9963191223144534,2.9969178771972658,-0.0280707832425832,-1.5240697860717771,-0.4382615089416504,-25.19984436035156,-140.6279296875,-229.60479736328125
1699734702,-2.235601043701172,3.3292268371582034,3.47562240600586,-0.025728266686201,-1.061964511871338,-0.358307808637619,-24.278060913085938,-140.7612762451172,-229.4154815673828
1699734702,-1.9492465209960936,3.436553649902344,3.4310151672363283,0.0876243934035301,-0.8095258474349976,-0.3285571038722992,-24.1434326171875,-140.8061065673828,-229.00230407714844
1699734702,-1.6353492736816406,3.270099792480469,3.416046295166016,0.2911578118801117,-0.635915219783783,-0.3257075250148773,-23.987274169921875,-141.04978942871094,-229.3409881591797
1699734702,-1.5109579467773435,2.943329315185547,3.6579432678222656,0.5181616544723511,-0.420472651720047,-0.3319158852100372,-24.29345703125,-140.8109130859375,-228.89987182617188
1699734702,-1.535357208251953,2.5035438537597656,3.9475909423828126,0.6646687984466553,-0.1040638163685798,-0.2732227444648742,-24.437301635742188,-140.88571166992188,-229.27682495117188
1699734702,-1.8001565551757814,1.8302439880371093,4.244124298095703,0.7140176892280579,0.2467187047004699,-0.0632607266306877,-24.349349975585938,-140.5935516357422,-229.21841430664065
1699734702,-2.4493565368652344,0.8280780029296876,4.632267150878906,0.7137636542320251,0.5485448837280273,0.2579117119312286,-24.4310302734375,-140.1427459716797,-229.4685516357422
1699734702,-3.0693672180175784,0.0839753723144531,4.978646850585938,0.6495503187179565,0.7427183389663696,0.5144492387771606,-25.234771728515625,-139.64797973632812,-230.0580291748047
1699734702,-3.204236755371094,0.1109193420410156,5.226681060791016,0.5038967132568359,0.9517671465873718,0.6577816009521484,-25.280517578125,-139.4136505126953,-230.3926239013672
1699734702,-3.4611026000976564,0.3055146789550781,5.6152729797363286,0.346646100282669,1.2523086071014404,0.7300739288330078,-25.449859619140625,-138.9951629638672,-231.2026214599609
1699734702,-4.335284729003907,0.3629951477050781,6.2033999633789065,0.278465986251831,1.7587717771530151,0.7539909482002258,-25.40155029296875,-138.56124877929688,-231.57485961914065
1699734702,-5.399421844482422,0.3305126953125,6.650819549560548,0.2080309689044952,2.6927649974823,0.7363142371177673,-26.34272766113281,-138.13589477539062,-232.1078491210937
1699734702,-7.024442596435547,0.4041595458984375,6.434669036865235,0.227716252207756,3.7604880332946777,0.7946673035621643,-27.50140380859375,-137.18157958984375,-233.46145629882807
1699734702,-8.90183853149414,0.9496252441406252,5.147196350097657,0.3896319270133972,4.580655097961426,0.9831733107566832,-28.97285461425781,-137.16336059570312,-235.2093505859375
1699734702,-10.413245544433597,2.2634431457519533,2.698887634277344,0.4942326247692108,4.629784107208252,1.371734380722046,-29.681442260742188,-135.78948974609375,-237.13026428222656
1699734702,-11.655362548828126,4.527784423828125,0.1302291870117187,0.2382120341062545,3.5361948013305664,1.7198022603988647,-30.87928771972656,-135.37835693359375,-238.93911743164065
1699734702,-12.95600784301758,8.168363800048828,1.7693206787109377,-0.2973283529281616,1.8646329641342163,1.8602994680404663,-31.3499755859375,-134.156982421875,-239.999755859375
1699734702,-15.016922149658203,12.199930114746094,6.836583251953125,-0.1137028634548187,0.9947564601898192,1.7229067087173462,-30.948562622070312,-133.3887176513672,-240.7447052001953
1699734702,-16.09737533569336,13.20329360961914,7.069648590087891,0.9671173691749572,1.2000919580459597,1.1823004484176636,-30.791473388671875,-132.96078491210938,-241.4615478515625
1699734702,-17.273629302978517,12.139605560302735,5.856421508789063,1.614267110824585,1.3708568811416626,0.2369496971368789,-31.029754638671875,-132.5282440185547,-242.8617553710937
1699734702,-18.621725921630865,11.405232696533204,5.310357055664063,1.0288286209106443,0.5920076370239258,-0.2755628824234009,-31.375,-132.50405883789062,-243.9872283935547
1699734702,-19.319425048828126,8.874595184326173,3.028352508544922,0.7735047340393066,-0.0160966776311397,0.2262722849845886,-31.470733642578125,-131.97035217285156,-244.34393310546875
1699734702,-16.11279327392578,5.732030181884766,2.6444009399414066,1.0719764232635498,0.0345068424940109,0.6348075866699219,-31.465972900390625,-132.1896209716797,-245.0027618408203
1699734702,-10.216704254150391,5.217250671386719,2.7997778320312503,1.363677978515625,0.2023648172616958,0.6926453113555908,-31.32579040527344,-131.540771484375,-245.59573364257807
1699734702,-6.376589813232422,5.251379699707032,1.8612295532226564,1.5081779956817627,0.3262574672698974,0.6423669457435608,-30.892623901367188,-131.25119018554688,-246.1472320556641
1699734702,-4.3893223571777344,4.794829101562501,0.7488926696777344,1.488605260848999,0.4200436174869537,0.604313313961029,-30.827178955078125,-130.80923461914062,-247.55674743652344
1699734702,-3.0225146484375003,4.097279663085938,0.4180805969238281,1.360765814781189,0.5125285387039185,0.5966583490371704,-30.71884155273437,-130.5594482421875,-248.5849151611328
1699734702,-2.079026641845703,3.567082214355469,0.6578819274902344,1.197873592376709,0.6316933035850525,0.6434189081192017,-30.706466674804688,-130.03671264648438,-249.023681640625
1699734702,-1.5859519958496096,3.517984313964844,1.0807525634765625,1.050140380859375,0.776095449924469,0.6777715682983398,-30.2926025390625,-130.07229614257812,-249.25592041015625
1699734702,-1.5552658081054689,4.229754180908204,1.153052215576172,0.922382116317749,0.8717476725578308,0.6763049364089966,-30.3170166015625,-129.37847900390625,-250.28741455078125
1699734702,-2.609972534179688,5.662424926757812,0.7596702575683594,0.8282188773155212,0.9779167175292968,0.6894127726554871,-30.43927001953125,-129.129150390625,-251.2587127685547
1699734702,-4.698728942871094,7.198081512451172,0.2378553771972656,0.7469825744628906,1.119402289390564,0.771003782749176,-30.375518798828125,-128.5149383544922,-251.8853454589844
1699734702,-6.81862060546875,8.55830291748047,-0.329315185546875,0.669014036655426,1.2656798362731934,0.8352211117744446,-29.75257873535156,-128.50048828125,-252.7499237060547
1699734702,-8.82849105834961,9.627978515625,-0.9630972290039064,0.613290548324585,1.370834231376648,0.8279264569282532,-29.88067626953125,-128.34059143066406,-253.4884490966797
1699734702,-10.436596984863282,10.08063720703125,-1.3677058410644531,0.5363009572029114,1.4447672367095947,0.7177141904830933,-29.61688232421875,-127.66441345214844,-254.1481170654297
1699734702,-11.353739776611327,9.829459533691407,-1.0689271545410155,0.421741634607315,1.5498204231262207,0.4863419532775879,-29.471954345703125,-127.32711791992188,-255.16392517089844
1699734702,-11.456126861572264,8.741072845458985,-0.0818797302246093,0.2835733890533447,1.7463481426239014,0.261841744184494,-29.410614013671875,-127.29693603515624,-256.16259765625
1699734702,-10.766959991455078,6.590345306396484,1.0427316284179688,0.1742144078016281,1.9256467819213867,0.2109945267438888,-29.61749267578125,-127.4320068359375,-257.0535583496094
1699734702,-9.658515014648438,4.533023529052735,1.445543975830078,0.1457494795322418,1.8697832822799685,0.3597845435142517,-29.742416381835938,-127.02391052246094,-257.66815185546875
1699734702,-8.528514862060547,3.566333770751953,1.086141357421875,0.2459610402584076,1.5394093990325928,0.5767280459403992,-29.672149658203125,-127.28460693359376,-258.4801025390625
1699734702,-7.626191253662109,3.629502410888672,0.67779052734375,0.4858447313308716,1.0635557174682615,0.7200183272361755,-29.66539001464844,-126.82363891601562,-259.06561279296875
1699734702,-7.117998046875,4.244124298095703,0.4556524658203125,0.7928004264831543,0.5774644017219543,0.7513552308082581,-29.58306884765625,-126.60635375976562,-260.3546447753906
1699734702,-7.032376098632813,5.022805023193359,0.2769241333007812,1.0873258113861084,0.177713543176651,0.7049443125724792,-29.013336181640625,-126.67901611328124,-260.30615234375
1699734702,-7.173382873535156,5.4356465148925786,0.1681004333496094,1.3359146118164062,-0.1085187569260597,0.6839181184768677,-28.522994995117188,-126.1396942138672,-261.3387451171875
1699734702,-7.262597351074219,5.464686126708985,0.2721340942382813,1.5096677541732788,-0.2573654949665069,0.6977737545967102,-28.312667846679688,-126.01649475097656,-261.3199768066406
1699734702,-7.145690460205079,5.56407943725586,0.4098477172851563,1.615221619606018,-0.269391268491745,0.7291793823242188,-28.186920166015625,-125.76115417480467,-261.99005126953125
1699734702,-6.89376434326172,5.686973876953125,0.4055067443847656,1.6508831977844238,-0.1834760904312133,0.741047203540802,-28.183090209960938,-125.55307006835938,-262.8636169433594
1699734702,-6.620133361816406,5.679788818359375,0.2433938598632812,1.6086723804473877,-0.0811569020152092,0.7393633127212524,-28.031082153320312,-125.543212890625,-262.97833251953125
1699734702,-6.420747985839844,5.355113983154297,-0.1134640502929687,1.487973928451538,0.0027297399938106,0.7325106859207153,-27.80244445800781,-125.11155700683594,-264.12652587890625
1699734702,-6.240522766113282,4.928201751708984,-0.2362088012695312,1.313149333000183,0.0746806263923645,0.724750280380249,-27.383865356445312,-124.9158172607422,-264.8282470703125
1699734702,-6.080655212402344,4.453239440917969,-0.0396675109863281,1.1606868505477903,0.1642073094844818,0.7191498875617981,-27.0113525390625,-124.7253875732422,-265.17108154296875
1699734702,-6.045628051757813,4.138144683837891,0.4772076416015625,1.0341733694076538,0.308690458536148,0.6881222128868103,-26.61219787597656,-124.81062316894533,-265.2891845703125
1699734702,-6.121220855712891,3.969445495605469,0.9991722106933594,0.9539262056350708,0.4525160789489746,0.6266332864761353,-26.3734130859375,-124.73236083984376,-265.9228515625
1699734702,-6.234086151123047,3.898493041992188,1.131347351074219,0.9149830341339112,0.5079963803291321,0.5319395065307617,-26.026199340820312,-124.53411865234376,-267.04638671875
1699734702,-6.390510864257813,3.893403625488281,0.7816744995117187,0.9133169651031494,0.4500862061977386,0.4332385063171386,-25.783477783203125,-124.38279724121094,-267.7585144042969
1699734702,-6.608757019042969,3.820205841064453,0.3115022277832031,0.8868176937103271,0.3707940578460693,0.3689727187156677,-25.815155029296875,-124.17506408691406,-268.0775451660156
1699734702,-6.727909240722656,3.767066345214844,-0.0522413635253906,0.81956946849823,0.3018043339252472,0.2975136935710907,-25.709152221679688,-124.25608825683594,-268.6115417480469
1699734702,-6.719826049804688,3.83921630859375,-0.4632865905761719,0.7281636595726013,0.3069964349269867,0.1975189298391342,-25.84312438964844,-123.95199584960938,-269.1456298828125
1699734702,-6.724167022705078,3.986809387207032,-0.7339237976074219,0.6088595986366272,0.4177692830562591,0.0961457043886184,-25.408035278320312,-124.15679931640624,-269.7162780761719
1699734702,-6.785689086914063,4.196822662353516,-0.9521699523925782,0.4768203496932983,0.5569546222686768,-0.0011155981337651,-25.82861328125,-124.11952209472656,-269.9209289550781
1699734702,-7.048243103027344,4.374802551269531,-1.2250524902343751,0.3769174516201019,0.6433765888214111,-0.0589759685099124,-25.88462829589844,-124.37165832519533,-270.7602844238281
1699734702,-7.36468505859375,4.688101043701172,-1.199755096435547,0.2972862720489502,0.7431135773658752,-0.0901416093111038,-25.97470092773437,-124.35267639160156,-270.97918701171875
1699734702,-7.657775573730469,5.226830749511719,-0.7134164428710937,0.2291817814111709,0.8601235151290894,-0.0768242105841636,-25.955291748046875,-124.66893005371094,-271.2244567871094
1699734702,-8.11956527709961,5.922434234619141,-0.2369572448730469,0.1707536280155182,0.905197024345398,-0.0539774820208549,-26.086685180664062,-124.68914794921876,-271.7408752441406
1699734702,-8.991053009033202,6.644682312011719,-0.1296304321289062,0.0857971981167793,0.8249287605285645,-0.0602960959076881,-26.476730346679688,-124.47785949707033,-272.2969970703125
1699734702,-10.29139892578125,6.901548156738282,-0.3285667419433594,-0.024494158104062,0.6343598961830139,-0.07582338899374,-26.258712768554688,-124.76521301269533,-272.9345092773437
1699734702,-11.28248794555664,6.699767761230469,-0.5366340637207031,-0.1261896193027496,0.3606822788715362,-0.0993071421980857,-26.442642211914062,-125.17074584960938,-273.117919921875
1699734702,-12.109368438720704,6.496340789794922,-0.6707551574707031,-0.180367112159729,0.1172808185219764,-0.1157913133502006,-26.339141845703125,-125.22564697265624,-274.1280517578125
1699734702,-12.961995391845704,6.43347152709961,-0.2573149108886718,-0.1609864830970764,0.0504964627325534,-0.0958351790904998,-26.603347778320312,-125.23454284667967,-273.51336669921875
1699734702,-13.846206665039062,6.569089508056641,0.7204518127441406,-0.0638594031333923,0.2184082418680191,-0.0339814014732837,-26.796905517578125,-125.45718383789062,-273.83074951171875
1699734702,-14.816339263916015,7.057224426269531,1.6449293518066408,0.0679622739553451,0.3927502036094665,0.0246366374194622,-26.834442138671875,-125.55763244628906,-274.2296142578125
1699734702,-15.293846282958985,8.007298736572267,1.6444802856445313,0.1655165255069732,0.2170657366514206,0.0466101132333278,-27.06039428710937,-125.4888916015625,-275.05670166015625
1699734702,-14.93908401489258,9.140891418457032,0.5167254638671875,0.2050476968288421,-0.3269522786140442,0.021436583250761,-27.28826904296875,-125.87371826171876,-274.6444091796875
1699734702,-13.628259887695313,9.826465759277344,-0.6939569091796876,0.2028798758983612,-0.9558007717132568,-0.0160668510943651,-27.186309814453125,-126.01097106933594,-274.4459228515625
1699734702,-11.84666473388672,9.65582061767578,-1.4051280212402344,0.1634837388992309,-1.4911742210388184,-0.0105274757370352,-27.361099243164062,-126.15077209472656,-274.1822509765625
1699734703,-10.70184539794922,9.38937469482422,-1.7607884216308594,0.0936402082443237,-1.8750624656677248,0.0198200438171625,-27.45619201660156,-126.16195678710938,-274.599609375
1699734703,-10.15188903808594,9.53502182006836,-1.8169216918945312,0.0008679241873323,-2.078508377075196,0.0745085924863815,-27.557937622070312,-126.70368957519533,-273.56793212890625
1699734703,-9.666448516845705,9.646539916992188,-1.422342224121094,-0.1368124485015869,-2.142339944839477,0.1511415839195251,-27.846847534179688,-127.19479370117188,-273.25958251953125
1699734703,-8.987460479736328,9.762548675537111,-0.6167175292968751,-0.3422870337963104,-2.158935785293579,0.1924799680709839,-27.51644897460937,-126.72306823730467,-272.394287109375
1699734703,-7.977510681152344,9.760453033447265,0.5168751525878906,-0.6579321026802063,-2.199984550476074,0.1165772154927253,-27.84967041015625,-126.98724365234376,-271.576904296875
1699734703,-6.947801971435547,9.664352874755862,1.8396743774414064,-1.094404220581055,-2.2641024589538574,-0.0417975150048732,-28.070556640625,-127.00411987304688,-270.82818603515625
1699734703,-6.954088897705079,9.74338851928711,3.235372009277344,-1.6098345518112185,-2.232956886291504,-0.2590589821338653,-28.349380493164062,-127.1626434326172,-269.6874389648437
1699734703,-7.986042938232422,10.086774444580078,4.315974884033204,-2.1429715156555176,-2.119744062423706,-0.4621873497962951,-28.309494018554688,-127.45266723632812,-268.1221618652344
1699734703,-9.378597106933594,9.844727783203126,4.690196685791016,-2.662898063659668,-1.9559919834136963,-0.5787706971168518,-28.59332275390625,-127.86677551269533,-266.69317626953125
1699734703,-10.347681884765626,8.734336853027344,4.315525817871094,-3.138400316238404,-1.813332200050354,-0.6284511685371399,-28.851043701171875,-127.91546630859376,-265.03143310546875
1699734703,-10.683283996582032,7.416327667236328,3.090623016357422,-3.5251832008361816,-1.7320972681045532,-0.6726303100585938,-28.551239013671875,-128.41717529296875,-263.077880859375
1699734703,-10.52281768798828,6.701863403320313,1.6525634765625,-3.689723491668701,-1.5400959253311155,-0.8192389607429504,-29.245925903320312,-128.8218994140625,-261.6844787597656
1699734703,-9.670340423583983,6.552623748779297,0.8232879638671875,-3.586907148361206,-1.0086408853530884,-1.134249567985535,-29.05035400390625,-129.48756408691406,-259.8048400878906
1699734703,-9.164991302490236,6.595584411621094,0.3534150695800781,-3.20397424697876,-0.3008874058723449,-1.447797417640686,-29.25253295898437,-130.5513458251953,-258.773681640625
1699734703,-9.2208251953125,6.535409545898438,-0.1725910949707031,-2.6642656326293945,0.4354641139507293,-1.5920590162277222,-29.40365600585937,-131.72340393066406,-257.7453308105469
1699734703,-9.300010528564451,6.383774871826172,-0.961450653076172,-2.097918748855591,0.9225722551345824,-1.5966103076934814,-30.284225463867188,-132.5898895263672,-257.3233642578125
1699734703,-9.044641571044924,6.26342514038086,-2.14878158569336,-1.5821893215179443,0.8906510472297668,-1.54179584980011,-30.76107788085937,-133.84371948242188,-256.6439819335937
1699734703,-8.749754791259766,6.200256500244141,-3.0289512634277345,-1.226263165473938,0.4080767035484314,-1.4421513080596924,-31.24517822265625,-134.3965301513672,-256.9822082519531
1699734703,-8.14306640625,5.950725402832031,-3.2971934509277347,-1.050374984741211,-0.3806975483894348,-1.29081928730011,-31.589157104492188,-135.1134033203125,-256.508056640625
1699734703,-7.230264587402344,5.65030014038086,-2.8590545654296875,-1.0302188396453855,-1.2219709157943726,-1.1174099445343018,-31.641326904296875,-135.8899383544922,-256.4066162109375
1699734703,-6.306685180664063,5.284909973144532,-2.173180847167969,-1.060182809829712,-1.978827714920044,-1.0040866136550903,-32.168426513671875,-136.64224243164062,-255.9506378173828
1699734703,-5.514831848144532,4.930447082519532,-0.8437953186035156,-1.0044325590133667,-2.400946140289306,-0.9595499634742736,-31.974151611328125,-136.90753173828125,-255.2095489501953
1699734703,-4.9793952941894535,5.051245880126953,2.108665008544922,-0.7278280854225159,-2.348072290420532,-0.9795247316360474,-31.991012573242188,-137.7322235107422,-253.6853485107422
1699734703,-5.205125885009766,5.284311218261719,5.27143798828125,-0.3530696332454681,-1.9882556200027464,-1.005258083343506,-32.009033203125,-138.58712768554688,-252.5946655273437
1699734703,-6.120173034667969,4.828059997558594,6.172564086914063,-0.0119767682626843,-1.941713094711304,-1.140493631362915,-31.5111083984375,-138.85354614257812,-251.9754943847656
1699734703,-7.24014404296875,4.001029815673828,5.203628997802735,0.0173779241740703,-2.1752865314483643,-1.324293851852417,-31.508377075195312,-139.5880584716797,-251.5167236328125
1699734703,-8.412805480957031,3.529061279296875,4.228856048583984,-0.1556335389614105,-2.4613049030303955,-1.5546330213546753,-31.8228759765625,-140.2271270751953,-250.9069366455078
1699734703,-8.557704162597657,3.5175352478027344,3.4615516662597656,-0.225962832570076,-2.615065336227417,-1.7454218864440918,-31.49327087402344,-141.04739379882812,-249.27362060546875
1699734703,-7.982300720214844,3.562741241455078,2.2864952087402344,-0.0940404757857322,-2.6004483699798584,-1.782006025314331,-31.274093627929688,-141.65797424316406,-249.2747039794922
1699734703,-7.242089996337891,3.299438781738281,0.9984237670898438,0.1395160853862762,-2.398895263671875,-1.6005553007125854,-31.253097534179688,-142.3412322998047,-248.23654174804688
1699734703,-6.53166732788086,2.839595031738281,-0.0555345153808593,0.2738091647624969,-2.164135456085205,-1.2673264741897583,-31.29541015625,-142.88975524902344,-247.0391845703125
1699734703,-5.571563873291016,2.420167236328125,-0.8503816223144531,0.2639280557632446,-2.0368332862854004,-0.9509570002555848,-30.8470458984375,-144.0315399169922,-246.2973480224609
1699734703,-4.392316131591797,2.218835906982422,-1.1810440063476564,0.1731355637311935,-2.134789228439331,-0.7220045328140259,-30.57452392578125,-143.8248748779297,-245.6292266845703
1699734703,-3.3726365661621096,2.365381164550781,-0.9108558654785156,0.0535202175378799,-2.2735044956207275,-0.5704810619354248,-30.14727783203125,-143.96128845214844,-244.8809967041016
1699734703,-2.465822296142578,2.664159851074219,0.3131488037109375,0.0045153894461691,-2.168966293334961,-0.4904219210147857,-30.13584899902344,-144.30589294433594,-244.28298950195312
1699734703,-1.5859519958496096,3.152893524169922,2.1639001464843752,0.0458897277712821,-1.7898812294006348,-0.4834385812282562,-29.53819274902344,-144.6983642578125,-243.2388610839844
1699734703,-0.942589874267578,3.628753967285157,3.340453491210938,0.1047658249735832,-1.350751876831055,-0.4973945915699005,-29.156265258789062,-144.76034545898438,-243.03208923339844
1699734703,-0.7198530578613281,3.983216857910156,3.5655853271484377,0.1520206928253173,-0.9884505867958068,-0.4870202541351318,-29.09033203125,-145.00697326660156,-242.54205322265625
1699734703,-0.7514373779296876,4.176614685058594,3.4811608886718752,0.2104467153549194,-0.7069150805473328,-0.4898631870746612,-29.00746154785156,-145.58807373046875,-242.47531127929688
1699734703,-0.8689430236816407,4.139042816162109,3.2301329040527347,0.2958002388477325,-0.4664124548435211,-0.5406715273857117,-28.73204040527344,-145.84878540039062,-242.594482421875
1699734703,-1.1799961853027343,3.811673583984376,3.087479553222656,0.3928271830081939,-0.2576999962329864,-0.6223525404930115,-29.11767578125,-145.5406036376953,-242.4791412353516
1699734703,-1.988614654541016,3.051105194091797,3.331322479248047,0.5207622647285461,-0.1059072613716125,-0.5961903929710388,-28.572525024414062,-146.0048828125,-242.1416931152344
1699734703,-3.463347930908203,1.8413209533691408,3.757635955810547,0.6563219428062439,-0.0691343322396278,-0.4418626427650451,-28.7855224609375,-145.80592346191406,-242.27957153320312
1699734703,-4.466412048339844,0.8409512329101563,4.204456787109375,0.7771844267845154,-0.0886638239026069,-0.2189328819513321,-29.11117553710937,-145.77426147460938,-242.37168884277344
1699734703,-4.828059997558594,0.1631607055664062,4.820126495361328,0.8306998610496521,-0.0321092009544372,0.0143256764858961,-29.310577392578125,-145.84584045410156,-242.5906524658203
1699734703,-4.976551208496094,-0.2469863891601562,5.382507019042969,0.8294950723648071,0.1617681235074997,0.2167922258377075,-28.91326904296875,-145.55223083496094,-242.77603149414065
1699734703,-5.243895263671876,-0.4799020385742187,5.77244613647461,0.8664040565490723,0.363912969827652,0.3520869314670563,-29.11933898925781,-145.6643524169922,-242.5120849609375
1699734703,-5.587730255126953,-0.5355862426757813,5.761219482421875,0.8588579893112183,0.8233588337898254,0.3703927099704742,-28.874496459960938,-145.00050354003906,-243.73162841796875
1699734703,-6.097420349121094,-0.3824546813964844,5.336253204345703,0.8694525957107544,1.6329931020736694,0.3293621838092804,-29.124038696289062,-144.65008544921875,-243.8236846923828
1699734703,-6.840325469970703,-0.0815803527832031,4.81159423828125,0.8882848620414734,2.570530414581299,0.3614809811115265,-29.60801696777344,-144.157470703125,-244.65689086914065
1699734703,-7.848628692626954,0.4652325439453125,4.078418884277344,0.9199450612068176,3.2857484817504883,0.5484894514083862,-30.15338134765625,-144.10934448242188,-245.5122985839844
1699734703,-8.915909271240237,1.40108642578125,3.425326995849609,0.9327551126480104,3.762309074401856,0.9427515864372252,-30.461212158203125,-143.8859100341797,-247.13096618652344
1699734703,-9.637857971191409,2.8021728515625,2.65607666015625,0.9774171113967896,3.843270063400269,1.4097744226455688,-31.241943359375,-143.1070098876953,-249.4210968017578
1699734703,-9.419013061523438,4.391867065429688,1.810634765625,0.8397801518440247,3.0658743381500244,1.6649142503738403,-31.63461303710937,-142.22662353515625,-250.35379028320312
1699734703,-9.073381805419924,6.786736907958985,3.949087829589844,0.3658623993396759,1.3633188009262085,1.665607213973999,-31.466964721679688,-141.6394805908203,-251.73895263671875
1699734703,-9.960287475585938,10.85078567504883,11.376941528320312,0.5271847248077393,0.6586530208587646,1.6290167570114136,-31.81689453125,-141.23764038085938,-252.7058563232422
1699734703,-11.651171264648438,13.622272338867187,10.832373962402343,1.3742291927337646,0.9794898629188538,1.3048192262649536,-31.475982666015625,-140.3615264892578,-253.1182098388672
1699734703,-13.612542572021486,13.825100555419922,4.376000061035157,2.0570943355560303,1.4259741306304932,0.5862770676612854,-31.34579467773437,-139.5916290283203,-253.7685089111328
1699734703,-15.162718963623048,14.067745971679688,1.3921051025390625,1.7650244235992432,1.297261118888855,-0.2735788226127624,-31.661163330078125,-139.0771026611328,-254.3612365722656
1699734703,-17.22587860107422,13.071717224121096,-0.8976832580566406,0.4685395061969757,0.5832711458206177,-0.6871634721755981,-31.81552124023437,-139.27561950683594,-255.8603515625
1699734703,-17.993033294677737,9.196575622558594,-0.9177415466308594,-0.2606867253780365,0.4182159006595611,-0.2614526450634002,-31.80537414550781,-139.3623504638672,-255.34376525878903
