timestamp,acc-x,acc-y,acc-z,gyr-x,gyr-y,gyr-z,mag-x,mag-y,mag-z
1699734491,-1.196312255859375,-0.743653564453125,-6.556365966796875,0.5253122448921204,0.1632222086191177,1.2270879745483398,23.4884033203125,-170.4936981201172,-309.28271484375
1699734491,-2.721939697265625,-0.5174739074707031,-6.055357818603516,1.5537643432617188,-0.1111241206526756,1.1842262744903564,23.840087890625,-171.61410522460938,-309.15386962890625
1699734491,-3.263363800048828,-0.6390211486816406,-5.126090240478516,2.472846746444702,-0.1465753316879272,0.994869351387024,23.85566711425781,-173.0503387451172,-309.126220703125
1699734491,-2.5370741271972657,-0.3818559265136719,-4.56296127319336,3.226651430130005,-0.2619698345661163,0.7193530797958374,23.089019775390625,-174.52281188964844,-308.37255859375
1699734491,-0.7265890502929688,0.2157014465332031,-6.155499572753906,3.4695067405700684,-1.1978682279586792,0.1791202127933502,22.784927368164062,-175.6541748046875,-308.7723693847656
1699734491,3.1762449645996096,-1.0240205383300782,-12.021351470947266,3.0106570720672607,-2.778661727905273,-0.5939490795135498,21.60626220703125,-176.69790649414062,-309.05780029296875
1699734491,5.979166259765625,-2.891387329101563,-13.799803161621094,2.4001193046569824,-3.52842664718628,-1.0039321184158323,20.170440673828125,-177.45834350585938,-309.05419921875
1699734491,2.6565257263183595,-2.931054840087891,-10.69091812133789,1.8212146759033203,-3.3374834060668945,-1.103752374649048,19.33456420898437,-178.27810668945312,-309.18505859375
1699734491,-0.5608836364746094,-2.7092161560058594,-9.36737045288086,0.7033629417419434,-1.8653699159622192,-1.097140550613403,19.13314819335937,-178.07861328125,-308.97918701171875
1699734491,-1.6441809082031251,-2.868934020996094,-8.64691864013672,0.043690487742424,-0.6406462788581848,-1.1306008100509644,19.087310791015625,-178.0488739013672,-308.674560546875
1699734491,-3.318598937988281,-3.851490783691408,-8.00176025390625,-0.508831799030304,1.0673853158950806,-1.0705755949020386,19.6156005859375,-177.39198303222656,-308.8963623046875
1699734491,-4.641547851562501,-4.574786682128907,-9.109157409667969,-0.7302579283714294,2.006903171539306,-0.9296983480453492,20.63238525390625,-177.06640625,-309.0098876953125
1699734491,-4.885091400146485,-3.9436990356445314,-10.611433410644532,-0.7359176874160767,2.2743465900421143,-0.8555679321289062,21.84754943847656,-176.6329345703125,-308.41583251953125
1699734491,-4.562212829589844,-3.047662353515625,-11.166778564453123,-0.579201340675354,2.1767473220825195,-0.910137176513672,23.2281494140625,-176.64012145996094,-308.3192749023437
1699734491,-3.761677551269532,-3.022364959716797,-10.776839447021484,-0.517708420753479,1.7575379610061646,-1.0472785234451294,23.51971435546875,-176.23831176757812,-308.1189270019531
1699734491,-2.638712768554688,-4.055965576171875,-9.43727508544922,-0.6584569811820984,1.240753173828125,-1.232592225074768,24.73670959472656,-175.9566192626953,-308.2367553710937
1699734491,-1.6169375610351564,-5.06546630859375,-8.14635955810547,-1.0515776872634888,0.7848562002182007,-1.4800808429718018,25.11669921875,-175.25135803222656,-308.40753173828125
1699734491,-0.4381388854980469,-5.345982971191407,-8.035739593505859,-1.5075161457061768,0.2128161340951919,-1.675023913383484,25.10040283203125,-174.65869140625,-308.7473449707031
1699734491,0.5837860107421875,-5.70254150390625,-9.548344116210938,-1.6015517711639404,-0.3928423523902893,-1.6904404163360596,24.623016357421875,-173.94192504882812,-308.6854858398437
1699734491,0.9355545043945312,-5.386548614501954,-10.142308959960936,-1.194944977760315,-0.478453129529953,-1.6096360683441162,24.968994140625,-172.93919372558594,-308.70635986328125
1699734491,0.0336799621582031,-4.184248809814453,-8.504115600585937,-0.4675493538379669,-0.0215649474412202,-1.545476317405701,24.87876892089844,-172.67958068847656,-308.19439697265625
1699734491,-1.107696533203125,-3.548820190429688,-7.638316040039063,0.2917399704456329,0.2509206533432007,-1.4908908605575562,25.648025512695312,-172.75099182128906,-309.14813232421875
1699734491,-1.3216017150878907,-3.9010377502441407,-9.071136474609377,0.8507124781608582,-0.0453384518623352,-1.419856071472168,25.464614868164062,-173.28756713867188,-308.6934814453125
1699734491,-0.7098239135742188,-4.259841613769532,-10.856473846435549,1.1112045049667358,-0.5038905739784241,-1.3505481481552124,25.43251037597656,-173.37071228027344,-308.6497802734375
1699734491,0.5022056579589844,-3.441044311523437,-9.95983840942383,0.8124550580978394,-0.1972614079713821,-1.177446365356445,25.710235595703125,-173.33570861816406,-308.5739440917969
1699734491,1.5307168579101564,-2.917882232666016,-9.10781021118164,0.0796373039484024,0.0318841636180877,-0.7346398830413818,25.608917236328125,-173.44671630859375,-308.4312744140625
1699734491,1.5232324218750002,-2.310295715332032,-10.479108581542969,-0.4719539582729339,0.2314678430557251,-0.3083157539367676,26.04454040527344,-172.9111328125,-309.0634155273437
1699734491,0.3912863159179687,-2.3737637329101564,-9.290280761718751,-0.6974451541900635,0.2613775432109833,-0.0713793709874153,25.986572265625,-173.4093475341797,-308.73541259765625
1699734491,0.5291496276855469,-2.8093579101562502,-9.389225006103516,-0.7068793773651123,0.075224183499813,0.0011275823926553,25.644119262695312,-172.8212432861328,-308.88037109375
1699734491,1.263223114013672,-2.863844604492188,-9.497150573730467,-0.574127733707428,-0.2017533630132675,0.0604388415813446,25.778778076171875,-172.167236328125,-308.8317565917969
1699734491,0.5327421569824219,-3.026107177734376,-9.803413696289065,-0.3542917668819427,-0.4875385165214538,0.0754513442516326,25.568344116210938,-172.475341796875,-309.40643310546875
1699734491,-0.0908610534667968,-2.84962417602539,-9.791438598632814,-0.0952652692794799,-0.4416445195674896,-0.077023409307003,25.215408325195312,-172.49949645996094,-308.9788818359375
1699734491,-0.2041754150390625,-1.8839822387695315,-9.34342025756836,-0.0046370960772037,-0.3143539428710937,-0.5639885663986206,25.155197143554688,-172.44581604003906,-309.7557983398437
1699734491,-0.4628375244140625,-0.180823974609375,-9.971214752197266,-0.1508206725120544,-0.4045370817184448,-0.9717890620231628,25.299087524414062,-172.08302307128906,-308.81640625
1699734491,0.6500981140136719,-1.304237823486328,-9.73425750732422,-0.5027099847793579,-0.4424290955066681,-0.9462006092071532,25.43916320800781,-171.91192626953125,-308.89068603515625
1699734491,-0.4668791198730469,-3.150498504638672,-9.669741668701173,-0.8841798901557922,-0.4696729481220245,-0.623811662197113,25.192459106445312,-171.7429962158203,-309.7413330078125
1699734491,-0.8747808837890625,-3.046315155029297,-9.631121978759763,-1.2120453119277954,-0.3909616470336914,-0.3182370960712433,25.23530578613281,-171.2943115234375,-309.95037841796875
1699734491,-0.4848417663574219,-2.1465362548828124,-8.609197082519533,-1.449150800704956,-0.0140710780397057,-0.2066740840673446,24.92538452148437,-170.364013671875,-309.8451232910156
1699734491,1.128503265380859,-2.15836166381836,-8.9524333190918,-1.46767258644104,0.5228679776191711,-0.2268448621034622,25.46180725097656,-169.73826599121094,-309.667236328125
1699734491,1.033301239013672,-3.124602355957032,-8.783285064697266,-1.261971116065979,0.7969666719436646,-0.2858919501304626,25.630538940429688,-169.3194580078125,-309.37176513671875
1699734491,0.2408491516113281,-3.2266900634765627,-8.768914947509765,-0.918132781982422,0.5641627311706543,-0.4481040239334106,26.052886962890625,-169.0870361328125,-309.6499938964844
1699734491,0.77838134765625,-2.242636413574219,-9.146280212402344,-0.5553907752037048,0.2347453981637954,-0.6743049025535583,25.75888061523437,-168.68521118164062,-310.0667724609375
1699734491,1.3190570068359375,-1.7323475646972657,-9.159153442382811,-0.2292379736900329,-0.1406537890434265,-0.8260920643806458,25.9984130859375,-168.3540802001953,-309.633544921875
1699734491,1.1764036560058595,-1.8839822387695315,-9.210197296142578,-0.0067806742154061,-0.6111006736755371,-0.8971680998802185,25.8680419921875,-168.24949645996094,-309.6542663574219
1699734492,1.2063414001464845,-1.9965481567382808,-9.486522674560549,0.0343726202845573,-0.882934033870697,-0.8892028331756592,25.411041259765625,-168.16500854492188,-309.757080078125
1699734492,1.0636880493164065,-2.3439756774902345,-9.683213653564453,-0.0317715108394622,-1.203919529914856,-0.8415972590446472,24.896942138671875,-168.02972412109375,-310.6543273925781
1699734492,0.8665480041503907,-2.242486724853516,-9.654623107910156,-0.1674177497625351,-1.441015362739563,-0.8496469259262085,24.618316650390625,-168.0464630126953,-310.4833068847656
1699734492,0.7455995178222656,-1.8878741455078123,-9.169332275390625,0.1455854326486587,-0.9184600710868835,-0.6618586182594299,24.192428588867188,-168.22903442382812,-310.2792053222656
1699734492,0.7381150817871094,-3.038381652832032,-9.208550720214845,0.5684759616851807,-0.7707363963127136,-0.5253897309303284,24.03143310546875,-168.4890899658203,-310.1933288574219
1699734492,-0.5715115356445313,-2.2836511230468752,-9.710007934570314,0.8399575352668762,-0.6946884989738464,-0.5122917890548706,23.39295959472656,-168.9547119140625,-310.243408203125
1699734492,-0.223934326171875,-0.8497828674316407,-10.124945068359375,0.7481805086135864,-0.4444171488285064,-0.5044456124305725,23.6260986328125,-168.9775848388672,-310.443115234375
1699734492,-0.1743873596191406,-1.229543151855469,-9.91867401123047,0.4344979226589203,-0.1480224877595901,-0.4510412216186523,23.65875244140625,-168.8601531982422,-309.87890625
1699734492,0.0483494567871093,-2.178869018554688,-9.634864196777343,0.0564571507275104,0.0959608852863311,-0.3489396274089813,23.93881225585937,-169.008056640625,-310.2897033691406
1699734492,0.2983296203613281,-2.7644512939453127,-9.52065170288086,-0.2654926478862762,0.3558907210826874,-0.3134844303131103,23.79136657714844,-168.66012573242188,-309.8780822753906
1699734492,0.5843847656250001,-2.704126739501953,-9.682764587402344,-0.4295023679733276,0.3833721578121185,-0.3285243511199951,24.21026611328125,-168.6838836669922,-310.1065673828125
1699734492,0.0570314025878906,-2.4695645141601563,-9.779014434814451,-0.3472423851490021,0.3745653629302978,-0.441581666469574,24.4229736328125,-168.40487670898438,-310.326416015625
1699734492,-0.0591270446777343,-2.287093963623047,-9.449399871826174,-0.1060529351234436,0.239824578166008,-0.6312251091003418,24.187759399414062,-168.0442657470703,-310.3702392578125
1699734492,0.0977467346191406,-1.9199075317382808,-9.4026969909668,0.2012425661087036,0.0319142565131187,-0.778480589389801,24.505630493164062,-168.182373046875,-309.8880615234375
1699734492,0.4206253051757813,-2.0712428283691406,-9.132359161376952,0.3687466084957123,-0.1957157105207443,-0.7130975723266602,24.40693664550781,-168.36907958984375,-310.45123291015625
1699734492,0.2601589965820313,-2.3153851318359377,-9.570498046875,0.3418039381504059,-0.5120752453804016,-0.4742674529552459,24.1270751953125,-168.380859375,-310.34442138671875
1699734492,0.3061134338378906,-2.541864166259766,-9.613907775878909,0.3226177394390106,-0.5283056497573853,-0.2757556736469269,24.135528564453125,-168.64369201660156,-310.17340087890625
1699734492,1.00830322265625,-3.3033306884765627,-8.541986846923828,0.2749636471271515,-0.5744835138320923,-0.1449667811393737,23.91830444335937,-168.82896423339844,-310.7040405273437
1699734492,0.0053887939453125,-2.3775059509277345,-9.410031738281251,0.2700543999671936,-0.4094756543636322,-0.0664306879043579,23.635787963867188,-168.5193328857422,-310.6350402832031
1699734492,-0.3477268981933594,-2.4174728393554688,-9.33818115234375,0.2812934517860412,-0.121718443930149,-0.0285530816763639,23.789352416992188,-168.87448120117188,-310.3646850585937
1699734492,-0.6893165588378907,-2.542462921142578,-9.872420196533204,0.3754223585128784,0.2163014113903045,-0.0066203521564602,24.180007934570312,-169.43919372558594,-310.2423095703125
1699734492,-0.6340814208984376,-2.6878106689453127,-10.14141082763672,0.39802086353302,0.1968560665845871,-0.0847726762294769,24.07577514648437,-169.5269012451172,-310.0745544433594
1699734492,-0.04550537109375,-2.7307713317871096,-10.01926483154297,0.4840835928916931,-0.0825271010398864,-0.2160934209823608,23.669906616210938,-169.89688110351562,-310.47442626953125
1699734492,-0.0140707397460937,-2.827919311523438,-9.708361358642575,0.5375729203224182,-0.4614073038101196,-0.263298749923706,23.892654418945312,-170.01144409179688,-310.72271728515625
1699734492,-0.1695973205566406,-3.0096414184570315,-9.53307586669922,0.4823815524578094,-0.658628523349762,-0.2393073886632919,23.06723022460937,-169.8275146484375,-310.073974609375
1699734492,-0.3314108276367187,-3.149300994873047,-9.4603271484375,0.32457435131073,-0.7094615697860718,-0.2286467552185058,22.951324462890625,-170.3069305419922,-310.5252685546875
1699734492,-0.6965016174316406,-3.0764025878906254,-9.292077026367188,0.1999338865280151,-0.6492837071418762,-0.304282397031784,22.47882080078125,-170.28530883789062,-310.6493530273437
1699734492,-1.1367361450195312,-3.0121861267089844,-9.270072784423828,0.1398766785860061,-0.4767939746379852,-0.4381912052631378,22.320724487304688,-170.23983764648438,-310.658447265625
1699734492,-1.3394146728515626,-2.820883941650391,-9.3595866394043,0.0413008332252502,-0.2150832861661911,-0.476698637008667,22.6610107421875,-169.97109985351562,-310.8433837890625
1699734492,-1.4178515625,-2.267784118652344,-9.562714233398438,0.029798375442624,0.0135243311524391,-0.4414058923721313,22.49238586425781,-169.9462432861328,-310.3065185546875
1699734492,-1.457219696044922,-2.0435504150390624,-9.614207153320312,0.1633074283599853,-0.0176897812634706,-0.4422679543495178,22.943374633789062,-169.8957977294922,-310.6244812011719
1699734492,-1.409319305419922,-2.1700373840332032,-9.43068878173828,0.26143479347229,-0.2652524411678314,-0.4062769412994385,22.784576416015625,-169.89268493652344,-310.43701171875
1699734492,-1.4081217956542968,-2.471809844970703,-9.127718811035155,0.2036093175411224,-0.4099023044109344,-0.3197284638881683,22.30014038085937,-169.78662109375,-310.7204284667969
1699734492,-1.5847544860839844,-2.5975483703613285,-8.684640197753907,0.0538318045437336,-0.3453243672847748,-0.2241513431072235,22.405792236328125,-169.90701293945312,-310.56939697265625
1699734492,-1.8922151184082032,-2.6457481384277344,-8.332123260498047,-0.0673329681158065,-0.1895166635513305,-0.0458263456821441,22.328155517578125,-169.917236328125,-310.70526123046875
1699734492,-1.9453546142578129,-3.0566436767578127,-7.683222656250001,-0.2833672761917114,0.2103609591722488,0.2892363369464874,22.523971557617188,-170.14857482910156,-310.41845703125
1699734492,-1.9959494018554689,-1.4221925354003906,-6.069129180908203,-0.931577444076538,0.6625809073448181,0.6675929427146912,22.657745361328125,-169.7971649169922,-310.550537109375
1699734492,-2.1459375,-0.9572593688964844,-7.539222106933594,-0.9967926740646362,0.4049443006515503,1.3148510456085205,22.732833862304688,-169.1959686279297,-310.88629150390625
1699734492,-2.5370741271972657,-4.762646026611328,-5.069956970214844,-0.7129108905792236,-0.2648423016071319,1.5974178314208984,22.548614501953125,-169.18557739257812,-310.7110900878906
1699734492,-2.754871215820313,-3.207080841064453,-4.960384826660157,-0.2460049837827682,-0.975660502910614,1.1015135049819946,22.01544189453125,-168.96417236328125,-311.3138427734375
1699734492,-2.325264587402344,-1.0918295288085935,-2.8897407531738284,0.2789128720760345,-1.5602296590805054,0.4567491710186004,21.44549560546875,-168.98606872558594,-311.6169128417969
1699734492,-3.669020233154297,-1.288071441650391,-2.612517242431641,0.5678714513778687,-2.037430047988892,0.0886744782328605,20.56185913085937,-169.95712280273438,-311.6983642578125
1699734492,-4.096830596923828,-1.658551025390625,-2.70397705078125,0.6331630945205688,-2.44123649597168,0.0303541775792837,19.50250244140625,-170.16912841796875,-311.8617553710937
1699734492,-4.528383178710937,-1.3274395751953123,-2.382146301269531,0.4587473273277282,-2.739055871963501,0.1855341792106628,18.49232482910156,-170.32337951660156,-311.1187744140625
1699734492,-4.925058288574219,-0.686173095703125,-2.188748474121094,0.0836317762732505,-2.829834222793579,0.3737360537052154,16.88775634765625,-170.18939208984375,-311.9317626953125
1699734492,-4.994813232421875,-0.1299298095703125,-2.2950274658203127,-0.3859221339225769,-2.9275481700897217,0.5364061594009399,16.102584838867188,-170.00027465820312,-312.0953674316406
1699734492,-5.172793121337891,0.4752616882324219,-2.4923171997070312,-0.7885308265686035,-3.0483853816986084,0.6662898659706116,14.290863037109377,-169.41180419921875,-312.4481811523437
1699734492,-4.797673187255859,0.8297245788574219,-2.2079086303710938,-1.1164271831512451,-3.376070261001587,0.8696187734603882,13.155975341796877,-169.6968536376953,-312.93865966796875
1699734492,-4.7907875061035154,1.312470703125,-2.791544952392578,-1.3285408020019531,-3.976062536239624,1.1385385990142822,11.118392944335938,-168.82308959960938,-313.1961669921875
1699734492,-4.604275360107422,1.9931053161621093,-2.927761688232422,-1.3817014694213867,-4.845794200897217,1.3843170404434204,8.936248779296875,-168.37277221679688,-313.544189453125
1699734492,-4.3924658203125,2.565215606689453,-2.882106628417969,-1.3247082233428955,-5.8973917961120605,1.648707389831543,6.3929443359375,-167.98574829101562,-312.60675048828125
1699734492,-4.240082702636719,3.4585578918457034,-3.2467483520507816,-1.1763075590133667,-7.02281379699707,1.8846226930618288,3.156829833984375,-167.60751342773438,-312.6719970703125
1699734492,-4.478536834716797,4.199966125488282,-3.5247203063964845,-0.9629311561584472,-8.098475456237793,2.10310173034668,-0.833221435546875,-167.18893432617188,-312.224853515625
1699734492,-5.193749542236328,4.567152557373047,-4.206702117919922,-0.7571606636047363,-9.05610179901123,2.356074094772339,-4.645278930664063,-166.2183074951172,-311.33135986328125
1699734492,-5.574258270263672,5.051844635009766,-5.395080871582032,-0.596915066242218,-9.752147674560549,2.6048974990844727,-8.864227294921875,-165.97401428222656,-310.00994873046875
1699734492,-6.856342163085938,5.449268188476562,-6.454278259277344,-0.5225023627281189,-9.887471199035645,2.9408986568450928,-12.847976684570312,-165.0904083251953,-308.16021728515625
1699734492,-8.95213394165039,5.763764190673829,-7.301217041015625,-0.5024053454399109,-9.53207015991211,3.30752944946289,-16.159347534179688,-164.16848754882812,-306.6380310058594
1699734492,-9.8818505859375,6.448739776611329,-7.589218139648437,-0.4457063674926758,-8.996411323547363,3.688403606414795,-19.55830383300781,-163.0471649169922,-304.03094482421875
1699734492,-10.351124725341798,7.054380340576172,-7.473658447265626,-0.2187959849834442,-8.398931503295898,4.099214553833008,-22.237762451171875,-162.35581970214844,-301.9073486328125
1699734492,-10.897039489746094,7.105274505615235,-6.867868194580079,0.2120342254638672,-7.87396764755249,4.495880126953125,-24.161865234375,-160.66297912597656,-299.2029113769531
1699734492,-11.351195068359376,7.206164703369141,-6.439608764648438,0.7622883319854736,-7.346710205078125,4.7147955894470215,-26.56336975097656,-159.30201721191406,-297.0536193847656
1699734492,-12.320279846191406,7.188052368164063,-6.179000701904298,1.2519022226333618,-6.470548152923584,4.673848628997803,-27.455642700195312,-158.03199768066406,-295.2057800292969
1699734492,-13.488300933837891,7.000193023681641,-6.303242340087891,1.542021632194519,-5.3041157722473145,4.429450511932373,-28.44087219238281,-157.16746520996094,-293.697021484375
1699734492,-14.453044738769533,6.338568878173828,-6.74961410522461,1.5571454763412476,-4.062986373901367,4.173378944396973,-29.228439331054688,-156.43142700195312,-292.7345886230469
1699734492,-15.599959716796876,5.119354248046875,-7.461383972167969,1.2383525371551514,-2.852055788040161,4.011319637298584,-29.079666137695312,-155.00411987304688,-292.9022216796875
1699734492,-15.852484588623048,4.270020446777344,-8.249794464111329,0.6314330697059631,-1.7085624933242798,3.9043610095977774,-29.19296264648437,-153.60890197753906,-292.69366455078125
1699734492,-15.64187255859375,4.237987060546876,-8.47642318725586,-0.0935331434011459,-0.6870359182357788,3.79709267616272,-28.487762451171875,-152.0167694091797,-292.335693359375
1699734492,-15.51343963623047,4.911586303710938,-7.915240173339844,-0.7244485020637512,0.0678344443440437,3.701275587081909,-28.34681701660156,-150.563232421875,-292.6017150878906
1699734492,-15.259866943359375,5.435945892333985,-7.176077270507813,-1.1228227615356443,0.413219004869461,3.5633933544158936,-27.427902221679688,-149.04339599609375,-293.23004150390625
1699734492,-15.08907211303711,5.552553405761719,-6.923402709960937,-1.2603614330291748,0.4078045189380646,3.39783787727356,-26.740280151367188,-147.2841033935547,-293.1153869628906
1699734492,-15.07604919433594,5.705535278320313,-6.681805114746094,-1.1283224821090698,0.2554030120372772,3.251201629638672,-25.634353637695312,-146.4980010986328,-293.5111694335937
1699734492,-15.262261962890626,5.721551971435547,-5.7895106506347656,-0.694201648235321,-0.0321275778114795,3.096253156661988,-24.966323852539062,-144.9962615966797,-294.085693359375
1699734492,-14.842085723876954,5.663323059082032,-4.672084350585938,-0.0104270745068788,-0.4823754429817199,2.820441007614136,-24.73936462402344,-143.76596069335938,-294.15069580078125
1699734492,-14.742991790771486,5.370831298828126,-3.764821014404297,0.8255833983421326,-0.8700352907180786,2.484405279159546,-24.5465087890625,-143.00018310546875,-294.3552551269531
1699734492,-15.237862701416017,4.874164123535157,-3.0023066711425783,1.6185632944107056,-1.1691570281982422,2.0286967754364014,-24.3865966796875,-143.3661346435547,-293.62078857421875
1699734492,-15.093712463378909,4.410278778076172,-3.604205017089844,2.126009225845337,-1.2852554321289062,1.5605032444000244,-24.31752014160156,-143.08453369140625,-294.0784606933594
1699734492,-15.806679840087892,4.41881103515625,-4.2574465942382815,2.339507341384888,-1.0659080743789673,1.1280388832092283,-24.245147705078125,-143.1242218017578,-294.1810302734375
1699734492,-15.214211883544923,4.885989532470704,-4.335883483886719,2.4006333351135254,-0.644585132598877,0.7265343070030212,-24.373931884765625,-143.49041748046875,-294.708251953125
1699734492,-15.145804138183594,4.42884017944336,-4.166735229492188,2.539538145065308,0.0288223270326852,0.4639421105384826,-23.898025512695312,-143.641845703125,-295.336669921875
1699734492,-15.468832397460938,4.700076141357422,-3.4323623657226565,2.890543460845948,0.6956533789634705,0.3276359140872955,-23.61090087890625,-144.3273162841797,-296.3258056640625
1699734492,-14.84957015991211,4.898114318847656,-3.1534922790527347,3.0400524139404297,1.0936769247055054,0.4039687812328338,-22.3958740234375,-144.5491943359375,-297.1979064941406
1699734492,-15.077246704101563,2.74708740234375,-0.8671467590332032,1.81476366519928,2.150730848312378,0.6872694492340088,-21.192184448242188,-144.05905151367188,-297.92291259765625
1699734492,-16.261284484863282,0.5224136352539063,2.855911102294922,-1.7995922565460205,3.9309258460998535,0.7246754169464111,-20.161544799804688,-143.5833740234375,-299.528564453125
1699734492,-15.483052825927736,0.4414320373535156,3.5345997619628906,-3.259679317474365,4.41566801071167,0.6850957870483398,-18.232009887695312,-142.18179321289062,-299.767578125
1699734492,-14.29632064819336,1.2439132690429688,3.529660034179688,-2.602797031402588,3.89923882484436,0.5037637948989868,-17.16790771484375,-141.21142578125,-300.71563720703125
1699734492,-12.630734252929688,2.821482696533203,4.680766296386719,-1.3084092140197754,2.788217306137085,0.3103831708431244,-16.183334350585938,-140.36993408203125,-300.9041748046875
1699734492,-11.21393051147461,4.070934448242188,5.025050354003906,-0.1742311865091323,1.736599087715149,0.182814285159111,-15.374755859375,-140.0454864501953,-301.5915222167969
1699734492,-10.15817596435547,4.119283905029297,5.864055633544922,0.8383538126945496,1.253613829612732,0.356481671333313,-15.08001708984375,-140.7933349609375,-301.90460205078125
1699734492,-10.360106048583985,3.916605377197266,6.331533508300781,1.2426860332489014,0.8515588045120239,0.6524094939231873,-14.637710571289062,-140.89862060546875,-302.2319641113281
1699734492,-8.930728454589843,5.223387908935547,3.8517901611328127,1.4679099321365356,0.4056348502635956,0.7040992975234985,-14.715103149414062,-141.0869903564453,-303.0867614746094
1699734492,-7.85805908203125,5.874533843994141,1.4567706298828125,1.7011886835098269,0.0162324998527765,0.8274566531181335,-14.33477783203125,-141.7943878173828,-303.03204345703125
1699734492,-7.706424407958985,6.873556365966797,-0.5471122741699219,2.043525695800781,0.0526664070785045,0.8912327289581299,-13.75543212890625,-142.58352661132812,-303.84210205078125
1699734492,-6.644382934570313,7.568411407470704,-2.402953033447266,2.049142837524414,0.1096410080790519,1.0660638809204102,-13.7005615234375,-142.5550537109375,-304.3297424316406
1699734492,-6.345005493164063,7.118896179199219,-3.820355529785157,1.9128484725952148,0.3056086599826813,1.1808089017868042,-13.324127197265623,-142.9909210205078,-305.0093994140625
1699734492,-5.167703704833984,6.713090057373047,-4.294569396972657,1.9845026731491089,0.1635873317718505,1.265467882156372,-12.929443359375,-143.47764587402344,-304.6781005859375
1699734492,-5.348377990722657,6.563251647949219,-4.569846954345703,2.1973817348480225,-0.29909348487854,1.1443557739257812,-13.04132080078125,-144.09024047851562,-305.14129638671875
1699734492,-4.662953338623047,6.553072814941406,-4.55577621459961,2.7901406288146973,-1.1616772413253784,1.1029739379882812,-13.434188842773438,-144.7021484375,-306.206787109375
1699734492,-6.9958520507812505,6.060896301269532,-7.683072967529298,3.2284388542175293,-2.0884363651275635,1.136762619018555,-13.635498046875,-145.5576934814453,-305.54937744140625
1699734492,-8.383167114257812,5.350773010253906,-5.692961425781251,2.099739551544189,-0.6183013319969177,1.6881810426712036,-13.764556884765623,-146.20321655273438,-306.2286376953125
1699734493,-10.10353958129883,3.633094940185547,-2.683170318603516,1.454806566238403,0.381132423877716,1.4104849100112915,-13.166122436523438,-146.34930419921875,-307.08477783203125
1699734493,-7.835905151367188,4.517904968261719,-3.621119842529297,1.5013679265975952,0.2668239772319793,0.6817673444747925,-12.811004638671877,-147.00624084472656,-307.3052673339844
1699734493,-7.754324798583985,1.9999909973144527,-0.0474513244628906,1.4021223783493042,0.1620078086853027,0.0752438902854919,-12.974594116210938,-147.1643829345703,-308.02252197265625
1699734493,-6.287525024414063,0.9777667236328126,-0.2734812927246094,1.172392725944519,-0.4194902181625366,-0.4670366942882538,-13.472793579101562,-147.99166870117188,-307.435546875
1699734493,-6.248456268310547,1.265618133544922,-0.1913021850585937,0.9526702165603638,-1.1436185836791992,-0.7738674879074097,-13.943252563476562,-148.81080627441406,-307.6520080566406
1699734493,-5.831722869873047,1.6346008300781252,0.2401007080078125,0.8922239542007446,-2.020991802215576,-1.1187697649002075,-15.10137939453125,-148.7549285888672,-306.6785888671875
1699734493,-6.089636535644532,2.054777069091797,0.6204597473144532,0.9744301438331604,-2.7450242042541504,-1.340951681137085,-16.467391967773438,-149.4129180908203,-306.5624694824219
1699734493,-6.99869613647461,2.7199937438964845,0.7179071044921875,1.0475049018859863,-3.1992757320404053,-1.4774965047836304,-17.755218505859375,-150.58200073242188,-305.6409912109375
1699734493,-7.382797393798828,3.181184692382813,0.228724365234375,1.0748674869537354,-3.5957579612731934,-1.6676557064056396,-19.23066711425781,-151.34010314941406,-304.8583679199219
1699734493,-7.487878875732422,2.9704229736328127,-0.5764512634277345,1.0838838815689087,-3.9827475547790527,-1.81609046459198,-20.715621948242188,-152.16986083984375,-303.5108642578125
1699734493,-7.081773376464844,2.741848297119141,-1.2710069274902345,1.0314998626708984,-4.317116737365723,-1.8798497915267944,-22.881912231445312,-153.67588806152344,-302.4241943359375
1699734493,-6.979236602783203,3.68159408569336,-1.6759149169921876,1.035217523574829,-4.350941181182861,-1.9204291105270384,-24.63983154296875,-154.332275390625,-300.7234191894531
1699734493,-7.003635864257813,3.963457946777344,-1.6238232421875,0.9571195840835572,-4.165863513946533,-1.984551191329956,-26.10762023925781,-155.45887756347656,-298.65234375
1699734493,-6.891369323730469,3.182681579589844,-1.7527052307128907,0.6594641804695129,-3.971895933151245,-2.178922414779663,-28.018875122070312,-156.4344482421875,-297.24462890625
1699734493,-6.910529479980469,1.6205300903320314,-1.7551002502441406,0.1819950938224792,-3.849356889724731,-2.572178602218628,-28.832763671875,-157.22703552246094,-295.4830627441406
1699734493,-7.835755462646484,-0.4064048767089844,-1.4193484497070312,-0.306419312953949,-3.619371891021729,-2.963294744491577,-30.0185546875,-158.3838348388672,-293.6976318359375
1699734493,-9.33384017944336,-1.3982423400878907,-0.0937051391601562,-0.5912784934043884,-3.407778739929199,-2.7709314823150635,-31.48692321777344,-159.084228515625,-292.3236694335937
1699734493,-9.274114379882812,-0.6930587768554688,-0.4364923095703125,-0.8787280917167664,-3.146589756011963,-2.461444616317749,-32.65727233886719,-159.8184356689453,-290.94647216796875
1699734493,-7.2299652099609375,0.3252735900878906,-0.2923420715332031,-1.3214927911758425,-2.4823901653289795,-2.3635458946228027,-32.95832824707031,-160.81710815429688,-290.0048217773437
1699734493,-6.83104476928711,-2.022144927978516,-0.9373507690429688,-1.3306444883346558,-1.6523092985153198,-2.817968845367432,-33.413543701171875,-161.6729278564453,-288.595703125
1699734493,-11.18234619140625,-3.428769836425781,-1.5991246032714843,-1.4557573795318604,-1.0930577516555786,-2.228637218475342,-34.023895263671875,-161.7989044189453,-287.5319519042969
1699734493,-13.211526489257814,-1.7654287719726562,-2.9464727783203126,-1.2735286951065063,-0.3892132639884949,-1.5533217191696167,-33.94598388671875,-162.53500366210938,-287.79522705078125
1699734493,-8.817863159179687,0.621357879638672,-2.205363922119141,-0.8201902508735657,-0.4643279910087585,-1.3678178787231443,-34.15692138671875,-162.73703002929688,-286.9678955078125
1699734493,-7.1515283203125,2.647544403076172,-1.3701008605957032,-0.2664330303668976,-0.8031566739082336,-1.354245901107788,-34.06709289550781,-163.704345703125,-286.1005249023437
1699734493,-5.745801544189454,3.73383544921875,0.7725434875488282,0.0930252820253372,-0.8476926684379578,-1.2360219955444336,-34.18928527832031,-164.02711486816406,-286.473876953125
1699734493,-5.501509552001953,4.505780181884766,2.748135223388672,-0.0144489808008074,-0.4479373097419739,-0.8391317129135132,-34.42694091796875,-164.23330688476562,-285.7964782714844
1699734493,-5.662125549316406,2.8409422302246097,2.733914794921875,-0.8186227083206177,-0.2676016092300415,-0.2269489914178848,-34.169464111328125,-163.8819122314453,-285.74822998046875
1699734493,-5.77244613647461,1.3946498107910157,0.935105438232422,-1.3899447917938232,-0.0941227674484252,-0.0631448775529861,-34.25572204589844,-163.80661010742188,-285.59295654296875
1699734493,-5.59760971069336,2.455643463134766,1.3642630004882814,-1.656647801399231,0.1764509379863739,-0.035208586603403,-34.15214538574219,-163.43019104003906,-285.23876953125
1699734493,-7.180567932128906,3.624263305664064,0.6210585021972657,-2.110243558883667,0.3490234911441803,0.1097528636455535,-34.2879638671875,-162.99835205078125,-285.49200439453125
1699734493,-8.28437255859375,4.285737762451172,-0.0880169677734375,-2.591582536697388,0.8051806688308716,0.6690717935562134,-33.68705749511719,-162.08021545410156,-285.6987609863281
1699734493,-8.774154052734376,4.47434555053711,0.4731660461425781,-2.7730655670166016,1.04993736743927,1.435314416885376,-33.5927734375,-160.88026428222656,-286.5329284667969
1699734493,-8.455167388916015,5.157824249267579,0.2086660766601562,-2.5015900135040283,0.9980153441429138,2.1279168128967285,-33.10459899902344,-159.58651733398438,-287.0697021484375
1699734493,-9.98917739868164,4.06958724975586,1.4403048706054689,-2.367825508117676,1.6589539051055908,2.837024688720703,-32.71453857421875,-158.13275146484375,-287.28594970703125
1699734493,-13.119467926025392,7.579787750244141,0.8647517395019532,-2.328719139099121,1.404609441757202,2.9023916721343994,-32.39637756347656,-156.2586212158203,-287.4893798828125
1699734493,-13.344899139404298,11.6829052734375,-2.747985534667969,-2.192948818206787,0.5678091049194336,2.4071362018585205,-32.07798767089844,-155.05714416503906,-287.503173828125
1699734493,-14.357842712402345,10.531499633789062,-4.142335968017578,-2.023817777633667,0.0578004494309425,2.027312994003296,-31.784683227539062,-153.8722686767578,-287.87823486328125
1699734493,-15.966547393798828,8.574469299316407,-3.1008018493652347,-1.7827175855636597,0.1166041120886802,1.8986889123916624,-31.39764404296875,-152.88681030273438,-287.8548889160156
1699734493,-15.906522216796876,7.999365234375,-1.3465997314453126,-1.594438552856445,-0.0729258731007576,1.9737424850463867,-31.28988647460937,-151.38323974609375,-287.32623291015625
1699734493,-15.664475555419925,8.23168212890625,-1.091081085205078,-1.6683948040008545,-0.511742115020752,2.093275547027588,-31.29502868652344,-150.28909301757812,-287.10040283203125
1699734493,-15.782280578613282,8.732989654541017,-1.4578184509277343,-1.8054882287979128,-1.9837985038757324,2.009783983230591,-31.10693359375,-149.0459747314453,-285.994384765625
1699734493,-13.384866027832032,7.555089111328125,-1.7682728576660156,-2.0527567863464355,-3.713175058364868,1.857016324996948,-31.279067993164062,-147.992919921875,-283.7453918457031
1699734493,-13.218711547851564,6.718179473876954,-4.75171875,-2.3571839332580566,-4.554542541503906,2.448183298110962,-31.92523193359375,-146.66912841796875,-281.81744384765625
1699734493,-11.26707000732422,5.8721388244628905,-4.685107269287109,-2.12766170501709,-4.896581649780273,3.273151397705078,-32.060211181640625,-145.39468383789062,-279.03057861328125
1699734493,-7.544461212158203,5.479056243896484,0.8942404174804688,-1.3147059679031372,-5.088540077209473,3.8988773822784415,-32.33540344238281,-143.38937377929688,-276.7568359375
1699734493,-5.091961212158203,5.473368072509766,9.60013641357422,0.0525910407304763,-4.059357643127441,3.995013952255249,-31.799819946289062,-141.91549682617188,-275.2674255371094
1699734493,-2.307451629638672,5.432952117919922,18.77590530395508,1.313225269317627,-2.6778550148010254,3.714944839477539,-31.192214965820312,-140.42112731933594,-274.6724548339844
1699734493,-2.3803500366210937,4.97924560546875,15.931071166992188,2.0466129779815674,-2.1062257289886475,3.405981063842773,-30.54718017578125,-139.5646514892578,-274.27069091796875
1699734493,-3.310515747070313,4.370162200927735,9.75820770263672,2.471997261047364,-1.9669612646102903,3.19021987915039,-29.92445373535156,-138.0251922607422,-274.12384033203125
1699734493,-4.572241973876953,4.214036865234375,5.5851855468750005,2.65923285484314,-2.330917835235596,3.031545639038086,-29.46429443359375,-137.29331970214844,-273.5902709960937
1699734493,-3.9630088806152335,3.828289031982422,2.6411077880859377,2.7358784675598145,-2.867383003234864,2.8010315895080566,-29.08746337890625,-136.62295532226562,-273.13018798828125
1699734493,-3.9740858459472657,3.816912689208984,1.43461669921875,2.7106025218963623,-3.1925268173217773,2.6089305877685547,-28.73370361328125,-136.33291625976562,-273.20709228515625
1699734493,-3.825894012451172,4.20370834350586,0.9605525207519532,2.642625331878662,-3.466892957687378,2.374716520309448,-28.348876953125,-135.1373748779297,-272.4085693359375
1699734493,-3.755540313720704,4.547992401123048,1.3989907836914064,2.5498178005218506,-3.332709550857544,2.237080335617065,-28.130691528320312,-134.98834228515625,-271.3675537109375
1699734493,-4.831203460693359,5.017266540527344,2.2888902282714847,2.390141487121582,-2.6806111335754395,2.297125577926636,-27.77935791015625,-134.22811889648438,-271.8033447265625
1699734493,-6.143973541259766,5.652395782470704,3.231779479980469,2.164678812026977,-1.746158242225647,2.578834056854248,-27.350906372070312,-133.57196044921875,-271.9525756835937
1699734493,-7.243287506103516,5.920637969970703,3.730691986083984,1.893056869506836,-0.9447052478790284,2.9848408699035645,-26.58880615234375,-132.503173828125,-272.3525390625
1699734493,-7.668403472900391,5.966891784667969,3.62411361694336,1.6717541217803955,-0.3121698796749115,3.3121790885925293,-25.48750305175781,-131.59228515625,-272.3887939453125
1699734493,-7.799979858398438,6.062991943359376,3.430566101074219,1.5602514743804932,0.1556958556175232,3.467100143432617,-24.34907531738281,-130.17974853515625,-273.1920471191406
1699734493,-7.908204803466797,6.15041015625,3.164718933105469,1.550166368484497,0.3660538792610168,3.404942750930786,-23.44673156738281,-129.60191345214844,-273.3200378417969
1699734493,-6.829248504638672,6.36401596069336,2.952460327148437,1.65946364402771,0.3958197832107544,3.1160566806793213,-22.13165283203125,-128.98800659179688,-274.55206298828125
1699734493,-5.815706176757812,6.865922241210938,3.063379669189453,1.787084937095642,0.2959544360637665,2.698569059371948,-20.954391479492188,-128.0468292236328,-275.3505249023437
1699734493,-4.947062530517578,7.32920883178711,2.8162435913085937,1.8191277980804443,-0.0127512151375412,2.24725604057312,-20.040206909179688,-127.67417907714844,-275.7525634765625
1699734493,-4.911885681152344,6.86936508178711,3.0861323547363284,1.8738899230957031,-0.2069262862205505,2.185020685195923,-19.395904541015625,-127.4943389892578,-276.24853515625
1699734493,-6.209986267089844,4.489314422607422,3.556454315185547,1.8548381328582764,-0.286912739276886,2.5420172214508057,-18.41073608398437,-126.7644500732422,-277.282958984375
1699734493,-7.656278686523438,2.915636901855469,2.6972410583496096,1.721063256263733,-0.2128177285194397,3.3379244804382324,-17.730499267578125,-125.89596557617188,-277.4085693359375
1699734493,-9.106013946533205,1.8145266723632807,1.2461585998535156,1.4640395641326904,-0.2950553297996521,4.263943195343018,-15.612640380859377,-125.1731414794922,-277.5707397460937
1699734493,-7.173831939697266,1.911974029541016,-0.4549040222167969,1.14766526222229,-0.7241265177726746,4.84868860244751,-14.126876831054688,-124.31922912597656,-278.0494384765625
1699734493,-4.670737152099609,1.8012043762207033,-0.6273454284667969,1.069585919380188,-1.138012409210205,5.29149341583252,-11.91583251953125,-123.41790771484376,-278.2611694335937
1699734493,-4.280798034667969,1.3371693420410158,0.9178912353515626,1.1440777778625488,-1.2230212688446045,5.494129657745361,-9.945999145507812,-122.09042358398438,-278.43133544921875
1699734493,-2.0615130615234376,1.670526123046875,1.452579345703125,1.2320467233657837,-0.9614748954772948,5.32731819152832,-7.552947998046875,-121.5868682861328,-278.42449951171875
1699734493,-0.8433462524414063,2.5376728820800785,1.5964302062988285,1.28916335105896,-0.6150581240653992,5.073195934295654,-5.532623291015625,-121.01661682128906,-278.78961181640625
1699734493,-0.7692503356933594,3.911815338134766,1.0018666076660157,1.2588109970092771,-0.660870373249054,4.834933757781982,-3.0802154541015625,-120.55845642089844,-279.440673828125
1699734493,-0.5170248413085938,5.563780059814453,-0.8006849670410157,1.119290113449097,-1.4166102409362793,4.769956588745117,-1.816009521484375,-120.40814208984376,-279.91021728515625
1699734493,-0.4534071350097656,7.477101287841797,-3.2421080017089845,0.8161534070968628,-2.686329126358032,4.883203029632568,0.4432830810546875,-119.88890075683594,-279.8479919433594
1699734493,0.9436376953125,11.370355224609376,-5.189408569335938,0.4362918436527252,-4.049880027770996,4.950979709625244,1.8643951416015625,-119.76138305664062,-279.092041015625
1699734493,3.864214324951172,15.226336669921876,-6.719676361083985,0.0151019878685474,-5.363406658172607,4.589667320251465,3.10992431640625,-119.77960205078124,-279.0799255371094
1699734493,7.748187561035157,19.133661346435545,-8.042176208496095,-0.4390740394592285,-6.2005109786987305,3.782814741134644,4.387603759765625,-119.52859497070312,-278.5554504394531
1699734493,11.387270050048828,21.72073150634765,-8.258177032470703,-1.07144296169281,-6.277111053466797,2.7257370948791504,5.00091552734375,-119.35775756835938,-277.353759765625
1699734493,13.684093780517578,21.63376235961914,-7.337441711425781,-1.8471776247024536,-4.987252235412598,1.7522265911102295,5.612716674804688,-119.2590789794922,-276.8041381835937
1699734493,15.29264877319336,19.559825134277343,-2.0853135681152346,-2.4602599143981934,-1.8813352584838867,0.9491239786148072,5.7761077880859375,-119.21856689453124,-275.49395751953125
1699734493,16.5591650390625,15.978372802734375,1.905088348388672,-2.6763124465942383,1.066424012184143,-0.0072477930225431,6.322723388671875,-118.96664428710938,-274.21124267578125
1699734493,15.96894241333008,12.342433776855469,1.1725117492675785,-2.424577236175537,3.089029550552368,-0.9416346549987792,6.06182861328125,-118.59031677246094,-273.1314697265625
1699734493,12.246483306884766,9.025481414794925,0.8824150085449219,-1.8597365617752075,4.198746681213379,-1.4735701084136963,5.61328125,-118.87802124023438,-272.31219482421875
1699734493,9.079219665527344,6.565796356201172,0.6340814208984376,-1.1699953079223633,4.624276161193848,-1.6006271839141846,5.321197509765625,-118.62603759765624,-272.18280029296875
1699734493,7.154671783447266,4.86233871459961,1.341809692382813,-0.3062251806259155,4.511874198913574,-1.4444559812545776,4.7680206298828125,-118.7637176513672,-271.9945678710937
1699734493,6.2414208984375,3.713627471923828,3.216361541748047,0.6897736191749573,3.8668088912963854,-1.1504682302474976,4.6977386474609375,-118.65402221679688,-272.6342163085937
1699734493,5.398224334716797,3.538940734863281,4.323758697509766,1.6648005247116089,2.5626745223999023,-0.7705403566360474,4.661056518554688,-119.33283996582033,-273.84869384765625
1699734493,4.6818141174316406,4.514911193847657,3.597918090820313,2.1118392944335938,1.179948091506958,-0.4381041228771209,4.812744140625,-119.11907958984376,-274.9208374023437
1699734493,4.589456176757813,6.59872787475586,2.123933258056641,1.9461987018585205,0.190829336643219,-0.2627927362918854,4.4179534912109375,-119.23106384277344,-275.1611328125
1699734493,4.68031723022461,8.403824157714844,1.5232324218750002,1.2857086658477783,-0.303089290857315,-0.2841105461120605,4.2894134521484375,-119.66519165039062,-275.8383483886719
1699734493,4.747976531982422,9.719588012695311,1.030906219482422,0.3235663473606109,-0.4261036515235901,-0.3913030624389648,4.603790283203125,-119.64358520507812,-275.6419372558594
1699734493,4.532574462890625,10.574160919189454,0.2841091918945312,-0.6172829270362854,-0.3906396627426147,-0.4529227316379547,4.234405517578125,-119.56671142578124,-275.89947509765625
1699734493,3.913312225341797,10.68508026123047,0.1134640502929687,-1.2657959461212158,-0.2058905810117721,-0.3818642795085907,3.719253540039064,-119.680419921875,-275.5372314453125
1699734493,3.126697998046875,10.43031005859375,1.018032989501953,-1.534923791885376,0.0382144972681999,-0.2359033375978469,3.804595947265625,-119.61444091796876,-274.4384460449219
1699734493,2.6207501220703127,10.367889862060547,2.1412971496582034,-1.456006646156311,0.3013422787189483,-0.1253336817026138,3.8687591552734375,-119.25376892089844,-273.78375244140625
1699734493,2.5547373962402347,10.438992004394532,3.054548034667969,-1.1669119596481323,0.5495901703834534,-0.1255139857530594,3.673126220703125,-119.48675537109376,-273.16363525390625
1699734493,2.855611724853516,10.58448944091797,3.520079956054688,-0.7901750802993774,0.793792188167572,-0.22719506919384,3.783355712890625,-119.35031127929688,-273.0254211425781
1699734493,3.1220576477050783,10.581944732666017,3.803740081787109,-0.4358036816120147,1.076905608177185,-0.3509260714054107,3.57489013671875,-119.2078857421875,-272.3843994140625
1699734493,3.1364277648925785,10.473420410156251,3.9781274414062495,-0.2203475534915924,1.4042121171951294,-0.4409792721271515,3.4043731689453125,-119.35847473144533,-272.4141845703125
1699734494,3.0422735595703125,10.421478424072266,4.126918029785156,-0.2038213014602661,1.7219398021697998,-0.5093079805374146,3.231063842773437,-119.29592895507812,-272.3333740234375
1699734494,2.801274719238281,10.30142807006836,4.186194763183594,-0.3572007417678833,1.9832677841186523,-0.5584917664527893,2.97161865234375,-119.3201904296875,-272.5873413085937
1699734494,2.5713528442382816,10.204130401611328,4.164489898681641,-0.6192821264266968,2.158908128738404,-0.5920414924621582,2.547698974609375,-119.345947265625,-272.312255859375
1699734494,2.3966661071777344,10.134076080322266,4.34740951538086,-0.8791342377662659,2.226046800613404,-0.6136565208435059,2.597763061523437,-118.46365356445312,-272.34967041015625
1699734494,2.243983612060547,10.101593627929688,4.515809326171875,-1.0825095176696775,2.05825138092041,-0.5755096673965454,2.2910308837890625,-119.4306640625,-271.1072998046875
1699734494,2.124082946777344,10.038125610351562,4.273463287353516,-1.2191200256347656,1.6364469528198242,-0.4322595298290252,2.29241943359375,-119.19200134277344,-270.9217529296875
1699734494,2.16509765625,9.99965560913086,3.4913397216796875,-1.31757652759552,0.953543484210968,-0.2369555532932281,2.09912109375,-118.5782470703125,-270.76171875
1699734494,2.6869125366210938,9.570498046875,2.0435504150390624,-1.393548846244812,0.193349227309227,-0.0401527471840381,2.568710327148437,-119.20005798339844,-270.06756591796875
1699734494,3.141217803955078,8.381670227050781,0.5932164001464844,-1.4089903831481934,-0.3874182999134063,0.1453087329864502,2.082977294921875,-118.9684600830078,-269.0756530761719
1699734494,3.233575744628906,7.344776458740235,-0.06466552734375,-1.3351318836212158,-0.6207340955734253,0.2590968012809753,2.318572998046875,-118.94529724121094,-268.15234375
1699734494,3.180436248779297,6.918163604736328,0.2142045593261718,-1.1641327142715454,-0.4894413352012634,0.3019436001777649,2.58734130859375,-118.6390380859375,-267.9545288085937
1699734494,2.897823944091797,6.9871701049804695,1.222507781982422,-0.9192081689834596,-0.1019031926989555,0.2566107511520386,2.761505126953125,-118.28829956054688,-267.1068420410156
1699734494,2.3834934997558594,7.616012420654298,2.685116271972656,-0.6193753480911255,0.4097800552845001,0.0954916328191757,2.697784423828125,-118.72512817382812,-267.04571533203125
1699734494,1.7700691223144531,8.415200500488282,4.38812484741211,-0.2751964032649994,0.9014243483543396,-0.125693216919899,2.75390625,-118.68597412109376,-266.7020263671875
1699734494,1.1156300354003907,8.96171401977539,5.572462005615234,0.1103683188557624,1.1735928058624268,-0.3270553648471832,2.2561798095703125,-118.65162658691406,-267.0249938964844
1699734494,0.6101312255859376,9.35719161987305,5.584287414550782,0.4262959063053131,1.1728755235671997,-0.4946491420269012,2.214080810546875,-118.78274536132812,-266.7871398925781
1699734494,0.3661386108398438,9.518855438232425,4.65352294921875,0.5846831798553467,1.0030369758605957,-0.6109699010848999,1.6811981201171875,-118.76155090332033,-267.13604736328125
1699734494,0.2564167785644531,9.373358001708986,3.4578094482421875,0.5695875883102417,0.7369784116744995,-0.6673985719680786,1.2860565185546875,-118.62078857421876,-267.4574584960937
1699734494,0.2659968566894531,9.062005462646486,2.435585174560547,0.4584261476993561,0.4276666641235351,-0.6795707941055298,1.0783233642578125,-119.08482360839844,-268.30419921875
1699734494,0.3393443298339844,8.652157745361329,1.9544856262207035,0.3502163290977478,0.1415374279022216,-0.6474099159240723,0.761871337890625,-118.98568725585938,-267.9237365722656
1699734494,0.4415817260742187,8.301437072753906,1.97349609375,0.2821443378925323,-0.1021157130599021,-0.5999606251716614,0.3756256103515625,-118.96560668945312,-268.415771484375
1699734494,0.5382806396484375,8.115823059082032,2.191592559814453,0.2603333294391632,-0.2720909118652344,-0.5672266483306885,0.3175048828125,-119.37644958496094,-268.127685546875
1699734494,0.6324348449707031,8.058492279052734,2.538571014404297,0.2813895940780639,-0.3700451552867889,-0.5606971383094788,0.0603179931640625,-119.40513610839844,-268.6497802734375
1699734494,0.7165599060058594,8.004903717041016,2.836301879882813,0.3203614950180053,-0.432988703250885,-0.5663661956787109,-0.361724853515625,-119.30552673339844,-268.01129150390625
1699734494,0.8174501037597657,7.896379394531251,3.023861846923828,0.384156733751297,-0.5173302292823792,-0.5599485039710999,-0.3140716552734375,-119.290283203125,-268.4769287109375
1699734494,0.9148974609375,7.728578338623047,3.209176483154297,0.467360258102417,-0.612686276435852,-0.5285887122154236,-0.6376953125,-119.54409790039062,-268.92626953125
1699734494,0.9827064514160156,7.562723236083984,3.4280213928222656,0.5502844452857971,-0.6617302894592285,-0.4649106860160827,-1.0734405517578125,-119.98464965820312,-268.8296813964844
1699734494,1.084794158935547,7.453450469970703,3.59013427734375,0.6103224754333496,-0.6602389216423035,-0.3978634774684906,-1.2085418701171875,-119.89517211914062,-268.5445556640625
1699734494,1.304836578369141,7.512278137207032,3.5654356384277346,0.6443741917610168,-0.6184624433517456,-0.3415421545505523,-0.684356689453125,-119.63446044921876,-268.6591796875
1699734494,1.5438894653320314,7.6844201660156255,3.513044586181641,0.6520411372184753,-0.5531628131866455,-0.3070214688777923,-0.896392822265625,-119.98402404785156,-268.9852294921875
1699734494,1.6877403259277344,7.862100677490234,3.539689178466797,0.6507372856140137,-0.4612022340297699,-0.2717137932777405,-1.1555938720703125,-119.93466186523438,-268.5181884765625
1699734494,1.5962805175781252,7.988737335205078,3.6802468872070313,0.6324583888053894,-0.3270441591739654,-0.2420208901166916,-1.5647430419921875,-120.08517456054688,-269.0207824707031
1699734494,1.3587245178222658,8.16896255493164,3.8070332336425774,0.5813246369361877,-0.1620640009641647,-0.2176236659288406,-1.4641571044921875,-120.0330047607422,-269.45953369140625
1699734494,0.9975256347656252,8.130941619873047,3.994892578125,0.512121319770813,-0.0204671919345855,-0.1788381934165954,-1.4866180419921875,-120.27406311035156,-269.6916198730469
1699734494,0.7328759765625,8.024662628173829,3.989503784179688,0.4412280023097992,0.0178708769381046,-0.124065488576889,-1.7520294189453125,-120.467529296875,-269.8474426269531
1699734494,0.7367678833007812,7.981103210449219,3.764970703125,0.3763717710971832,-0.0590838268399238,-0.0769139528274536,-1.5981292724609375,-120.31570434570312,-269.81170654296875
1699734494,0.8925938415527345,8.011040954589845,3.646566925048828,0.334805965423584,-0.1699110120534896,-0.0319621935486793,-1.5897979736328125,-120.01666259765624,-270.14288330078125
1699734494,0.9575587463378906,8.121810607910156,3.823498992919922,0.3248995244503021,-0.2631128430366516,0.0188874043524265,-1.42730712890625,-120.22654724121094,-270.7074279785156
1699734494,0.9672885131835938,8.364006958007813,4.082460479736328,0.321987897157669,-0.3045529723167419,0.0660237595438957,-1.4716033935546875,-120.1790771484375,-270.54852294921875
1699734494,0.9708810424804688,8.69347183227539,4.367018737792969,0.3038986325263977,-0.2904978692531585,0.0977979302406311,-1.5063323974609375,-120.44436645507812,-270.39630126953125
1699734494,0.9678872680664063,9.014554138183597,4.595892791748047,0.2773205637931824,-0.2319056689739227,0.1054846122860908,-1.6002349853515625,-120.3476104736328,-270.429931640625
1699734494,0.896785125732422,9.247769165039063,4.674329681396484,0.2512114644050598,-0.1415344923734665,0.1059075221419334,-1.522613525390625,-120.4704132080078,-270.3508605957031
1699734494,0.7451504516601563,9.30794403076172,4.591701507568359,0.2142377197742462,-0.0528363175690174,0.1155785247683525,-1.5702667236328125,-120.38539123535156,-270.60894775390625
1699734494,0.5917195129394531,9.22651336669922,4.456532592773438,0.1733145266771316,0.0108933942392468,0.1251437962055206,-1.5702362060546875,-120.35748291015624,-270.6060791015625
1699734494,0.4599934387207031,9.122030639648438,4.434228973388672,0.1431662142276764,0.0601546838879585,0.1485665738582611,-1.4472198486328125,-120.56214904785156,-270.15557861328125
1699734494,0.3835025024414062,9.070088653564452,4.521048431396484,0.1324150264263153,0.0929973199963569,0.1786432415246963,-1.5229034423828125,-120.6370086669922,-270.5341796875
1699734494,0.3300636291503906,9.06125701904297,4.702471160888672,0.1414846926927566,0.0928476452827453,0.2094307243824005,-1.4990692138671875,-120.91558837890624,-270.4410400390625
1699734494,0.2853067016601562,9.066645812988282,4.899311828613281,0.1801679134368896,0.0593674518167972,0.2331941127777099,-1.1729278564453125,-120.71662902832033,-270.7260437011719
1699734494,0.2463876342773437,9.082063751220703,5.039869537353516,0.2395979464054107,-0.0129842413589358,0.2472635805606842,-1.2678375244140625,-120.37301635742188,-270.94708251953125
1699734494,0.2471360778808594,9.15421371459961,5.092559967041016,0.3103312253952026,-0.1063338965177536,0.2575353980064392,-1.0753936767578125,-120.65652465820312,-270.4290466308594
1699734494,0.3068618774414062,9.330097961425782,4.973258056640625,0.381691962480545,-0.1979687362909317,0.2578209042549133,-1.093231201171875,-121.00984191894533,-270.70556640625
1699734494,0.5201683044433594,9.702074432373047,4.764142913818359,0.4576216340065002,-0.2946566641330719,0.2469554543495178,-0.77252197265625,-120.65664672851562,-270.831298828125
1699734494,1.0211764526367189,10.53853500366211,4.569248199462891,0.5477235317230225,-0.388008713722229,0.1861760020256042,-0.7842559814453125,-120.30314636230467,-270.8543701171875
1699734494,1.8399737548828128,11.978241119384766,4.271217956542969,0.6273422241210938,-0.4542974531650543,0.0511023327708244,-0.805633544921875,-120.81584167480467,-270.75799560546875
1699734494,2.624791717529297,13.536800079345705,3.657494201660157,0.6688433289527893,-0.5224030017852783,-0.121602863073349,-1.0372161865234375,-120.869140625,-270.926513671875
1699734494,3.0273046875,14.635066223144532,2.808459777832032,0.6491585373878479,-0.5996264219284058,-0.2591748535633087,-1.1138153076171875,-120.77999877929688,-271.08349609375
1699734494,3.1570848083496097,15.032340087890626,1.8294955444335936,0.5856900811195374,-0.6143539547920227,-0.3238422572612762,-0.9293670654296876,-120.7894287109375,-271.65899658203125
1699734494,3.1022987365722656,14.3844873046875,1.3567785644531252,0.5834195017814636,-0.4256895184516907,-0.2887713611125946,-1.2075958251953125,-121.1030731201172,-271.7973327636719
1699734494,3.343596954345703,12.784314880371094,1.922152862548828,0.6648576259613037,0.0246081408113241,-0.2536700963973999,-1.5330047607421875,-121.0648956298828,-271.7763671875
1699734494,3.853287048339844,10.77938415527344,2.728675689697266,0.763090193271637,0.6360491514205933,-0.2769943177700043,-1.4826507568359375,-120.64456176757812,-272.00396728515625
1699734494,3.7811370849609376,9.097631378173828,2.843486938476562,0.837570309638977,1.116661787033081,-0.2885082364082336,-1.599334716796875,-121.1306610107422,-271.9041748046875
1699734494,3.400628356933594,7.596403198242188,2.043251037597656,0.9085275530815125,1.2560479640960691,-0.2533832788467407,-1.6918182373046875,-120.96690368652344,-272.4283752441406
1699734494,3.3259336853027346,6.563850402832031,0.8238867187500001,0.9471465945243835,1.038835525512695,-0.1959125101566314,-1.2987823486328125,-120.79473876953124,-273.29351806640625
1699734494,3.551963653564453,6.195316772460938,-0.4581971740722656,0.904603123664856,0.6132569909095764,-0.0918622761964798,-1.7940216064453125,-120.67620849609376,-273.628662109375
1699734494,3.483406219482422,6.181994476318359,-1.6372952270507812,0.7691286206245422,0.1850129961967468,0.0921256691217422,-1.752838134765625,-121.33872985839844,-273.8062744140625
1699734494,2.84962417602539,6.346502380371094,-2.5179139709472658,0.542901337146759,-0.1405421942472458,0.3182325661182403,-1.871734619140625,-120.66716003417967,-274.0116271972656
1699734494,2.2772145080566406,6.904841308593751,-3.1192135620117187,0.2644228637218475,-0.3843306303024292,0.5243023633956909,-1.601287841796875,-120.90452575683594,-273.8032531738281
1699734494,2.0516336059570315,7.546556854248047,-3.352278900146485,-0.0216363202780485,-0.5268329381942749,0.678059458732605,-1.4910888671875,-120.80130004882812,-273.4947509765625
1699734494,2.0709434509277345,8.288114776611328,-3.189866638183594,-0.2488795965909958,-0.5750065445899963,0.7649075388908386,-1.501251220703125,-120.82005310058594,-273.59527587890625
1699734494,2.198777618408203,9.176517333984377,-2.797532501220703,-0.3434854745864868,-0.5833814144134521,0.7759532332420349,-0.987762451171875,-120.81707763671876,-273.473876953125
1699734494,2.3153851318359377,10.089618530273436,-2.065704345703125,-0.2387840747833252,-0.5788604021072388,0.6979694962501526,-0.7240753173828125,-120.59121704101562,-273.59356689453125
1699734494,2.3077510070800784,11.109447784423828,-0.8378077697753906,0.0854483246803283,-0.5088395476341248,0.5102861523628235,-0.619476318359375,-120.86448669433594,-273.5460205078125
1699734494,2.121837615966797,11.98557586669922,0.6783892822265626,0.5980865955352783,-0.3304527401924133,0.2531105577945709,-0.8671417236328125,-120.64105224609376,-273.9112548828125
1699734494,1.560504913330078,12.19154754638672,2.055824890136719,1.1990728378295898,-0.1155915781855583,0.0071854749694466,-0.7276611328125,-120.57080078125,-274.0512084960937
1699734494,0.8620573425292969,11.681258697509769,2.07169189453125,1.6499236822128296,9.24116902751e-05,-0.2122829705476761,-1.01361083984375,-120.5592041015625,-274.5623779296875
1699734494,0.4137396240234375,10.883118438720704,0.5794450378417969,1.8182660341262813,-0.0179968439042568,-0.3663841187953949,-0.977325439453125,-120.8526611328125,-275.1708984375
1699734494,0.1230441284179687,10.128537597656251,-0.9527687072753906,1.739427924156189,-0.0863399505615234,-0.4560647308826446,-0.8672637939453125,-120.98194885253906,-275.78692626953125
1699734494,-0.0785865783691406,9.557175750732425,-1.4287788391113283,1.5015618801116943,0.0718997567892074,-0.4623085260391235,-1.30242919921875,-121.08982849121094,-276.9166564941406
1699734494,-0.2980302429199219,9.01440444946289,-0.3930825805664062,1.2072296142578125,0.6438479423522949,-0.342497706413269,-1.2589569091796875,-121.28132629394533,-277.23028564453125
1699734494,0.0002993774414062,8.644673309326173,1.3564791870117188,0.8733445405960083,1.3903632164001465,-0.2170827835798263,-1.454254150390625,-121.40280151367188,-278.01519775390625
1699734494,1.6600479125976564,8.770112457275392,2.13111831665039,0.6012839674949646,1.8618942499160769,-0.2156257629394531,-1.1669158935546875,-121.64665222167967,-278.4015808105469
1699734494,2.8024722290039064,8.883426818847656,1.8690133666992188,0.459397941827774,1.8614875078201287,-0.2259191423654556,-1.207611083984375,-121.47213745117188,-278.92779541015625
1699734494,2.820883941650391,8.840316467285156,1.0873388671875,0.4264594316482544,1.455255389213562,-0.1851096749305725,-0.897979736328125,-121.82536315917967,-279.30352783203125
1699734494,2.501747589111328,8.85438720703125,0.1540296936035156,0.4210510849952698,0.8251873850822449,-0.087174579501152,-0.7757110595703125,-121.61376953125,-278.9974975585937
1699734494,2.1478834533691407,8.840316467285156,-0.7409591674804688,0.3960173726081848,0.183426022529602,0.0560392998158931,-0.804931640625,-121.34454345703124,-279.7240600585937
1699734494,1.901495819091797,8.797206115722657,-1.2711566162109376,0.3699202537536621,-0.3266042172908783,0.2036077231168747,-0.6071014404296875,-121.83537292480467,-279.93963623046875
1699734494,1.6102015686035156,8.848100280761718,-1.287322998046875,0.3591624200344085,-0.6098228693008423,0.3313070833683014,-0.6713104248046875,-121.53556823730467,-279.5543212890625
1699734494,1.2534933471679688,9.123377838134765,-0.9443861389160156,0.3808141946792602,-0.6544606685638428,0.3827399313449859,-0.794921875,-121.70176696777344,-279.5790405273437
1699734494,0.839304656982422,9.643995208740236,-0.5069956970214844,0.4233685731887817,-0.5115911364555359,0.3529056012630462,-0.528717041015625,-121.8327178955078,-279.6334228515625
1699734494,0.4487667846679687,10.06671615600586,-0.1935475158691406,0.4615263342857361,-0.3038294017314911,0.2827491462230682,-0.8647003173828125,-122.111328125,-279.9141845703125
1699734494,0.209564208984375,10.403815155029298,-0.2037263488769531,0.5021965503692627,-0.1472054272890091,0.197640374302864,-0.8297271728515625,-121.925048828125,-280.61456298828125
1699734494,0.034727783203125,10.56877212524414,-0.2700384521484375,0.5554257035255432,-0.0370871797204017,0.1300735771656036,-0.7482757568359375,-121.90599060058594,-280.29620361328125
1699734494,-0.1519340515136718,10.55335418701172,-0.1050814819335937,0.6411743760108948,0.0819268226623535,0.0787470117211341,0.07330322265625,-121.8826904296875,-280.585693359375
1699734494,-0.2008822631835937,10.476114807128909,0.3448828125,0.7458049654960632,0.2850248217582702,0.006213953718543,-0.3550567626953125,-121.9834442138672,-281.1762084960937
1699734494,0.0097297668457031,10.450667724609376,0.8515791320800782,0.8420140147209167,0.5646575093269348,-0.1003207415342331,-0.399566650390625,-122.12152099609376,-281.337646484375
1699734494,0.2710862731933594,10.405312042236329,1.0975177001953125,0.8725799322128296,0.8503845930099487,-0.2081705182790756,-0.1715545654296875,-122.15281677246094,-282.14508056640625
1699734494,0.3471281433105468,10.299332427978516,0.9044192504882812,0.8245833516120911,1.0142604112625122,-0.2794641256332397,-0.0182342529296875,-122.28028869628906,-282.13287353515625
1699734494,0.3502716064453125,10.164462890625,0.5457650756835938,0.7287631034851074,1.0456407070159912,-0.3269994258880615,-0.235626220703125,-122.5255126953125,-282.9033508300781
1699734494,0.5275030517578125,10.057884521484375,0.4948709106445312,0.6401450634002686,0.995979070663452,-0.3520717620849609,-0.084686279296875,-122.72592163085938,-282.8431396484375
1699734495,0.7438032531738281,9.884844360351565,0.6771917724609375,0.590942919254303,0.8586755394935608,-0.3446463346481323,0.1006622314453125,-122.69688415527344,-283.13702392578125
1699734495,0.89334228515625,9.629325714111328,0.7135661315917969,0.5653288960456848,0.6359367370605469,-0.3047465980052948,0.324737548828125,-122.69264221191406,-283.3349304199219
1699734495,1.0874885559082033,9.411528625488282,0.6432124328613281,0.5278941988945007,0.397496223449707,-0.2534959018230438,-0.0354156494140625,-123.01840209960938,-283.9184875488281
1699734495,1.2623249816894533,9.281299438476562,0.51492919921875,0.4736173748970032,0.1698154062032699,-0.2006207108497619,0.4017181396484375,-122.90957641601562,-284.0671691894531
1699734495,1.3398637390136718,9.183552703857425,0.3986210632324219,0.4079392850399017,0.0087839039042592,-0.1511160135269165,-0.1009368896484375,-123.15724182128906,-283.52105712890625
1699734495,1.3575270080566406,9.018446044921877,0.3930825805664062,0.3646400272846222,-0.0557484850287437,-0.0882129520177841,-0.248260498046875,-123.19862365722656,-284.5636901855469
1699734495,1.3139675903320314,8.839268646240235,0.4062551879882812,0.3433267474174499,-0.0383407324552536,-0.0194996651262044,-0.1579742431640625,-122.98893737792967,-284.1636657714844
1699734495,1.2313394165039062,8.705746307373047,0.3451821899414062,0.343096375465393,0.0095711341127753,0.0446279197931289,-0.39373779296875,-123.09219360351562,-284.8345947265625
1699734495,1.0440788269042969,8.653804321289062,0.1954934692382812,0.3553836643695831,0.0558491498231887,0.103383645415306,0.0631103515625,-123.14451599121094,-285.1465148925781
1699734495,0.7997868347167969,8.651109924316406,-0.0184117126464843,0.3471254706382751,0.1128338724374771,0.1575989425182342,-0.0396881103515625,-123.19769287109376,-284.8257751464844
1699734495,0.58198974609375,8.64886459350586,-0.2312690734863281,0.3194232583045959,0.1825943142175674,0.1943447142839431,0.22515869140625,-123.09124755859376,-285.0522766113281
1699734495,0.5162763977050782,8.70155502319336,-0.3849993896484375,0.2868219017982483,0.2625418603420257,0.2027589678764343,0.1304779052734375,-123.31706237792967,-285.3637390136719
1699734495,0.6186634826660157,8.854686584472656,-0.4629872131347656,0.2551406919956207,0.3237541019916534,0.1843788921833038,0.345855712890625,-123.15919494628906,-286.0028686523437
1699734495,0.8238867187500001,9.090745697021486,-0.5366340637207031,0.2368074804544448,0.3403543829917907,0.152383416891098,0.1703948974609375,-123.4561767578125,-286.0684814453125
1699734495,1.036893768310547,9.401798858642575,-0.59396484375,0.2454188168048858,0.3231666088104248,0.1200244054198265,0.395233154296875,-123.54118347167967,-285.6849365234375
1699734495,1.2663665771484376,9.911788330078126,-0.6390211486816406,0.2564674615859985,0.2857092320919037,0.0930079743266105,0.508575439453125,-123.3225555419922,-285.9667358398437
1699734495,1.4641053771972656,10.512938232421876,-0.7198530578613281,0.269496202468872,0.2643999755382538,0.0753658637404441,0.4582672119140625,-123.35017395019533,-286.2802734375
1699734495,1.6893869018554688,10.897488555908204,-0.7454498291015625,0.27271568775177,0.2826434075832367,0.0661939308047294,0.306243896484375,-123.32220458984376,-286.3475036621094
1699734495,1.914818115234375,11.1512109375,-0.7622149658203126,0.2819224894046783,0.3683815002441406,0.072367675602436,0.8147430419921875,-123.03817749023438,-286.54852294921875
1699734495,2.082619171142578,11.42798538208008,-0.858614501953125,0.2877971529960632,0.50001060962677,0.0932061076164245,0.556793212890625,-123.44981384277344,-287.40655517578125
1699734495,2.158960418701172,11.964320068359376,-1.056353302001953,0.274433434009552,0.6575642824172974,0.1311718672513961,1.0184478759765625,-123.38780212402344,-286.70050048828125
1699734495,2.1013302612304687,12.664713592529298,-1.321002960205078,0.2402940988540649,0.787828266620636,0.2177546918392181,1.0426025390625,-123.15078735351562,-287.246826171875
1699734495,1.8973045349121087,13.402229919433594,-1.7845889282226564,0.1892652660608291,0.8388946652412415,0.3321840763092041,1.32220458984375,-123.13429260253906,-287.4834289550781
1699734495,1.591340789794922,14.107413482666017,-2.155517578125,0.1600671708583831,0.779686450958252,0.4564522206783294,1.7660675048828125,-122.9894561767578,-287.95343017578125
1699734495,1.2600796508789065,14.765594787597657,-2.305056610107422,0.1549174040555954,0.5893567204475403,0.5497960448265076,2.2602081298828125,-122.7842254638672,-287.8583374023437
1699734495,1.0229727172851564,15.39847869873047,-2.3035597229003906,0.1696955561637878,0.2790007293224334,0.5805174708366394,2.3629150390625,-122.7936553955078,-287.8391418457031
1699734495,0.8303233337402344,16.06234817504883,-2.0062779235839843,0.2184409946203231,-0.088052362203598,0.5528804659843445,2.41033935546875,-122.77601623535156,-288.12091064453125
1699734495,0.6469546508789062,16.898659057617188,-1.3787828063964844,0.287627249956131,-0.4313223659992218,0.4515022039413452,2.603256225585937,-122.3349609375,-288.2138671875
1699734495,0.5264552307128907,17.886754302978517,-0.7256909179687501,0.3126250207424164,-0.6518188118934631,0.2857244312763214,2.4831695556640625,-122.3173828125,-288.40545654296875
1699734495,0.3095562744140625,18.657501525878907,-0.2427951049804687,0.2175032943487167,-0.675743579864502,0.0907791703939437,2.393783569335937,-121.72520446777344,-288.0372619628906
1699734495,-0.1432521057128906,18.51619537353516,0.1646575927734375,-0.0787360891699791,-0.4409755170345306,-0.0190197639167308,2.3033447265625,-121.918212890625,-288.2694091796875
1699734495,-0.3933819580078125,16.761095123291017,0.4650828552246094,-0.6173902153968811,0.0139965089038014,-0.062628760933876,2.42694091796875,-121.272216796875,-287.73193359375
1699734495,0.6577322387695312,14.358142089843753,0.6300398254394531,-1.2648485898971558,0.4862705767154693,-0.1765332221984863,2.366668701171875,-121.02381896972656,-287.6510009765625
1699734495,1.691931610107422,12.227622528076171,0.5598358154296875,-1.88035786151886,0.8081657886505127,-0.287174254655838,2.5678863525390625,-119.7562255859375,-286.8192749023437
1699734495,2.0781285095214845,10.50260971069336,0.2767744445800781,-2.3903110027313232,0.9423795342445374,-0.3593411147594452,2.351898193359375,-119.15348815917967,-286.4239501953125
1699734495,2.379451904296875,9.477241973876952,0.2254312133789062,-2.733626127243042,0.925898551940918,-0.4191485345363617,2.666961669921875,-118.39747619628906,-285.0967712402344
1699734495,2.7631040954589845,9.165889434814453,0.5483097839355469,-2.8583292961120605,0.8456844091415405,-0.4704825580120086,2.310546875,-117.56959533691406,-282.76171875
1699734495,3.134930877685547,9.536369018554687,1.050066375732422,-2.765308380126953,0.7278110384941101,-0.5250528454780579,2.436141967773437,-116.40689086914062,-281.8436279296875
1699734495,3.4585578918457034,10.32927017211914,1.4699432373046877,-2.531077146530152,0.7180353403091431,-0.5953866839408875,2.4103546142578125,-116.19570922851562,-280.7518920898437
1699734495,3.634292449951172,10.988948364257814,1.9281404113769527,-2.3092873096466064,0.9838944673538208,-0.6763449311256409,1.5351409912109375,-115.19744873046876,-279.5474548339844
1699734495,3.4504747009277343,11.365565185546876,2.3463706970214844,-2.2155065536499023,1.538659930229187,-0.7930912375450134,1.7964630126953125,-114.73912048339844,-278.3019714355469
1699734495,3.0292506408691406,11.484717407226563,2.3231689453125,-2.2009663581848145,2.177076816558838,-0.9422221183776855,1.551483154296875,-113.99333190917967,-277.72222900390625
1699734495,2.8003765869140627,11.321407012939453,1.7690213012695313,-2.180592060089112,2.63620924949646,-1.0521254539489746,1.1215972900390625,-113.61709594726562,-276.12213134765625
1699734495,2.8455825805664063,11.083851013183594,1.0397378540039064,-2.15270733833313,2.810044288635254,-1.1399807929992676,0.67474365234375,-113.09066772460938,-275.41021728515625
1699734495,3.2615675354003906,11.23788070678711,0.4221221923828125,-2.1464829444885254,2.6569533348083496,-1.2476259469985962,0.567779541015625,-112.77952575683594,-273.9827880859375
1699734495,3.883524169921875,11.537856903076172,0.1648072814941406,-2.172838926315308,2.3449723720550537,-1.27484130859375,0.568634033203125,-112.49081420898438,-273.34356689453125
1699734495,4.525539093017579,11.23548568725586,0.4581971740722656,-2.1971020698547363,2.0068488121032715,-1.189573049545288,0.08282470703125,-111.676025390625,-271.8983154296875
1699734495,5.014572143554688,10.584339752197266,1.0665321350097656,-2.18759560585022,1.7495687007904053,-1.0214439630508425,-0.570526123046875,-111.56700134277344,-270.80450439453125
1699734495,5.284760284423829,10.01207977294922,1.8537451171875,-2.1753146648406982,1.628251314163208,-0.8145323395729065,-1.206329345703125,-111.18992614746094,-269.6047058105469
1699734495,5.294939117431641,9.667795715332032,2.215243377685547,-2.257295608520508,1.4857631921768188,-0.6544966101646423,-1.7186431884765625,-110.37863159179688,-267.9782409667969
1699734495,4.890330505371094,9.510921936035157,1.9978953552246093,-2.4001729488372803,1.3194633722305298,-0.5904070734977722,-2.2329864501953125,-110.0541534423828,-265.6897277832031
1699734495,4.04084701538086,9.318272552490235,1.8241067504882813,-2.5267493724823,1.227524757385254,-0.6115432977676392,-2.5235137939453125,-109.86703491210938,-264.740234375
1699734495,2.8168423461914065,9.237590332031251,1.7977615356445311,-2.5970280170440674,1.1548107862472534,-0.7284895777702332,-2.8946075439453125,-109.58009338378906,-262.7452392578125
1699734495,1.4112652587890626,9.49236053466797,1.847757568359375,-2.629267930984497,1.0902962684631348,-0.9433622360229492,-3.1927947998046875,-109.20257568359376,-261.5821228027344
1699734495,0.3454815673828125,9.880353698730469,2.14354248046875,-2.593503475189209,1.071147322654724,-1.2154030799865725,-4.0096435546875,-109.30023193359376,-259.358154296875
1699734495,-0.3323089599609375,10.047106933593753,2.462080078125,-2.4931633472442627,1.0947085618972778,-1.4769502878189087,-4.409194946289063,-109.58238220214844,-257.6834411621094
1699734495,-0.7908055114746094,9.98333953857422,2.786904602050781,-2.35171127319336,1.1270582675933838,-1.6669055223464966,-5.7953033447265625,-109.38296508789062,-256.13775634765625
1699734495,-1.0734178161621095,9.535171508789062,2.895129547119141,-2.1701292991638184,1.1052533388137815,-1.7336150407791138,-6.7404327392578125,-109.78797912597656,-254.5634307861328
1699734495,-1.2635224914550782,8.96306121826172,2.6599685668945314,-1.945837020874024,0.9838148355484008,-1.704530119895935,-7.136245727539063,-110.1871337890625,-253.48989868164065
1699734495,-1.4660513305664062,8.705297241210937,2.381996612548828,-1.728818416595459,0.7745047807693481,-1.5832839012145996,-8.593719482421875,-110.6436004638672,-251.85264587402344
1699734495,-1.53520751953125,8.200397186279297,2.1674926757812503,-1.562977313995361,0.5048192143440247,-1.4250431060791016,-9.822860717773438,-111.0600128173828,-251.3007049560547
1699734495,-1.3281880187988282,7.542964324951172,2.047292633056641,-1.481732964515686,0.2063752710819244,-1.252225041389465,-10.725982666015623,-111.38020324707033,-249.63735961914065
1699734495,-0.6608757019042969,6.634952545166016,1.8125807189941407,-1.4556009769439695,-0.0792399644851684,-1.102168083190918,-11.131317138671877,-111.634521484375,-248.3666839599609
1699734495,0.3433859252929687,5.935606842041016,1.7847386169433594,-1.4376758337020874,-0.2956582903861999,-0.994785487651825,-11.379043579101562,-111.9945831298828,-247.3440399169922
1699734495,1.0219248962402343,5.469476165771485,1.9395167541503908,-1.4007591009140017,-0.418718159198761,-0.9181636571884156,-12.544952392578123,-112.35377502441406,-245.9081420898437
1699734495,1.3575270080566406,5.110372924804688,2.1761746215820312,-1.3173738718032837,-0.4862686991691589,-0.8965340256690979,-12.587051391601562,-113.08636474609376,-244.3348693847656
1699734495,1.5609539794921876,4.793032836914063,2.524200897216797,-1.1787161827087402,-0.5416009426116943,-0.8968509435653687,-12.34515380859375,-112.88331604003906,-243.3219757080078
1699734495,1.4840139770507814,4.371359710693359,3.0805938720703128,-0.9709674715995787,-0.6116607189178467,-0.8901323080062866,-12.90093994140625,-113.24240112304688,-242.3677215576172
1699734495,0.9202862548828126,3.833228759765625,3.8278399658203126,-0.6947910189628601,-0.6666533946990967,-0.8864728212356567,-13.260910034179688,-113.90184020996094,-241.45635986328125
1699734495,-0.0669108581542968,3.63848373413086,4.382286987304688,-0.4009889662265777,-0.5711185932159424,-0.8708211779594421,-13.617935180664062,-114.34942626953124,-240.9443817138672
1699734495,-1.227297821044922,3.720513153076172,4.1903860473632815,-0.1339333057403564,-0.377842903137207,-0.8558307886123657,-13.684219360351562,-114.16001892089844,-240.39556884765625
1699734495,-1.9369720458984376,3.833079071044922,3.331023101806641,0.1236969083547592,-0.2669419646263122,-0.8412542343139648,-14.093536376953123,-114.3630828857422,-240.77804565429688
1699734495,-2.278861083984375,3.6553985595703127,2.5147705078125,0.3775353133678436,-0.3114361763000488,-0.806279182434082,-14.46624755859375,-114.65036010742188,-239.7989959716797
1699734495,-2.4733067321777344,3.344195709228516,2.115999755859375,0.5949355363845825,-0.4373064935207367,-0.7333447933197021,-14.942047119140623,-114.12767028808594,-240.1724853515625
1699734495,-2.5369244384765626,3.0337413024902347,2.1459375,0.7608608603477478,-0.5887804627418518,-0.6497969031333923,-15.563613891601562,-114.68771362304688,-240.2767791748047
1699734495,-2.17422866821289,2.796784057617188,2.312541046142578,0.896975040435791,-0.7548908591270447,-0.607307493686676,-15.433609008789062,-114.26644897460938,-240.6898193359375
1699734495,-1.6462765502929688,2.635269927978516,2.600841522216797,1.031108856201172,-0.9350236058235168,-0.5923458933830261,-15.482284545898438,-113.90750122070312,-240.9569549560547
1699734495,-1.3898597717285155,2.461181945800781,3.173550567626953,1.196304202079773,-1.047993302345276,-0.5727274417877197,-15.474639892578123,-114.11087036132812,-241.1322631835937
1699734495,-1.3006452941894533,2.353705444335937,3.947740631103516,1.39406418800354,-1.0157560110092163,-0.5472135543823242,-15.481735229492188,-113.76048278808594,-242.1723480224609
1699734495,-1.1787986755371094,2.3713687133789065,4.539460144042969,1.602591037750244,-0.8850131630897522,-0.5188801884651184,-16.066925048828125,-113.50003051757812,-242.0564117431641
1699734495,-1.0585986328125,2.5065376281738283,4.991819458007813,1.7373749017715454,-0.7121897339820862,-0.4504965841770172,-16.446640014648438,-112.88108825683594,-242.5569000244141
1699734495,-1.1987072753906252,2.665806427001953,5.646408233642578,1.7312291860580444,-0.5396382212638855,-0.2878685295581817,-16.346176147460938,-112.79443359375,-243.9213409423828
1699734495,-1.4144087219238282,3.150348815917969,6.532266082763672,1.5171078443527222,-0.3102793097496032,-0.0188048463314771,-16.379913330078125,-112.3084716796875,-244.884994506836
1699734495,-1.4034814453125,4.0124061584472654,7.432943115234376,0.9387403130531312,0.0988770425319671,0.3114905059337616,-16.3272705078125,-112.1012725830078,-245.2969207763672
1699734495,-0.5110372924804688,5.812712402343751,9.119036865234376,-0.195275217294693,0.6273137331008911,0.5250056982040405,-16.478485107421875,-111.491455078125,-245.94088745117188
1699734495,1.625769195556641,9.86748046875,14.206058349609377,-0.5722733736038208,0.1088077053427696,0.7178236246109009,-16.407928466796875,-111.00643920898438,-246.1842803955078
1699734495,2.980601806640625,15.432757415771484,19.49216583251953,0.4765673577785492,-0.0672070011496543,0.9069041013717652,-16.17498779296875,-110.60531616210938,-246.0323028564453
1699734495,2.182611236572266,18.537600860595703,17.08217742919922,1.5791524648666382,0.9968595504760742,1.010569453239441,-15.882766723632812,-109.61170959472656,-246.4081573486328
1699734495,1.5527210998535157,17.676741027832033,5.697152709960938,2.433633804321289,1.1704113483428955,0.9351264238357544,-16.14453125,-109.23568725585938,-247.4988250732422
1699734495,0.8536747741699219,13.27888641357422,-4.742138671875,2.9296071529388428,0.6292178630828857,0.8827084898948669,-15.698593139648438,-108.19329833984376,-249.7400360107422
1699734495,0.3921844482421875,9.896819458007814,-5.735622711181641,2.9810001850128174,0.3223870992660522,0.9253169298171996,-15.210922241210938,-107.3790283203125,-251.2935333251953
1699734495,0.0621208190917968,9.0052734375,-3.1222073364257814,2.353126049041748,1.249642252922058,0.951682448387146,-14.6927490234375,-106.50645446777344,-253.0845947265625
1699734495,-0.262254638671875,8.771459655761719,1.0852432250976562,1.3131418228149414,2.890237331390381,0.9548617601394652,-14.626113891601562,-106.106201171875,-254.8390655517578
1699734495,-0.4715194702148437,9.14223861694336,2.2361997985839843,0.5367172360420227,3.8449490070343018,0.9538542628288268,-14.568557739257812,-105.64515686035156,-255.61553955078125
1699734495,-0.8701405334472657,10.187065887451173,1.9956500244140627,0.5192045569419861,3.531029224395752,0.9939337968826294,-14.279281616210938,-104.90008544921876,-256.68878173828125
1699734495,-1.798509979248047,11.404184875488282,4.542304229736328,1.3233146667480469,1.7686233520507812,1.1394786834716797,-14.014389038085938,-104.9792938232422,-258.1106872558594
1699734495,-2.5095314025878905,12.314441986083985,4.4423121643066406,1.766257643699646,0.1089488565921783,1.1456223726272583,-13.562652587890623,-104.4261474609375,-259.2997436523437
1699734495,-2.225721588134766,13.225597229003906,1.543739776611328,1.8118208646774288,-1.2046103477478027,0.8973712921142578,-12.9373779296875,-104.2306671142578,-260.0677795410156
1699734495,-2.203118591308594,13.710738372802735,-0.5541476440429688,1.5195459127426147,-2.0588924884796143,0.4995453655719757,-12.424652099609377,-103.3481903076172,-260.2579345703125
1699734495,-2.6144631958007816,13.18548065185547,-1.6383430480957033,1.0844660997390747,-2.34840989112854,0.1993844807147979,-12.312515258789062,-102.74996948242188,-260.7695007324219
1699734496,-3.1825318908691407,12.180470581054688,-1.0288105773925782,0.7447996139526367,-2.0661141872406006,0.1591784656047821,-11.8797607421875,-103.27203369140624,-261.2923583984375
1699734496,-3.4316139221191406,11.30104934692383,0.2893482971191406,0.6000053882598877,-1.4834460020065308,0.3396214842796325,-12.045089721679688,-102.49142456054688,-260.9281616210937
1699734496,-2.8961773681640626,10.749596099853516,1.240470428466797,0.6326168775558472,-0.861635684967041,0.5657467842102051,-11.4761962890625,-102.36355590820312,-260.276123046875
1699734496,-1.6877403259277344,10.520722045898438,1.9308348083496087,0.7966744899749756,-0.3501753211021423,0.6986952424049377,-11.077056884765623,-102.79061889648438,-261.5234375
1699734496,-0.2110610961914062,10.707832946777344,2.636617126464844,1.0406677722930908,0.0099016325548291,0.6746847033500671,-10.683746337890623,-102.34539794921876,-261.31475830078125
1699734496,1.5513739013671877,10.81486038208008,3.3259336853027346,1.2974073886871338,0.1353644877672195,0.5471972823143005,-10.436004638671877,-102.10173034667967,-262.287841796875
1699734496,3.136876831054688,9.80281494140625,3.435954895019532,1.4616820812225342,0.0996490940451622,0.4297636151313782,-10.183059692382812,-101.70529174804688,-262.3171081542969
1699734496,3.3714390563964844,8.506360931396484,2.764600982666016,1.449744462966919,-0.0323262475430965,0.4062029123306274,-9.608306884765623,-101.73243713378906,-263.45050048828125
1699734496,2.711760864257813,7.421866149902344,1.7714163208007814,1.301576018333435,-0.2070671617984771,0.5004681348800659,-9.562728881835938,-101.64492797851562,-263.7304077148437
1699734496,1.8839822387695315,6.776258697509766,1.0891351318359377,1.126812219619751,-0.3662261962890625,0.6422263383865356,-9.172714233398438,-101.62864685058594,-264.6679077148437
1699734496,1.0458750915527344,6.724616088867188,0.8271798706054688,0.9932469725608826,-0.4846321940422058,0.8133575916290283,-8.838958740234375,-101.41622924804688,-265.2763977050781
1699734496,0.3360511779785156,7.222780151367187,0.7511380004882813,0.9336973428726196,-0.5555894374847412,0.9543773531913756,-7.81427001953125,-100.96205139160156,-265.587890625
1699734496,-0.1913021850585937,8.29679672241211,0.7036866760253907,0.9461138248443604,-0.6016794443130493,1.0147037506103516,-7.458419799804687,-100.84611511230467,-266.41607666015625
1699734496,-0.559237060546875,9.715995483398435,0.4939727783203125,1.0015099048614502,-0.6485316753387451,0.955420732498169,-7.043746948242188,-100.3277587890625,-267.13970947265625
1699734496,-0.79754150390625,11.01903579711914,0.0679586791992187,1.054037094116211,-0.7520077228546143,0.8283421397209167,-6.51885986328125,-100.1487274169922,-266.8392333984375
1699734496,-1.1475137329101563,11.835438079833985,-0.3995191955566406,1.0585455894470217,-0.9021069407463074,0.7067670226097107,-5.6467132568359375,-99.73806762695312,-267.63482666015625
1699734496,-1.6467256164550783,12.06176742553711,-0.6161187744140625,1.044403910636902,-1.0555521249771118,0.6535346508026123,-5.15545654296875,-100.14276123046876,-267.87408447265625
1699734496,-2.107467498779297,11.629616088867188,-0.4073030090332031,1.0130044221878052,-1.1660141944885254,0.6839945912361145,-4.4846038818359375,-99.98982238769533,-268.0286865234375
1699734496,-2.305805053710938,10.675200805664064,-0.0062869262695312,1.0123509168624878,-1.277886986732483,0.7283708453178406,-4.1609649658203125,-99.84432983398438,-268.6961669921875
1699734496,-1.9805314636230469,9.621392211914063,0.2233355712890625,1.0175310373306274,-1.4674235582351685,0.6934447884559631,-3.833648681640625,-99.55870056152344,-268.7387390136719
1699734496,-0.9779164123535156,8.974886627197264,0.3103047180175781,1.0460762977600098,-1.6777446269989014,0.5608654618263245,-3.4867401123046875,-99.83920288085938,-269.2089233398437
1699734496,-0.2707868957519531,8.494385833740235,0.465831298828125,1.0711617469787598,-1.8493834733963013,0.447107195854187,-3.46588134765625,-99.59141540527344,-269.85223388671875
1699734496,-0.0254470825195312,8.069120178222656,0.5182223510742188,1.087154507637024,-1.9170125722885127,0.4037605226039886,-2.9549713134765625,-99.57464599609376,-270.35986328125
1699734496,0.164058837890625,7.917036437988282,0.4975653076171875,1.109175205230713,-1.9086472988128664,0.3883535861968994,-2.588775634765625,-99.62400817871094,-270.3131408691406
1699734496,0.4255650329589844,7.836204528808594,0.4426295471191406,1.1412742137908936,-1.8835960626602173,0.3602671027183532,-2.5574188232421875,-99.76174926757812,-270.5937194824219
1699734496,0.6872209167480469,7.708370361328125,0.4816983032226563,1.1780612468719482,-1.8434674739837649,0.315641850233078,-2.640853881835937,-99.6686553955078,-271.375
1699734496,0.8111631774902344,7.7109150695800786,0.5249583435058593,1.2056928873062134,-1.8114256858825684,0.250823974609375,-2.4919891357421875,-99.81651306152344,-271.71832275390625
1699734496,0.9060658264160156,7.766000518798829,0.6637197875976563,1.1947028636932373,-1.634074091911316,0.2183435261249542,-2.1996002197265625,-99.91586303710938,-271.8804931640625
1699734496,1.1090437316894532,7.843838653564453,1.0665321350097656,1.1195905208587646,-1.3042449951171875,0.1950387358665466,-2.365325927734375,-100.13323974609376,-272.8837890625
1699734496,1.234333190917969,8.191116485595703,1.2025991821289064,1.00555157661438,-0.8946719169616699,0.1526044607162475,-2.193710327148437,-99.87562561035156,-273.34912109375
1699734496,1.2599299621582032,8.549770660400391,1.2371772766113285,0.8907592296600342,-0.4952105283737182,0.0944889560341835,-2.57012939453125,-100.0235595703125,-273.77960205078125
1699734496,1.0614427185058597,8.944050750732423,0.94124267578125,0.7892336249351501,-0.2665222287178039,0.0267061796039342,-2.34051513671875,-99.79379272460938,-274.4892578125
1699734496,0.5411247253417969,9.327253875732424,0.3969744873046875,0.6942448019981384,-0.1725344806909561,-0.0253090839833021,-2.2765350341796875,-100.26528930664062,-275.0537109375
1699734496,0.0800834655761718,9.679471435546876,0.2124082946777344,0.5856970548629761,-0.0978647768497467,-0.0116667756810784,-2.668548583984375,-100.14460754394533,-275.06201171875
1699734496,-0.1207987976074218,9.773326263427736,0.1764830017089843,0.4916000962257385,-0.0044085970148444,0.0378544367849826,-2.26556396484375,-100.26022338867188,-275.87158203125
1699734496,-0.1143621826171875,9.789193267822265,0.4489164733886719,0.4334108233451843,0.1243520453572273,0.0928819999098777,-2.6607208251953125,-100.22175598144533,-275.8455810546875
1699734496,-0.1451980590820312,9.84158432006836,0.8105644226074219,0.3938865959644317,0.2638918459415436,0.1595680862665176,-2.4659423828125,-100.180419921875,-276.1097412109375
1699734496,-0.20836669921875,10.05324417114258,1.1552975463867188,0.34930419921875,0.4146344661712646,0.2132398337125778,-1.861572265625,-100.42535400390624,-275.5472412109375
1699734496,-0.3731739807128906,10.529703369140623,1.3844709777832032,0.2861689031124115,0.5419117212295532,0.2324377745389938,-1.66412353515625,-100.31051635742188,-276.1209716796875
1699734496,-0.6201603698730469,10.89644073486328,1.2479548645019531,0.1930091381072998,0.5593535900115967,0.2049323767423629,-1.5902252197265625,-100.5441436767578,-276.6326904296875
1699734496,-0.8286767578125,11.064690856933597,0.7141648864746094,0.0619432628154754,0.4426064491271972,0.1426524817943573,-1.79144287109375,-100.67634582519533,-276.1044311523437
1699734496,-0.967587890625,11.251951446533203,0.0570314025878906,-0.0796018838882446,0.2037544548511505,0.0554890930652618,-1.102569580078125,-100.17691040039062,-276.4739990234375
1699734496,-0.9532177734375,11.573033752441408,-0.3662882995605468,-0.1839916706085205,-0.0848688185214996,-0.0265527814626693,-1.2916259765625,-100.0148468017578,-276.1521301269531
1699734496,-0.8231382751464844,12.015513610839845,-0.4192781066894531,-0.2150297462940216,-0.3271216750144958,-0.0858909413218498,-1.5921630859375,-100.09381103515624,-275.6031494140625
1699734496,-0.7086264038085938,12.499008178710938,-0.2317181396484375,-0.1750799417495727,-0.4632076025009155,-0.0952407643198967,-2.016510009765625,-100.02056884765624,-275.9458923339844
1699734496,-0.6306385803222656,13.133538665771486,-0.2031275939941406,-0.1290634423494339,-0.5021646022796631,-0.0854496508836746,-1.3899383544921875,-100.20169067382812,-275.67828369140625
1699734496,-0.4126918029785156,14.03241943359375,-0.5438191223144532,-0.1052337437868118,-0.4812350571155548,-0.0655126944184303,-1.4048004150390625,-100.20327758789062,-275.6968994140625
1699734496,-0.2125579833984375,14.973213043212892,-1.0403366088867188,-0.1240926533937454,-0.4389776289463043,-0.0397026725113391,-1.7482147216796875,-100.34344482421876,-275.0028991699219
1699734496,-0.1142124938964843,15.843353576660157,-1.5323634338378906,-0.1891142576932907,-0.4100032448768616,-0.0005222458858042,-1.2264556884765625,-100.03822326660156,-274.8955383300781
1699734496,-0.0360749816894531,16.585959320068362,-1.915416870117188,-0.2855097651481628,-0.4060795903205871,0.0367223285138607,-1.2942352294921875,-100.05804443359376,-274.17291259765625
1699734496,0.2329156494140625,17.169595642089845,-1.8738034057617188,-0.3500155210494995,-0.4067406058311462,0.0396507382392883,-1.30126953125,-99.78840637207033,-274.3565673828125
1699734496,0.7804769897460938,17.52525604248047,-1.1874806213378908,-0.3346893191337585,-0.3783987164497375,-0.0207494869828224,-1.376190185546875,-99.7323760986328,-272.8459167480469
1699734496,1.4570700073242189,17.2296208190918,0.0258961486816406,-0.264646828174591,-0.2581913471221924,-0.0913253873586654,-1.2571868896484375,-99.24197387695312,-273.1521911621094
1699734496,1.7694703674316408,15.91580291748047,1.2684622192382813,-0.277764230966568,-0.0038461373187601,-0.0988639965653419,-0.9982147216796876,-99.33738708496094,-272.4252624511719
1699734496,1.7694703674316408,14.230607299804689,2.271226959228516,-0.4850188791751861,0.3582859635353088,-0.0838541537523269,-0.9817352294921876,-99.48086547851562,-272.1716003417969
1699734496,1.9417620849609376,12.760214996337892,2.884501647949219,-0.8600316643714905,0.6954506635665894,-0.1078819930553436,-0.5820770263671875,-98.8826141357422,-271.2147827148437
1699734496,2.1571641540527344,11.446397094726564,3.378025360107422,-1.3218573331832886,0.9309281706809998,-0.1778445690870285,-0.6342010498046875,-99.16976928710938,-269.876953125
1699734496,2.3646327209472657,10.419981536865237,4.067641296386719,-1.7693877220153809,1.0140334367752075,-0.2907287776470184,-0.1457061767578125,-98.70034790039062,-268.9925842285156
1699734496,2.465822296142578,9.854906616210938,4.77087890625,-2.123209238052368,0.9694827795028688,-0.431721568107605,-0.488372802734375,-98.56692504882812,-267.5185546875
1699734496,2.1716839599609377,9.900561676025392,5.176535339355469,-2.377150774002075,0.958178162574768,-0.5399918556213379,-0.547454833984375,-98.59535217285156,-265.3721923828125
1699734496,1.2516970825195313,10.476563873291015,5.369035034179688,-2.585264205932617,1.1476436853408811,-0.5596175193786621,-0.415985107421875,-98.12150573730467,-263.1420288085937
1699734496,0.3561094665527344,11.115585021972656,5.299130401611328,-2.7957658767700195,1.5069446563720703,-0.5702187418937683,-0.68524169921875,-98.30113220214844,-261.12725830078125
1699734496,0.2830613708496093,11.602223052978516,4.759951629638672,-2.979219436645508,1.927953600883484,-0.7108086347579956,-0.9853973388671876,-98.5027313232422,-258.9263916015625
1699734496,0.5948629760742188,11.837683410644532,3.893553314208984,-3.0734312534332275,2.3158416748046875,-1.0093209743499756,-1.493133544921875,-98.3817138671875,-256.7555847167969
1699734496,0.6679110717773438,11.813284149169922,2.915636901855469,-3.02783465385437,2.51481032371521,-1.3121846914291382,-1.767486572265625,-98.58656311035156,-255.10194396972656
1699734496,0.4300556945800781,11.505823516845703,1.7682728576660156,-2.756720781326294,2.310544490814209,-1.466381549835205,-3.296905517578125,-98.95651245117188,-252.39791870117188
1699734496,0.2758763122558594,11.370055847167968,0.3661386108398438,-2.298361301422119,1.7816438674926758,-1.4574497938156128,-4.2660980224609375,-99.54353332519533,-250.34439086914065
1699734496,0.4697232055664063,11.263477478027344,-1.0075547790527344,-1.8311959505081177,1.1437331438064575,-1.327867865562439,-5.366851806640625,-99.813232421875,-249.0929412841797
1699734496,0.6442602539062501,10.787916412353516,-2.325713653564453,-1.4374427795410156,0.5689271092414856,-1.1856040954589844,-6.275421142578125,-100.52822875976562,-247.44241333007807
1699734496,0.7816744995117187,10.058782653808594,-3.150797882080078,-1.1650091409683228,0.1493665874004364,-1.043254256248474,-6.9395294189453125,-100.40411376953124,-246.25927734375
1699734496,0.6804849243164063,8.989256744384765,-3.790268096923828,-1.0284757614135742,-0.211746335029602,-0.9057064652442932,-7.105560302734375,-101.15753173828124,-245.04595947265625
1699734496,0.4272116088867188,7.927664337158204,-3.906426544189453,-1.0061955451965332,-0.4628217220306396,-0.8019313216209412,-7.348114013671875,-101.6103057861328,-243.60128784179688
1699734496,0.3032693481445312,7.219187622070313,-3.121458892822266,-1.0950084924697876,-0.4734770059585571,-0.7785165309906006,-7.5331878662109375,-101.90805053710938,-242.59918212890625
1699734496,0.2963836669921875,6.9501969909667976,-1.7836907958984376,-1.3759628534317017,-0.2292302548885345,-0.8524664044380188,-7.9111480712890625,-102.72781372070312,-241.124267578125
1699734496,0.0892144775390625,7.107819213867188,-0.4390370178222657,-1.9102287292480469,0.2296068221330642,-0.9944509863853456,-8.165069580078125,-103.46347045898438,-239.8134765625
1699734496,-0.1685494995117187,7.6088273620605476,1.0063572692871094,-2.5910861492156982,0.7667954564094543,-1.220043659210205,-8.36767578125,-103.8463897705078,-238.28895568847656
1699734496,-0.5071453857421875,8.553512878417969,2.8219317626953124,-3.1193017959594727,0.8929429650306702,-1.4599390029907229,-9.386367797851562,-105.13059997558594,-236.2586669921875
1699734496,-1.0324031066894532,9.1344548034668,4.994364166259766,-3.071058511734009,0.1043833941221237,-1.6364232301712036,-10.465576171875,-106.56375122070312,-233.5979461669922
1699734496,-1.490749969482422,9.27261749267578,7.299271087646485,-2.736668825149536,-0.7335003614425659,-1.7375266551971436,-10.923553466796877,-107.63031005859376,-232.270263671875
1699734496,-1.3665083312988282,9.188342742919923,7.299720153808594,-2.310652732849121,-1.1721357107162476,-1.765225172042847,-11.166580200195312,-109.33673095703124,-229.7183990478516
1699734496,-1.193767547607422,8.654253387451172,6.491700439453125,-1.8340774774551392,-1.1694129705429075,-1.7302660942077637,-11.729339599609377,-110.60731506347656,-228.56607055664065
1699734496,-1.1202703857421876,7.925868072509766,5.378615112304688,-1.3618953227996826,-0.8244009613990784,-1.6746052503585815,-11.750518798828123,-111.51568603515624,-226.92491149902344
1699734496,-1.0406359863281252,7.087461547851563,3.946692810058594,-1.0006273984909058,-0.3899514973163605,-1.5987653732299805,-12.198898315429688,-112.4501953125,-225.4920959472656
1699734496,-0.9906399536132812,6.195765838623047,2.1674926757812503,-0.8672815561294556,-0.1446519941091537,-1.4793635606765747,-12.711471557617188,-113.58363342285156,-224.7801208496093
1699734496,-0.8454418945312501,5.621410217285156,0.6173162841796875,-0.9423608779907228,-0.0821800902485847,-1.2798779010772705,-13.161102294921877,-114.23054504394533,-223.8241577148437
1699734496,-0.5457650756835938,5.287754058837891,-0.1850152587890625,-1.1604870557785034,-0.1347439587116241,-1.0371289253234863,-13.51336669921875,-114.99180603027344,-222.9545135498047
1699734496,-0.1534309387207031,5.154830474853516,-0.1911524963378906,-1.3929070234298706,-0.1790525764226913,-0.7920661568641663,-13.444732666015623,-115.89710998535156,-222.2825927734375
1699734496,0.3266207885742188,5.092859344482422,0.3929328918457031,-1.5641120672225952,-0.1775798499584198,-0.5828157663345337,-13.653701782226562,-116.6671905517578,-221.51968383789065
1699734496,0.8529263305664063,4.923860778808594,1.172212371826172,-1.6371265649795532,-0.1853078007698059,-0.4746341705322265,-13.733734130859377,-117.57150268554688,-220.5594024658203
1699734496,1.3774356079101564,4.644541625976562,1.903591461181641,-1.598968267440796,-0.3090236186981201,-0.4584653079509735,-13.668670654296877,-118.8979949951172,-219.4097137451172
1699734496,1.6238232421875,4.311633911132812,2.5090823364257813,-1.4634480476379397,-0.5537305474281311,-0.4969498515129089,-13.882705688476562,-119.52871704101562,-218.4291076660156
1699734496,1.533710632324219,3.830684051513672,3.4609529113769533,-1.2119367122650146,-0.7575846314430237,-0.5426563620567322,-12.98638916015625,-120.42738342285156,-217.6622009277344
1699734496,1.0133926391601562,3.368445281982422,4.609813842773438,-0.8933890461921692,-0.7793540954589844,-0.5713273882865906,-12.891571044921877,-121.2118682861328,-217.1094512939453
1699734496,0.2739303588867187,3.104843444824219,5.431904296875,-0.5657755136489868,-0.594003438949585,-0.560071587562561,-12.781768798828123,-121.95298767089844,-216.5984649658203
1699734496,-0.3611988830566406,3.040327606201172,5.731581115722657,-0.2755348980426788,-0.2990780472755432,-0.5090627074241638,-12.428085327148438,-122.08355712890624,-216.0807342529297
1699734496,-0.7911048889160157,3.104843444824219,5.479505310058594,-0.0491001680493354,-0.0448998287320137,-0.4431270956993103,-12.488525390625,-122.36979675292967,-215.9525756835937
1699734496,-1.143921203613281,3.2982412719726564,4.916226654052735,0.0947701856493949,0.0724654123187065,-0.3717043101787567,-12.655426025390623,-122.4650421142578,-215.439453125
1699734496,-1.5191908264160157,3.5606455993652344,4.450095977783203,0.1851317733526229,0.1276562362909317,-0.3158109486103058,-13.133438110351562,-122.50425720214844,-216.115966796875
1699734496,-1.8992504882812504,3.8215530395507815,4.530628509521485,0.274963915348053,0.2409537583589553,-0.2833930850028991,-13.077346801757812,-122.32615661621094,-215.89019775390625
1699734497,-2.228415985107422,4.032464447021485,5.078489227294922,0.3866547644138336,0.4776493906974792,-0.2811246216297149,-13.455551147460938,-122.07395935058594,-216.12252807617188
1699734497,-2.5342300415039065,4.218228149414062,5.8176521301269535,0.5336676239967346,0.8189289569854736,-0.2943701148033142,-13.66461181640625,-121.66551208496094,-216.1999969482422
1699734497,-2.857857055664063,4.514462127685547,6.516997833251954,0.7368021011352539,1.1699727773666382,-0.3349446952342987,-14.599685668945312,-121.77970886230467,-216.45054626464844
1699734497,-3.2394136047363284,5.026996307373048,6.956633605957031,1.009968638420105,1.4105373620986938,-0.4039320349693298,-15.52984619140625,-121.00201416015624,-216.8286895751953
1699734497,-3.672612762451172,5.625152435302734,6.871460723876954,1.3247207403182983,1.4997490644454956,-0.4918911755084991,-16.184295654296875,-120.72569274902344,-217.7869873046875
1699734497,-4.092789001464844,6.166726226806641,6.268664245605469,1.601337432861328,1.4190866947174072,-0.5625192523002625,-16.916778564453125,-119.77490234375,-218.64968872070312
1699734497,-4.496349792480469,6.54603744506836,5.443729705810547,1.806090831756592,1.1715372800827026,-0.5561255812644958,-18.090072631835938,-119.21295166015624,-219.9208984375
1699734497,-4.9371830749511725,6.76593017578125,4.77087890625,1.912692904472351,0.7846522331237793,-0.4489423632621765,-18.9981689453125,-118.22038269042967,-221.0517578125
1699734497,-5.400769042968751,6.924300842285157,4.440515899658204,1.96596360206604,0.3361859917640686,-0.2443207949399948,-19.30279541015625,-117.91300964355467,-222.6527557373047
1699734497,-5.847290496826172,7.064110107421875,4.394860839843751,2.002244710922241,-0.0349955335259437,0.0342264138162136,-19.25679016113281,-116.6111297607422,-222.9962310791016
1699734497,-6.102509765625,7.051985321044922,4.231251068115235,2.1034255027771,-0.180010512471199,0.3635526597499847,-19.374496459960938,-115.74403381347656,-224.08213806152344
1699734497,-6.079607391357422,6.829398193359375,3.693868560791016,2.241549730300904,-0.1207306757569313,0.7206114530563354,-19.395904541015625,-114.57167053222656,-225.8180084228516
1699734497,-5.828280029296876,6.746021575927735,3.945944366455078,2.012837171554565,0.3950767517089844,1.0034633874893188,-18.880340576171875,-113.0652313232422,-226.22164916992188
1699734497,-5.516628112792969,7.903714141845703,7.826325073242188,1.1630860567092896,1.280585765838623,1.2688803672790527,-18.271453857421875,-112.29254150390624,-227.6127166748047
1699734497,-3.8249958801269535,12.131971435546877,13.386961669921876,0.7265662550926208,1.3775293827056885,1.578320860862732,-18.190689086914062,-111.4661865234375,-228.6229705810547
1699734497,-1.5732284545898438,17.75847106933594,13.225597229003906,1.280606031417847,0.6587361097335815,1.5782272815704346,-17.826141357421875,-110.52767944335938,-229.96473693847656
1699734497,-2.0326231384277347,20.233723754882813,7.204218750000001,2.0280091762542725,-0.3477318584918976,1.1881123781204224,-16.969863891601562,-109.54043579101562,-229.6919403076172
1699734497,-3.0358369445800784,20.330422668457032,2.369273071289063,2.1423263549804688,-0.7599133253097534,0.6506779193878174,-16.323715209960938,-108.75578308105467,-230.8207550048828
1699734497,-3.6181260681152345,18.49523895263672,1.9471508789062504,1.619719624519348,-0.2387526631355285,0.4080157279968261,-15.621856689453123,-107.61468505859376,-231.51158142089844
1699734497,-4.1164398193359375,15.212116241455078,2.273023223876953,1.1056333780288696,0.3582249879837036,0.5762039422988892,-15.395599365234377,-107.13873291015624,-232.2960968017578
1699734497,-4.067042541503906,12.05084014892578,1.979034576416016,0.8555724620819092,0.7731255292892456,0.912437617778778,-14.83544921875,-106.21908569335938,-232.89048767089844
1699734497,-3.1055918884277345,9.735455017089844,2.9195288085937503,0.9322786927223206,0.7841073274612427,1.1442090272903442,-14.6016845703125,-105.8713836669922,-233.5182647705078
1699734497,-1.420096893310547,8.170010375976563,2.595752105712891,1.177311658859253,0.32943195104599,1.207369327545166,-14.05615234375,-105.53962707519533,-233.91165161132807
1699734497,-0.2613565063476563,6.977739715576172,1.529219970703125,1.4127483367919922,-0.312088131904602,1.1746803522109983,-13.390045166015623,-105.01318359375,-234.59767150878903
1699734497,0.233514404296875,5.926475830078125,0.8105644226074219,1.545544981956482,-0.8749306797981262,1.1163105964660645,-12.1446533203125,-104.2058563232422,-235.17501831054688
1699734497,0.4580474853515625,5.219346313476563,0.4923262023925781,1.533416509628296,-1.2301883697509766,1.0635086297988892,-10.952621459960938,-103.92320251464844,-235.7344665527344
1699734497,0.5878276062011719,4.882846069335938,0.5541476440429688,1.3731544017791748,-1.3094379901885986,1.0439122915267944,-9.711898803710938,-103.3141632080078,-235.75135803222656
1699734497,0.659678192138672,5.131179656982422,0.8985813903808594,1.158799171447754,-1.0548889636993408,1.0576512813568115,-8.762496948242188,-102.70431518554688,-236.7886657714844
1699734497,0.8390052795410157,6.540498962402344,1.5057188415527345,1.0003514289855957,-0.5769344568252563,1.1031275987625122,-8.114730834960938,-102.6333465576172,-237.37936401367188
1699734497,0.7587721252441406,9.136700134277344,1.7335450744628906,0.9784736037254332,-0.1195847168564796,1.1065311431884766,-7.269775390625,-101.72933959960938,-237.2770233154297
1699734497,0.2228865051269531,11.761791229248049,1.4594650268554688,1.086406946182251,0.1975349187850952,1.0325556993484497,-6.35797119140625,-101.11166381835938,-238.1879272460937
1699734497,-0.628692626953125,13.711337127685548,0.8951385498046875,1.2584881782531738,0.3382526040077209,0.9055421352386476,-5.932891845703125,-100.96160888671876,-238.8864898681641
1699734497,-1.3883628845214844,14.928755493164063,0.4775070190429687,1.4558182954788208,0.3551375865936279,0.7699376940727234,-5.53082275390625,-100.49951171875,-239.7678985595703
1699734497,-1.975591735839844,15.318245544433594,0.7921527099609376,1.637425422668457,0.4096346497535705,0.6385802030563354,-4.8270111083984375,-100.17164611816406,-240.66241455078125
1699734497,-2.4442671203613284,14.56546096801758,1.6747174072265625,1.7838419675827026,0.5091511011123657,0.4976071119308471,-4.5455322265625,-99.73162841796876,-241.7746124267578
1699734497,-2.7957362365722656,12.3726708984375,2.2601499938964844,1.8163424730300903,0.5920438766479492,0.4108437299728393,-4.453781127929688,-99.43008422851562,-242.7499847412109
1699734497,-2.566263427734375,9.524244232177736,2.036365356445313,1.6950095891952517,0.4990047514438629,0.4266269505023956,-4.07275390625,-99.34344482421876,-244.5129547119141
1699734497,-1.6483721923828123,7.467371520996094,1.2219090270996094,1.475127100944519,0.1996902078390121,0.5167350172996521,-4.093307495117188,-98.72073364257812,-245.1688232421875
1699734497,-0.8451425170898438,6.553372192382813,0.4673281860351563,1.2413846254348757,-0.2214136123657226,0.6353849768638611,-3.361572265625,-98.59706115722656,-246.7484130859375
1699734497,-0.3647914123535156,6.362219696044922,-0.0339793395996093,1.048355221748352,-0.6826635003089905,0.7519493699073792,-2.704818725585937,-98.36683654785156,-246.9032440185547
1699734497,-0.0582289123535156,6.6223786926269534,-0.2007325744628906,0.9259999990463256,-1.0768492221832275,0.8371788263320923,-2.0850830078125,-98.08186340332033,-247.0377960205078
1699734497,0.0693058776855468,7.12563217163086,0.0931063842773437,0.8838967680931091,-1.3426334857940674,0.8764684200286865,-1.21075439453125,-97.8816375732422,-247.4795379638672
1699734497,0.1219963073730468,7.728278961181641,0.3683839416503906,0.9092788100242616,-1.4526957273483276,0.8757967352867126,-0.4408111572265625,-97.75059509277344,-248.1654357910156
1699734497,0.0293389892578125,8.303383026123047,0.4854405212402344,0.9543312788009644,-1.493437886238098,0.8512741327285767,0.67352294921875,-97.23031616210938,-248.1475982666016
1699734497,-0.2749781799316406,8.756490783691406,0.1679507446289062,0.9876617789268494,-1.5250450372695925,0.808365523815155,1.2026214599609375,-97.2143096923828,-249.3267059326172
1699734497,-0.6821315002441407,9.097481689453126,-0.2496807861328125,1.015318751335144,-1.524605393409729,0.7638012766838074,2.2629852294921875,-97.25772094726562,-249.7489318847656
1699734497,-1.0523117065429688,9.266629943847656,-0.3426374816894531,1.0514343976974487,-1.42396342754364,0.6987117528915405,2.99005126953125,-97.03236389160156,-250.20887756347656
1699734497,-1.2564871215820312,9.187294921875,-0.075443115234375,1.0941112041473389,-1.2758957147598269,0.6265802979469299,3.333358764648437,-96.76765441894533,-251.11932373046875
1699734497,-1.4096186828613282,8.939410400390626,0.2161505126953125,1.1263411045074463,-1.129801630973816,0.5523465275764465,4.2197265625,-96.79788208007812,-251.27088928222656
1699734497,-1.4073733520507814,8.603059844970703,0.4146377563476562,1.1391208171844482,-1.0314306020736694,0.4734067022800445,4.790863037109375,-96.6508331298828,-251.87586975097656
1699734497,-1.2461585998535156,8.101153564453126,0.4686753845214844,1.1232830286026,-1.010774850845337,0.3952972590923309,5.46160888671875,-96.57994079589844,-252.7758178710937
1699734497,-0.9481283569335938,7.542814636230469,0.4998106384277344,1.089160442352295,-1.0123077630996704,0.3067887127399444,5.8145599365234375,-96.50674438476562,-253.74978637695312
1699734497,-0.5295986938476562,7.090605010986328,0.7054829406738281,1.0456407070159912,-0.9807567596435548,0.2154918015003204,6.0862884521484375,-96.67108154296876,-254.35118103027344
1699734497,-0.1487905883789062,6.822213134765625,0.9105564880371094,0.987246036529541,-0.9095256924629213,0.1376595944166183,6.347625732421875,-96.45367431640624,-255.1918029785156
1699734497,0.1300794982910156,6.755451965332032,1.128503265380859,0.9256839156150818,-0.7595931887626648,0.0998283252120018,6.2901611328125,-96.4696807861328,-255.4696502685547
1699734497,0.3474275207519531,6.918762359619141,1.3762380981445312,0.8500908613204956,-0.5303086042404175,0.0968213528394699,6.355148315429688,-96.06288146972656,-255.8860778808593
1699734497,0.4737648010253906,7.296427001953125,1.3867163085937502,0.7526527047157288,-0.2857460081577301,0.1088716238737106,6.4912872314453125,-95.93247985839844,-256.9755249023437
1699734497,0.3975732421875,7.721243591308594,1.1852352905273438,0.639277458190918,-0.0685321912169456,0.1308080852031707,6.6144561767578125,-96.13014221191406,-257.444580078125
1699734497,0.1917512512207031,8.349636840820313,0.79275146484375,0.5395220518112183,0.0521140657365322,0.1306149959564209,6.981414794921875,-96.12368774414062,-257.93621826171875
1699734497,-0.216749267578125,9.07517807006836,0.4053570556640625,0.4573579728603363,0.1161804050207138,0.1292895525693893,6.6244964599609375,-95.55813598632812,-258.46124267578125
1699734497,-0.7906558227539063,9.726473693847655,0.1234931945800781,0.3858933746814728,0.1071421653032302,0.1120857894420623,6.764129638671875,-95.56088256835938,-258.25616455078125
1699734497,-1.33402587890625,10.38240966796875,-0.3332070922851562,0.3079964518547058,0.0216767992824316,0.0921515002846717,7.011932373046875,-95.32142639160156,-258.89129638671875
1699734497,-1.7272581481933595,10.885363769531253,-0.7729925537109376,0.2122901529073715,-0.0994112789630889,0.1024014726281166,7.28955078125,-95.39396667480467,-259.24627685546875
1699734497,-2.028880920410157,11.281290435791016,-0.9713301086425782,0.1240761429071426,-0.2127245217561721,0.1320680230855941,7.3347320556640625,-95.2031707763672,-259.10601806640625
1699734497,-2.190245361328125,11.630364532470704,-0.6700067138671876,0.0698834806680679,-0.22166608273983,0.1859301924705505,7.4235992431640625,-95.34564208984376,-259.546630859375
1699734497,-2.3402334594726564,11.855646057128906,0.068258056640625,0.0638879016041755,-0.0930841341614723,0.2437617927789688,7.76422119140625,-95.26622009277344,-259.7666015625
1699734497,-2.545606384277344,11.954290924072266,0.89813232421875,0.0871532782912254,0.10767612606287,0.2862440049648285,7.8975830078125,-94.92385864257812,-259.97430419921875
1699734497,-2.725382537841797,12.025243377685548,1.4913487243652344,0.1509005725383758,0.3514317870140075,0.2923384010791778,8.082351684570312,-94.97444152832033,-259.86431884765625
1699734497,-2.800825653076172,12.115505676269532,1.7928218078613285,0.1927817016839981,0.5142436027526855,0.257473349571228,8.4754638671875,-95.07078552246094,-260.50836181640625
1699734497,-2.8756700134277344,12.39856704711914,1.379381561279297,0.1740234643220901,0.5217382907867432,0.1789053082466125,8.546966552734375,-95.00807189941406,-260.4443359375
1699734497,-2.8325596618652344,12.693154449462892,0.6349795532226563,0.1090061143040657,0.336034208536148,0.0825356245040893,8.85693359375,-95.0928955078125,-260.25909423828125
1699734497,-2.689457244873047,13.006602630615236,-0.1716929626464843,0.0105703528970479,-0.0208413656800985,-0.0097951060160994,9.09039306640625,-95.30825805664062,-260.4058837890625
1699734497,-2.3834934997558594,13.405223693847656,-0.779578857421875,-0.0822613164782524,-0.4382548332214355,-0.0731162875890731,8.900741577148438,-94.7819366455078,-260.48785400390625
1699734497,-1.8642233276367188,13.861025848388673,-1.0515632629394531,-0.1568740308284759,-0.7938161492347717,-0.1198888570070266,9.086151123046877,-94.7877960205078,-260.78094482421875
1699734497,-1.3058843994140623,14.180311889648438,-0.9756710815429688,-0.1946232765913009,-1.006533980369568,-0.1337423473596573,9.389007568359377,-94.83831787109376,-260.6689453125
1699734497,-0.9192384338378908,14.39646240234375,-0.7990383911132813,-0.2078567892313003,-1.0637751817703247,-0.1087632328271865,9.388748168945312,-95.2545928955078,-260.763671875
1699734497,-0.6966513061523438,14.630725250244142,-0.6821315002441407,-0.2255793362855911,-1.0175446271896362,-0.0687175467610359,9.428726196289062,-94.97024536132812,-259.9324951171875
1699734497,-0.4876858520507813,14.941179656982422,-0.7110214233398438,-0.2599838972091675,-0.913566529750824,-0.0170543510466814,9.892486572265623,-95.1826629638672,-260.1317138671875
1699734497,-0.2314187622070312,15.266902313232425,-0.6494993591308594,-0.2915775179862976,-0.7873893976211548,0.0095839174464344,10.473236083984377,-95.1942901611328,-259.4373779296875
1699734497,0.1570234680175781,15.581697692871094,-0.3291654968261719,-0.3213830888271332,-0.6084238886833191,0.0042546661570668,9.94989013671875,-95.1601104736328,-259.312744140625
1699734497,0.6518943786621094,15.733482055664064,0.1163081359863281,-0.383777767419815,-0.4068242311477661,-0.0262526422739028,10.127151489257812,-95.0391082763672,-258.63018798828125
1699734497,1.0789562988281252,15.29070281982422,0.3567082214355468,-0.5438132286071777,-0.2097556293010711,-0.0445560179650783,10.209915161132812,-95.32244873046876,-258.3752746582031
1699734497,1.3936019897460938,14.165193328857423,0.7042854309082032,-0.8133776187896729,0.0484674014151096,-0.0414401181042194,10.59814453125,-95.1471710205078,-258.0204162597656
1699734497,1.6839981079101562,12.668904876708986,1.452279968261719,-1.17844820022583,0.3486570417881012,-0.0432462729513645,11.192779541015623,-95.35711669921876,-257.783447265625
1699734497,1.9369720458984376,11.315868530273438,2.2444326782226565,-1.6160551309585571,0.5853177905082703,-0.0748420134186744,10.660491943359377,-95.60377502441406,-256.2956237792969
1699734497,2.1944366455078126,10.393786010742188,2.9687763977050783,-2.011735916137696,0.7080429196357727,-0.1797620356082916,11.00799560546875,-95.9364776611328,-254.64764404296875
1699734497,2.4304957580566406,10.134076080322266,3.660637664794922,-2.277689218521118,0.7440477609634399,-0.329091876745224,10.924942016601562,-96.18844604492188,-253.5948638916016
1699734497,2.4406745910644534,10.501112823486327,4.0671922302246095,-2.436365842819214,0.7973413467407227,-0.4638685882091522,11.122238159179688,-96.2592315673828,-252.1488647460937
1699734497,1.8546432495117189,11.169173583984376,4.278702392578126,-2.599654197692871,1.0121666193008425,-0.5279698371887207,11.426498413085938,-96.77532958984376,-249.8150177001953
1699734497,0.6810836791992188,11.621383209228515,4.481979675292969,-2.785245180130005,1.411644697189331,-0.5289804935455322,10.756210327148438,-97.23210144042967,-248.36111450195312
1699734497,-0.0583786010742187,11.77676010131836,4.361929321289063,-2.9693620204925537,1.9223804473876955,-0.5871196985244751,10.731536865234377,-97.71115112304688,-246.1043701171875
1699734497,-0.0739462280273437,11.937525787353517,3.655847625732422,-3.127335548400879,2.395892381668091,-0.8306806683540344,10.203887939453123,-98.49227905273438,-243.4112091064453
1699734497,0.0236508178710937,12.162058868408204,2.590662689208985,-3.161017894744873,2.676812171936035,-1.1901330947875977,9.415206909179688,-99.07635498046876,-240.85275268554688
1699734497,-0.1228944396972656,12.071197814941408,1.4120137023925785,-2.9839658737182617,2.584859848022461,-1.4267667531967163,8.008880615234375,-100.126953125,-238.40719604492188
1699734497,-0.3785627746582031,11.829749908447264,0.2305206298828125,-2.512673854827881,2.201720952987671,-1.4966661930084229,6.4199981689453125,-100.94384765625,-235.996322631836
1699734497,-0.2088157653808593,11.677965545654295,-0.5303471374511719,-1.906798005104065,1.743814468383789,-1.412685513496399,5.1894378662109375,-102.40370178222656,-234.3759765625
1699734497,0.3588038635253906,11.28967300415039,-1.2519964599609377,-1.3573157787322998,1.3525893688201904,-1.2465330362319946,4.333038330078125,-103.15098571777344,-233.0450592041016
1699734497,0.9868977355957032,10.615025939941408,-1.7348922729492189,-0.9885350465774536,1.094604730606079,-1.0741887092590332,3.5149688720703125,-103.6318359375,-232.1190185546875
1699734497,1.244362335205078,9.580826568603516,-2.1845571899414065,-0.8517601490020752,0.8914622664451599,-0.9569960236549376,2.650619506835937,-104.32769775390624,-231.4445953369141
1699734497,1.2886701965332032,8.57222396850586,-2.325863342285156,-0.9750458598136902,0.7573023438453674,-0.9024443626403807,2.1636505126953125,-104.769287109375,-231.2077178955078
1699734498,1.149609375,7.895032196044922,-1.7407301330566407,-1.2694138288497925,0.7192681431770325,-0.9498627185821532,1.54852294921875,-105.393310546875,-229.9932098388672
1699734498,0.7107220458984376,7.63816635131836,-0.8719367980957031,-1.687857151031494,0.83295077085495,-1.0495190620422363,0.635101318359375,-106.26707458496094,-229.0482177734375
1699734498,0.0571810913085937,7.5699082946777345,0.3131488037109375,-2.181410789489746,1.0409643650054932,-1.2168664932250977,0.184417724609375,-107.1492919921875,-227.2652587890625
1699734498,-0.795146484375,7.859256591796876,1.56873779296875,-2.642888069152832,1.1217031478881836,-1.4076111316680908,-1.0137939453125,-108.54734802246094,-226.618392944336
1699734498,-1.803150329589844,8.339308319091797,3.2418086242675783,-2.862145185470581,0.8094733953475952,-1.529172420501709,-1.505279541015625,-109.65902709960938,-224.92076110839844
1699734498,-2.867736511230469,8.694968719482421,5.178630981445313,-2.663205623626709,-0.0012050804216414,-1.4951233863830566,-2.857940673828125,-111.514404296875,-223.6920166015625
1699734498,-3.554957427978516,8.643176422119142,6.15804428100586,-2.252081632614136,-0.7681469917297363,-1.3627512454986572,-2.7580718994140625,-112.93603515625,-222.30105590820312
1699734498,-3.317251739501953,8.428672485351562,5.479954376220704,-1.7985695600509644,-1.1201812028884888,-1.2206196784973145,-2.7425689697265625,-114.32260131835938,-220.17372131347656
1699734498,-2.503843231201172,7.802524566650391,4.334685974121094,-1.3821704387664795,-1.1194459199905396,-1.13719642162323,-2.6856231689453125,-115.79910278320312,-219.76339721679688
1699734498,-1.791324920654297,7.230114898681641,2.9568013000488285,-1.046329140663147,-0.9144091606140136,-1.1453264951705933,-2.17938232421875,-116.70465087890624,-219.0553741455078
1699734498,-1.4468911743164063,6.818171539306641,1.6952247619628906,-0.8594918251037598,-0.6491225957870483,-1.193768858909607,-2.039764404296875,-117.60931396484376,-217.81103515625
1699734498,-1.3154644775390625,6.362668762207032,0.7420069885253907,-0.8225692510604858,-0.3969215154647827,-1.2119723558425903,-2.303802490234375,-118.1321258544922,-217.57725524902344
1699734498,-1.2687615966796877,5.9496775817871095,0.2483335876464844,-0.914917528629303,-0.1800986677408218,-1.1520330905914309,-2.0397186279296875,-119.3184051513672,-217.2222595214844
1699734498,-1.2073892211914063,5.644462280273438,-0.0104782104492187,-1.094457983970642,-0.0578047111630439,-1.046500325202942,-2.33087158203125,-119.6400146484375,-216.44586181640625
1699734498,-1.0222242736816407,5.341941375732422,-0.1429527282714844,-1.3087711334228516,-0.0280875600874423,-0.929040789604187,-2.570419311523437,-120.50546264648438,-215.711654663086
1699734498,-0.7435038757324219,5.040468292236328,0.001197509765625,-1.5004281997680664,-0.1040531620383262,-0.8208839893341064,-2.3698272705078125,-121.7740478515625,-215.6806640625
1699734498,-0.4459226989746094,4.838388519287109,0.3052153015136719,-1.6254239082336426,-0.226299449801445,-0.7459178566932678,-2.5421295166015625,-122.44308471679688,-215.2652587890625
1699734498,-0.1600172424316406,4.463567962646485,0.9821076965332032,-1.6487672328948977,-0.4328262507915497,-0.7219864130020142,-2.32501220703125,-123.5059051513672,-214.59048461914065
