timestamp,acc-x,acc-y,acc-z,gyr-x,gyr-y,gyr-z,mag-x,mag-y,mag-z
1699734256,-1.2654684448242188,-1.5465838623046877,-7.270081787109375,1.2052793502807615,0.4928317964076996,-0.3557099103927612,23.577468872070312,-175.2895050048828,-309.95831298828125
1699734256,-0.9776170349121094,-1.5614030456542969,-7.027735748291016,1.3000353574752808,0.8755855560302734,-0.4312776327133178,23.929733276367188,-175.85165405273438,-309.6622619628906
1699734256,-0.9512718200683594,-1.8729052734375,-7.109016723632813,1.3630963563919067,1.1400963068008425,-0.4527547061443329,24.40937805175781,-176.30746459960938,-309.7830810546875
1699734256,-1.2606784057617189,-2.3593936157226563,-7.663164367675781,1.3557476997375488,1.2779101133346558,-0.4953546226024627,25.114044189453125,-176.8189697265625,-308.7657165527344
1699734256,-1.1690689086914063,-2.775528259277344,-9.034163360595702,1.1857943534851074,1.2998617887496948,-0.5170380473136902,25.957809448242188,-177.26321411132812,-308.22674560546875
1699734256,-0.2625540161132813,-3.322939910888672,-10.60799057006836,0.8471201062202454,1.034094214439392,-0.5324791073799133,26.7315673828125,-177.4982147216797,-308.6950988769531
1699734256,0.4483177185058594,-3.404370574951172,-11.469748535156253,0.5820884704589844,0.7801815867424011,-0.4134416282176971,26.84101867675781,-177.92633056640625,-308.05303955078125
1699734256,-0.1734892272949219,-2.8764184570312503,-10.400222625732422,0.4968102872371673,0.4384524524211883,-0.174458622932434,27.3255615234375,-178.049072265625,-307.7518005371094
1699734256,-1.4888040161132814,-2.4062461853027344,-9.5369677734375,0.5556624531745911,0.0246315766125917,-0.0594633258879184,27.62481689453125,-178.13548278808594,-307.4437255859375
1699734256,-1.5129039001464843,-2.372266845703125,-9.496402130126953,0.7271252870559692,-0.1506132036447525,-0.0797994881868362,27.56776428222656,-178.5582275390625,-307.2705078125
1699734256,-0.7054829406738281,-2.770887908935547,-8.83328109741211,0.8665651679039001,-0.1455124616622924,-0.1570178419351577,27.485122680664062,-179.06288146972656,-307.2782592773437
1699734256,0.02155517578125,-2.809208221435547,-8.410410461425782,0.923882246017456,-0.2187959849834442,-0.2501280903816223,27.314422607421875,-179.3457489013672,-307.35333251953125
1699734256,0.8026309204101563,-2.9557534790039064,-9.098828887939453,0.963556945323944,-0.2905519306659698,-0.3073367774486542,27.36875915527344,-179.65338134765625,-307.5079040527344
1699734256,1.555565185546875,-3.5652859497070315,-9.329798583984376,1.0116206407546997,-0.2884227335453033,-0.3275171518325805,27.10899353027344,-180.19029235839844,-306.87603759765625
1699734256,1.885928192138672,-3.8025425720214847,-8.890611877441406,1.0825893878936768,-0.2967704236507416,-0.3190813064575195,27.118408203125,-180.0816192626953,-307.1601257324219
1699734256,1.8190173339843752,-3.480861511230469,-8.577463073730469,1.1350070238113403,-0.4328941702842712,-0.278279036283493,27.40283203125,-180.3463134765625,-307.1906433105469
1699734256,1.4108161926269531,-3.2193553161621096,-9.020092620849612,0.8770439028739929,-0.2579154372215271,-0.3626199960708618,27.068756103515625,-180.87977600097656,-307.0056457519531
1699734256,1.3699511718750002,-3.410358123779297,-10.424771575927736,0.3365223705768585,0.1609095185995102,-0.4689187407493591,27.141860961914062,-181.28933715820312,-306.9843139648437
1699734256,0.3984713745117187,-2.9584478759765624,-10.83746337890625,-0.031419176608324,0.2786643803119659,-0.4711129367351532,27.376922607421875,-181.552734375,-306.5736083984375
1699734256,-0.49097900390625,-2.161056060791016,-10.151290283203126,-0.4274048507213592,0.497539222240448,-0.5023451447486877,27.93687438964844,-181.41064453125,-306.76080322265625
1699734256,-0.7042854309082032,-2.307601318359376,-10.518177337646485,-0.8005747199058533,0.650649905204773,-0.5853604078292847,28.22003173828125,-180.41891479492188,-306.5829467773437
1699734256,-0.487386474609375,-2.968327331542969,-10.690469055175782,-1.0911048650741575,0.7081094980239868,-0.6547466516494751,28.519821166992188,-180.6045379638672,-306.79693603515625
1699734256,0.0464035034179687,-3.498973846435547,-10.412646789550784,-1.1904526948928833,0.6883707046508789,-0.6769116520881653,29.1044921875,-179.85252380371094,-306.8521423339844
1699734256,0.4007167053222656,-4.008364562988281,-9.736502838134763,-1.041683793067932,0.3872920572757721,-0.6903957724571228,29.640304565429688,-179.4002227783203,-306.92791748046875
1699734256,0.6647676086425781,-4.376598815917969,-9.354646911621094,-0.7236623764038086,-0.1792163550853729,-0.6393775939941406,29.73277282714844,-178.8537139892578,-307.3408203125
1699734256,0.9050180053710938,-4.282444610595704,-8.757538604736329,-0.3023492097854614,-0.7331711649894714,-0.4289660155773163,29.749725341796875,-178.6090850830078,-307.17169189453125
1699734256,1.2365785217285157,-5.201383666992188,-7.865094451904297,0.0349017903208732,-0.9180957674980164,0.067074105143547,29.355300903320312,-178.43605041503906,-307.43951416015625
1699734256,1.7772541809082032,-7.392227783203126,-6.633605346679688,0.1690864861011505,-0.7326158881187439,0.3366866707801819,28.9925537109375,-178.57351684570312,-307.98712158203125
1699734256,1.9025436401367188,-7.137756958007813,-6.469845886230469,0.0827545374631881,-0.5738672614097595,0.25037282705307,28.531463623046875,-178.66653442382812,-308.1724548339844
1699734256,1.5748750305175785,-4.809049530029297,-8.085735626220703,-0.1140458807349205,-0.5366301536560059,0.1723464727401733,28.14585876464844,-178.91827392578125,-308.2010498046875
1699734256,0.5836363220214844,-3.191662902832032,-8.991053009033202,-0.3613675236701965,-0.4752232432365417,0.1963159888982772,28.189498901367188,-178.85946655273438,-308.32940673828125
1699734257,-0.1194515991210937,-2.944377136230469,-9.16139877319336,-0.6186110377311707,-0.4076961278915405,0.2331802546977996,27.954116821289062,-178.64443969726562,-308.1845703125
1699734257,-0.4008663940429687,-3.311114501953125,-9.413923645019532,-0.8432470560073853,-0.4042404294013977,0.2630260288715362,27.78697204589844,-178.45123291015625,-308.6729736328125
1699734257,-0.3095562744140625,-3.50915267944336,-9.733359375,-1.005311131477356,-0.4146222174167633,0.2636492252349853,27.65541076660156,-177.6592254638672,-308.60137939453125
1699734257,-0.0675096130371093,-3.630101165771484,-9.846973114013672,-1.0847097635269165,-0.471987247467041,0.3351878523826599,27.325942993164062,-177.37950134277344,-308.81890869140625
1699734257,-0.06945556640625,-4.1254211425781255,-9.62558349609375,-1.102888822555542,-0.3840856254100799,0.4268583655357361,27.31298828125,-177.28538513183594,-308.5821533203125
1699734257,-0.2073188781738281,-3.747008056640625,-8.80498992919922,-1.0509278774261477,-0.2643730640411377,0.5619882345199585,26.806121826171875,-176.8434295654297,-308.8905029296875
1699734257,-0.1654060363769531,-3.0588890075683595,-8.455466766357421,-0.9948640465736388,-0.2908717691898346,0.628142774105072,26.715606689453125,-176.31228637695312,-309.12969970703125
1699734257,-0.05508544921875,-2.401755523681641,-8.448281707763673,-0.9432035088539124,-0.4797767102718353,0.5957147479057312,26.4866943359375,-175.9254150390625,-309.35528564453125
1699734257,0.15088623046875,-2.1109103393554687,-8.779243469238281,-0.7970609664916992,-0.5113067030906677,0.5096960067749023,26.36785888671875,-176.08065795898438,-309.93719482421875
1699734257,0.1197509765625,-2.402054901123047,-8.592431945800781,-0.4990484118461609,-0.2223758101463318,0.374364823102951,26.179428100585938,-175.82765197753906,-309.1545104980469
1699734257,-0.5441184997558594,-2.5475523376464846,-8.217461700439454,-0.1478363275527954,0.0716230571269989,0.243427038192749,25.944503784179688,-175.75436401367188,-309.8019714355469
1699734257,-1.2353810119628907,-1.9730470275878904,-8.293802947998048,0.1518483906984329,0.4960132241249084,0.1098708435893058,26.077377319335938,-175.7114715576172,-309.5665588378906
1699734257,-0.5502557373046876,-1.3600717163085938,-8.01223846435547,0.2044988125562667,0.6986345052719116,0.1484142392873764,26.27435302734375,-176.35269165039062,-309.2782287597656
1699734257,0.5153782653808594,-2.1606069946289064,-9.652976531982423,0.0216594897210598,0.486405074596405,0.2420805394649505,26.492263793945312,-175.671630859375,-309.7797241210937
1699734257,0.4763095092773438,-3.1165191650390627,-11.254945220947269,-0.1831628978252411,0.4217064976692199,0.240731656551361,26.78619384765625,-175.95889282226562,-309.44207763671875
1699734257,0.2832110595703125,-2.40265365600586,-10.394534454345704,-0.2669720351696014,0.5305395126342773,0.1949135661125183,26.703765869140625,-175.8841094970703,-310.2401733398437
1699734257,-0.1522334289550781,-2.0151095581054688,-9.512269134521484,-0.2194857448339462,0.5149746537208557,0.1222042068839073,26.960968017578125,-175.83961486816406,-309.6982421875
1699734257,-0.238304443359375,-2.348915405273438,-9.452992401123048,-0.102593220770359,0.4450238049030304,-2.76968748949e-05,27.206710815429688,-175.79428100585938,-309.572265625
1699734257,0.274229736328125,-2.2471270751953125,-9.377100219726564,0.0847290009260177,0.4169248044490814,-0.0801166743040084,27.284210205078125,-175.92333984375,-309.73394775390625
1699734257,0.4863386535644531,-2.173330535888672,-9.05706573486328,0.2098150104284286,0.2378743439912796,-0.0596380308270454,27.63482666015625,-175.8878173828125,-309.3993835449219
1699734257,0.4058061218261719,-2.282154235839844,-9.246421966552736,0.2047089338302612,-0.0047880974598228,-0.0445762574672699,27.515640258789062,-175.61724853515625,-309.27178955078125
1699734257,0.4385879516601563,-2.448608093261719,-9.461674346923829,0.1265246570110321,-0.2179632186889648,-0.0765219405293464,27.49769592285156,-176.114013671875,-309.384521484375
1699734257,0.5433700561523438,-2.721939697265625,-9.520352325439452,0.0380019769072532,-0.2982253134250641,-0.1604767590761184,27.70079040527344,-176.25799560546875,-309.8970947265625
1699734257,0.5593867492675781,-2.8515701293945312,-9.530531158447266,-0.0713697895407676,-0.2308364063501358,-0.2419638931751251,27.257965087890625,-176.1683349609375,-310.13458251953125
1699734257,0.4558021545410156,-2.784359893798828,-9.59774139404297,-0.1987197548151016,-0.1504933685064315,-0.3205686807632446,27.480453491210938,-175.88453674316406,-309.64324951171875
1699734257,0.3152444458007812,-2.716101837158204,-9.720486145019532,-0.3036554753780365,-0.1158456429839134,-0.3807657063007355,27.690963745117188,-175.64370727539062,-309.96875
1699734257,0.2953358459472656,-2.692151641845703,-9.883197784423828,-0.3238086998462677,-0.0832983553409576,-0.428086370229721,27.108688354492188,-175.51390075683594,-310.2841186523437
1699734257,0.3180885314941406,-2.5249493408203127,-9.922715606689454,-0.2692834138870239,-0.068829134106636,-0.442432552576065,27.64569091796875,-175.1132049560547,-310.26373291015625
1699734257,0.3231779479980469,-2.4041505432128907,-9.808802490234376,-0.1792517751455307,-0.1396798640489578,-0.4340236186981201,27.58013916015625,-175.1143341064453,-310.00372314453125
1699734257,0.3715274047851563,-2.419867858886719,-9.801916809082032,-0.094507597386837,-0.2556794285774231,-0.4014843106269836,27.436248779296875,-174.97613525390625,-310.2821655273437
1699734257,0.5438191223144532,-2.369422760009766,-9.79173797607422,-0.0412624850869178,-0.3724942207336426,-0.3917954564094543,27.570846557617188,-175.0614776611328,-310.59100341796875
1699734257,0.4948709106445312,-2.299368438720703,-9.8435302734375,-0.0023406522814184,-0.3755568563938141,-0.3805516064167022,27.54896545410156,-175.15928649902344,-309.928955078125
1699734257,0.336500244140625,-2.4843836975097657,-9.832752685546875,0.026373017579317,-0.34123295545578,-0.3763059973716736,27.436767578125,-174.98240661621094,-310.281982421875
1699734257,0.0627195739746093,-2.4007077026367187,-9.997110900878909,0.0734949931502342,-0.2417114228010177,-0.3845617771148681,27.154052734375,-174.96202087402344,-310.29473876953125
1699734257,-0.0151185607910156,-2.339335327148438,-9.935289459228516,0.0962892547249794,-0.1096210330724716,-0.3839817643165588,27.279129028320312,-174.9761199951172,-310.1629638671875
1699734257,-0.0007484436035156,-2.3770568847656253,-9.890083465576172,0.0822234973311424,-0.0127786453813314,-0.350016325712204,27.402664184570312,-174.5106201171875,-310.0606689453125
1699734257,0.0526904296875,-2.406096496582032,-9.875264282226563,0.065158762037754,0.0582348108291626,-0.3065210580825805,27.534210205078125,-174.81703186035156,-310.0513916015625
1699734257,0.2354603576660156,-2.469414825439453,-9.65911376953125,0.0665092542767524,0.0506637096405029,-0.2757461071014404,27.17022705078125,-175.02088928222656,-310.369873046875
1699734257,0.2965333557128906,-2.4542962646484376,-9.5990885925293,0.126266062259674,-0.0365111380815506,-0.2376202791929245,27.1776123046875,-174.9497528076172,-310.245361328125
1699734257,0.1514849853515625,-2.4209156799316407,-9.480535125732423,0.2147237509489059,-0.1324797421693802,-0.15860615670681,27.33775329589844,-174.78561401367188,-309.8998413085937
1699734257,0.0393681335449218,-2.4342379760742188,-9.349108428955075,0.2980817556381225,-0.2941418886184692,-0.1188395693898201,27.22900390625,-174.9141082763672,-310.03106689453125
1699734257,0.1291813659667968,-2.516566772460937,-9.451046447753908,0.3924250304698944,-0.412926584482193,-0.1234870478510856,27.287673950195312,-175.0294189453125,-309.7666320800781
1699734257,0.0212557983398437,-2.513572998046876,-9.344019012451174,0.4872436821460724,-0.421109139919281,-0.144499659538269,26.880630493164062,-175.2367401123047,-310.3744812011719
1699734257,-0.2592608642578125,-2.455044708251953,-9.466464385986328,0.5315855741500854,-0.3553117513656616,-0.187166154384613,27.4197998046875,-175.54116821289062,-310.2716979980469
1699734257,-0.4016148376464843,-2.5304878234863284,-9.567055206298829,0.4880120158195495,-0.3250928819179535,-0.2215387821197509,26.82749938964844,-175.58859252929688,-309.5597839355469
1699734257,-0.3462300109863281,-2.7309210205078127,-9.4603271484375,0.3899416327476501,-0.326253741979599,-0.2486265897750854,26.52186584472656,-175.9324188232422,-310.07342529296875
1699734257,-0.2758763122558594,-2.829565887451172,-9.16139877319336,0.2671792507171631,-0.367418497800827,-0.2024412602186203,26.78160095214844,-176.04251098632812,-310.4287109375
1699734257,-0.4071533203125,-2.933599548339844,-9.04688690185547,0.1530207097530365,-0.3919587135314941,-0.1406322121620178,26.34214782714844,-176.2249755859375,-310.6273193359375
1699734257,-0.3064128112792968,-2.8198361206054687,-8.947194213867188,0.0845769345760345,-0.3256601095199585,-0.0690821334719657,26.288787841796875,-176.0494384765625,-310.2001342773437
1699734257,-0.2460882568359375,-2.948119354248047,-8.954978027343751,0.0808549001812934,-0.2572605609893799,-0.0575847327709198,26.29194641113281,-176.0878143310547,-310.29107666015625
1699734257,-0.4739144897460938,-2.637964324951172,-9.180259552001951,0.1373488008975982,-0.207938015460968,-0.0974855422973632,26.023406982421875,-175.84844970703125,-310.9064025878906
1699734257,-0.609532470703125,-2.4998016357421875,-9.341623992919924,0.1837272197008133,-0.1086519137024879,-0.1289172321557998,25.805587768554688,-176.22239685058594,-310.4947509765625
1699734257,-0.5493576049804688,-2.6195526123046875,-9.301058349609375,0.1928054094314575,-0.0909690558910369,-0.1604027301073074,26.29283142089844,-176.15245056152344,-310.57666015625
1699734257,-0.6010002136230469,-2.544408874511719,-9.266480255126952,0.1873890608549118,-0.2397388219833374,-0.2367859184741974,25.949539184570312,-176.38389587402344,-310.4086303710937
1699734257,-0.4080514526367187,-2.805466003417969,-9.097781066894532,0.1776922345161438,-0.5512841939926147,-0.3697381019592285,26.22103881835937,-176.1982421875,-310.71636962890625
1699734257,0.0547860717773437,-3.2684532165527345,-8.878936157226564,0.1356760710477829,-0.7561712861061096,-0.4659485220909118,25.88485717773437,-176.34524536132812,-310.5614624023437
1699734257,0.0860710144042968,-3.2392639160156254,-8.791068878173828,0.0259620919823646,-0.7179360389709473,-0.4835557341575622,25.620864868164062,-176.08157348632812,-310.8462829589844
1699734257,-0.2871029663085938,-3.1466065979003908,-8.969946899414063,-0.1282184273004531,-0.475689560174942,-0.4264836609363556,24.774078369140625,-175.90660095214844,-310.574462890625
1699734257,-0.6041436767578126,-2.9126431274414064,-9.196575622558594,-0.2489911764860153,-0.1512960493564605,-0.3190195262432098,25.11431884765625,-175.74649047851562,-310.8829345703125
1699734257,-0.7900570678710938,-2.4974066162109376,-9.40045166015625,-0.2817288935184479,0.1457183212041854,-0.1985298693180084,25.048614501953125,-175.98825073242188,-310.8236083984375
1699734257,-0.7520361328125,-2.4180715942382816,-9.51496353149414,-0.208687424659729,0.3837854862213135,-0.0646548941731453,25.08062744140625,-176.0395050048828,-310.99273681640625
1699734257,-0.5996530151367188,-2.5629702758789064,-9.698182525634763,-0.0693548396229744,0.4968116283416748,0.0490833893418312,25.11083984375,-175.8048095703125,-310.8697509765625
1699734257,-0.3814068603515625,-2.4493565368652344,-9.88514373779297,0.0869665890932083,0.4784184992313385,0.0950189232826232,25.602951049804688,-175.67959594726562,-310.46600341796875
1699734257,-0.1743873596191406,-2.3764581298828125,-10.005044403076171,0.2080954164266586,0.3652560114860534,0.1109305098652839,25.821746826171875,-176.0919647216797,-310.4937438964844
1699734257,0.0986448669433593,-2.516866149902344,-10.003846893310548,0.2788199186325073,0.2123729735612869,0.1151984930038452,26.120147705078125,-176.1490936279297,-310.61871337890625
1699734257,0.2338137817382812,-2.45489501953125,-9.867779846191407,0.3123917281627655,0.0864917486906051,0.1149971559643745,25.96519470214844,-176.5395050048828,-310.4192810058594
1699734257,0.3091072082519531,-2.412084045410156,-9.762848052978516,0.3304865658283233,-0.0038533278275281,0.1058771610260009,25.963836669921875,-176.349853515625,-310.29571533203125
1699734257,0.3562591552734375,-2.7018814086914062,-9.689350891113282,0.3480053842067718,-0.0541335418820381,0.1047727540135383,25.9998779296875,-176.44635009765625,-310.41229248046875
1699734257,0.2568658447265625,-2.9820986938476564,-9.786498870849613,0.3382741808891296,-0.1228572130203247,0.0733959227800369,25.5504150390625,-176.75390625,-309.9728698730469
1699734257,0.2577639770507812,-2.854414215087891,-9.8002702331543,0.3272833228111267,-0.1701893061399459,0.0372070223093032,26.08345031738281,-176.7044219970703,-310.257568359375
1699734257,0.362845458984375,-2.925366668701172,-9.595046997070312,0.3194848001003265,-0.1670230776071548,0.0252403747290372,25.713546752929688,-176.98118591308594,-310.63018798828125
1699734257,0.3722758483886719,-2.904859313964844,-9.476493530273435,0.2991718053817749,-0.1449651718139648,0.0306686963886022,25.45811462402344,-177.44532775878906,-310.3490600585937
1699734257,0.10777587890625,-2.959346008300781,-9.508676605224611,0.2830404937267303,-0.1474882513284683,0.0468135774135589,25.738082885742188,-177.19183349609375,-310.4562072753906
1699734257,-0.08861572265625,-3.095263366699219,-9.585616607666015,0.2736073136329651,-0.0915293842554092,0.0474285036325454,25.61485290527344,-177.18618774414062,-310.83795166015625
1699734257,-0.2558180236816406,-3.011737060546875,-9.583820343017578,0.2917636632919311,-0.0808117613196373,0.0004700479330495,25.412384033203125,-177.23626708984375,-310.4071655273437
1699734257,-0.5601351928710938,-3.0693672180175784,-9.78994171142578,0.3669686913490295,-0.107414610683918,-0.100306361913681,25.304931640625,-177.47042846679688,-310.7315979003906
1699734257,-0.7702981567382813,-3.283122711181641,-9.789193267822265,0.3829369843006134,-0.1330432742834091,-0.1813468933105468,25.67295837402344,-177.76458740234375,-310.3443603515625
1699734257,-0.7415579223632813,-3.4708323669433594,-9.562115478515626,0.3135954737663269,-0.2162225842475891,-0.226396381855011,25.603042602539062,-177.47378540039062,-310.1485900878906
1699734257,-0.5382806396484375,-3.686833190917969,-9.257947998046877,0.2195392847061157,-0.3074193298816681,-0.226183071732521,25.42320251464844,-177.68467712402344,-310.3873291015625
1699734257,-0.2296224975585937,-3.883973236083985,-8.775052185058595,0.1186286434531211,-0.3084635734558105,-0.1954461932182312,25.667221069335938,-178.0987548828125,-310.1750183105469
1699734257,-0.09580078125,-3.799399108886719,-8.44723388671875,0.0751197859644889,-0.3322527706623077,-0.2090693265199661,25.0323486328125,-177.9532470703125,-310.123779296875
1699734257,-0.370030517578125,-3.5950740051269534,-8.576415252685548,0.0909528061747551,-0.2973334193229675,-0.2298419922590255,25.321044921875,-178.2385711669922,-310.5411071777344
1699734257,-0.4653822326660156,-3.692521362304688,-8.512049102783203,0.0827518701553344,-0.2324846386909485,-0.2050338387489318,25.23211669921875,-177.912353515625,-310.7000732421875
1699734257,-0.6650669860839844,-3.5777101135253906,-8.637637939453125,0.0475198477506637,-0.1778842508792877,-0.1531485468149185,24.97918701171875,-177.91517639160156,-310.48974609375
1699734257,-0.7882608032226562,-3.1918125915527344,-8.771160278320313,0.0163555368781089,-0.0859985277056694,-0.1049517169594764,24.947296142578125,-177.655517578125,-310.8472900390625
1699734257,-0.8912466430664063,-3.122506713867188,-8.679700469970703,-0.0391508638858795,-0.0477267764508724,-0.0797004178166389,25.410568237304688,-177.65440368652344,-311.31134033203125
1699734257,-0.767603759765625,-3.243754577636719,-8.707991638183595,-0.0884987041354179,-0.0373902469873428,-0.0496863313019275,25.49717712402344,-178.06605529785156,-310.533447265625
1699734257,-0.7608677673339844,-3.271297302246094,-8.580007781982422,-0.123416744172573,-0.0296060945838689,-0.0012884372845292,25.16963195800781,-177.8673553466797,-310.7059326171875
1699734257,-0.7930508422851563,-3.25049057006836,-8.538843383789063,-0.1392609477043151,-0.0571940466761589,0.0401138626039028,24.996322631835938,-177.59420776367188,-310.1815795898437
1699734257,-0.8448431396484375,-3.236868896484375,-8.731492767333984,-0.1433513015508651,-0.0926140919327735,0.0629190430045127,25.22811889648437,-177.63510131835938,-310.6522521972656
1699734257,-1.0819500732421876,-3.2058833312988284,-8.809031524658204,-0.137887567281723,-0.066860519349575,0.0651899203658104,25.01593017578125,-177.5162811279297,-310.56475830078125
1699734257,-1.0306068420410155,-3.0958621215820314,-8.764723663330079,-0.1256418079137802,-0.0371697396039962,0.0545471310615539,24.952850341796875,-177.39662170410156,-310.2383728027344
1699734257,-0.9919871520996094,-3.0169761657714846,-8.74795852661133,-0.2188031822443008,0.25052011013031,0.0205225851386785,25.250274658203125,-177.71026611328125,-310.91668701171875
1699734257,-0.8978329467773438,-2.808310089111328,-8.015681304931642,-0.4096232056617737,0.336116760969162,0.0421929918229579,25.11997985839844,-177.4837646484375,-310.6849670410156
1699734257,-0.722098388671875,-2.7608587646484377,-9.019344177246094,-0.4641234576702118,0.1492387503385543,0.135644644498825,25.221343994140625,-177.3610076904297,-310.9522399902344
1699734257,-1.0190808105468752,-3.028502197265625,-9.167236633300782,-0.4272035360336303,0.0077742999419569,0.2123708426952362,25.013351440429688,-177.0635986328125,-310.96075439453125
1699734257,-1.1416758728027343,-3.047362976074219,-8.483308868408203,-0.3855338394641876,-0.102368451654911,0.2177509665489196,25.199966430664062,-176.6967315673828,-310.3514404296875
1699734257,-0.9882449340820312,-2.4736061096191406,-8.378377075195313,-0.3611938953399658,-0.2741314172744751,0.2124036103487014,25.085952758789062,-176.64845275878906,-310.62158203125
1699734257,-1.420096893310547,-1.948947143554688,-8.252937927246094,-0.3465209305286407,-0.4229997396469116,0.2295807301998138,24.90829467773437,-176.57443237304688,-310.63848876953125
1699734258,-1.7920733642578126,-1.783241729736328,-7.927215270996094,-0.3551559746265411,-0.503964900970459,0.282432496547699,24.581451416015625,-176.59877014160156,-310.7908020019531
1699734258,-2.1579125976562503,-1.7551002502441406,-7.757617950439453,-0.3621518313884735,-0.5620430707931519,0.3530052006244659,24.63290405273437,-176.47900390625,-310.8897705078125
1699734258,-2.952460327148437,-1.735041961669922,-7.65732650756836,-0.3498109877109527,-0.6095384359359741,0.4003205001354217,24.360076904296875,-176.5735321044922,-311.11480712890625
1699734258,-3.314557342529297,-1.5497273254394532,-7.461533660888672,-0.3442476689815521,-0.7250890135765076,0.3985883891582489,24.07319641113281,-176.62973022460938,-311.3325500488281
1699734258,-3.2226484680175784,-1.3900094604492188,-7.256909179687501,-0.3275680243968963,-0.9657540917396544,0.398199051618576,23.836257934570312,-176.13381958007812,-311.7782592773437
1699734258,-3.3423994445800784,-1.4685960388183594,-6.91008041381836,-0.2525787353515625,-1.200474739074707,0.3667271435260772,23.171401977539062,-176.03338623046875,-311.79949951171875
1699734258,-3.091371459960938,-1.8769468688964843,-6.600524139404297,-0.2324215173721313,-1.2448652982711792,0.2555694580078125,22.618804931640625,-175.7381134033203,-312.00946044921875
1699734258,-3.3290771484375004,-2.1041743469238283,-6.685247955322266,-0.2761426270008087,-1.2825506925582886,0.23251873254776,22.316192626953125,-176.19821166992188,-312.639892578125
1699734258,-4.394112396240234,-1.3548326110839843,-6.238277435302734,-0.3467358350753784,-1.2492928504943848,0.1888942867517471,21.64105224609375,-175.783447265625,-312.52099609375
1699734258,-4.376898193359375,-0.986748046875,-5.678142242431641,-0.4485833942890167,-1.302762150764465,0.1031226590275764,21.20176696777344,-175.9532928466797,-312.3713684082031
1699734258,-4.032913513183594,-1.0915301513671876,-5.464237060546875,-0.5461142063140869,-1.449671983718872,-0.0092142708599567,20.61627197265625,-175.5773468017578,-312.65972900390625
1699734258,-3.962260437011719,-1.2633728027343751,-5.3757710266113286,-0.6491713523864746,-1.510778784751892,-0.131836324930191,19.958786010742188,-175.3055419921875,-313.34625244140625
1699734258,-3.9980360412597657,-1.2186158752441407,-5.452261962890625,-0.7819672226905823,-1.4717568159103394,-0.2070932686328888,19.51185607910156,-175.4286346435547,-313.05279541015625
1699734258,-4.032913513183594,-0.7429051208496094,-5.6239549255371095,-0.9004621505737305,-1.364876389503479,-0.1888596713542938,19.336441040039062,-174.85313415527344,-313.8365478515625
1699734258,-4.194577331542969,-0.2222877502441406,-5.614823913574219,-0.9803050756454468,-1.2274796962738037,0.0037822213489562,18.559371948242188,-174.40423583984375,-313.8495483398437
1699734258,-4.979844360351563,0.3373983764648438,-5.421725463867188,-1.01337993144989,-1.0901838541030884,0.3678901493549347,18.153884887695312,-174.4858856201172,-314.2414245605469
1699734258,-5.645360412597657,0.8903485107421876,-5.505700836181641,-1.0995049476623535,-0.8272654414176941,0.8089277148246765,17.772140502929688,-173.68748474121094,-314.696044921875
1699734258,-5.659431152343751,1.056053924560547,-6.2789927673339845,-1.1512759923934937,-1.1364225149154663,1.283207654953003,17.436904907226562,-173.2605743408203,-314.6195068359375
1699734258,-4.895419921875,1.0063572692871094,-7.041507110595704,-1.0569093227386477,-1.402739644050598,1.7983136177062988,17.49249267578125,-173.0698699951172,-315.10028076171875
1699734258,-3.9438487243652345,0.3668870544433594,-6.748266906738282,-0.8135073184967041,-1.270404815673828,2.0778744220733643,16.663406372070312,-172.62098693847656,-315.53192138671875
1699734258,-2.424508209228516,0.7848179626464844,-6.503675537109375,-0.4608719944953918,-1.197924256324768,2.2533726692199707,15.841461181640623,-172.86587524414062,-315.3955993652344
1699734258,-2.826272735595704,2.154170379638672,-6.526877288818359,-0.0238115899264812,-1.1516579389572144,2.413181781768799,15.381912231445312,-172.5263671875,-315.377197265625
1699734258,-3.488196258544922,3.0434710693359377,-5.905369720458984,0.3924306333065033,-1.201058268547058,2.4523937702178955,14.865509033203123,-172.65228271484375,-315.0150146484375
1699734258,-2.994822235107422,2.8647427368164062,-6.032904510498047,0.5400629639625549,-1.4088428020477295,2.290677309036255,14.213394165039062,-173.2939910888672,-315.5660400390625
1699734258,-2.4074436950683595,1.6399896240234375,-7.91359359741211,0.269127607345581,-1.5276720523834229,2.0483334064483643,13.669891357421877,-173.6171112060547,-315.669189453125
1699734258,-2.901117095947266,0.164058837890625,-9.914782104492188,-0.4332912564277649,-1.3822673559188845,1.7139267921447754,13.43798828125,-173.61183166503906,-315.5880126953125
1699734258,-3.3849110412597656,-1.2507989501953125,-12.76246032714844,-1.568181395530701,-0.6990254521369934,1.1304948329925537,12.854782104492188,-173.29843139648438,-316.4693603515625
1699734258,-3.271446990966797,-2.860551452636719,-16.146922302246093,-2.88226056098938,0.4980036616325378,0.5305200815200806,12.873138427734377,-172.58956909179688,-316.4763488769531
1699734258,-3.889212341308594,-3.9311251831054688,-18.451380157470705,-3.964497327804565,1.7081648111343384,0.027468642219901,13.463165283203123,-171.64439392089844,-316.7093505859375
1699734258,-4.059408416748047,-3.4913397216796875,-19.91264144897461,-4.422376155853272,2.450198173522949,-0.3921802937984466,14.401504516601562,-169.54718017578125,-316.3473815917969
1699734258,-3.766317901611328,-2.917283477783203,-20.43535446166992,-4.1727681159973145,2.6831271648406982,-0.6455838084220886,15.6337890625,-168.0087890625,-316.98687744140625
1699734258,-3.30273193359375,-2.495460662841797,-19.91847930908203,-3.335436582565308,2.6399412155151367,-0.7163056135177612,17.019058227539062,-165.7967071533203,-317.348388671875
1699734258,-2.481240234375,-1.683549041748047,-17.78646286010742,-2.188882827758789,2.296473979949951,-0.7303388714790344,18.520278930664062,-164.1650390625,-317.1566772460937
1699734258,-1.7371376037597657,-0.9880952453613282,-16.1566520690918,-0.9877046346664428,1.6932830810546875,-0.7182846069335938,19.981597900390625,-163.57591247558594,-317.0850830078125
1699734258,-1.110091552734375,-0.8910969543457031,-14.807357940673828,0.0080736391246318,0.8938071727752686,-0.6378177404403687,20.84384155273437,-163.3991241455078,-316.70098876953125
1699734258,-0.949475555419922,-1.3702505493164063,-13.835728454589844,0.6621395945549011,0.1794608384370803,-0.5504801869392395,21.100799560546875,-163.11102294921875,-316.45196533203125
1699734258,-0.9837542724609376,-1.8268011474609376,-12.556338958740236,0.9161908030509948,-0.3159363865852356,-0.5402408838272095,21.546218872070312,-163.71786499023438,-316.5380249023437
1699734258,-1.0003697204589843,-2.06211181640625,-11.65985321044922,0.8773792386054993,-0.5623664259910583,-0.6077114939689636,21.63999938964844,-164.00271606445312,-316.7856140136719
1699734258,-1.0699749755859376,-2.2141955566406253,-10.754236450195313,0.6397320628166199,-0.6894444823265076,-0.6147321462631226,21.583740234375,-164.0688018798828,-316.56951904296875
1699734258,-1.4840139770507814,-1.8839822387695315,-9.854756927490234,0.2948289811611175,-0.7094586491584778,-0.5390024781227112,21.06781005859375,-164.6114501953125,-316.5395202636719
1699734258,-1.863025817871094,-1.3093272399902345,-9.031468963623048,-0.0495696850121021,-0.6478387117385864,-0.4599817097187042,20.667648315429688,-164.71221923828125,-316.4804077148437
1699734258,-1.983076171875,-0.7762857055664063,-8.237070922851563,-0.2978396713733673,-0.6592798829078674,-0.3799843490123749,20.39564514160156,-164.47463989257812,-316.18603515625
1699734258,-1.9952009582519528,-0.3559597778320312,-7.527696075439453,-0.4396596550941467,-0.8027039170265198,-0.271336168050766,20.27279663085937,-164.1802520751953,-316.49688720703125
1699734258,-2.1875509643554687,-0.0127235412597656,-7.053631896972656,-0.4935849606990814,-0.9461404085159302,-0.2137642204761505,20.297195434570312,-164.17169189453125,-317.4539489746094
1699734258,-2.3436763000488283,0.3387455749511719,-6.903494110107422,-0.4910352230072021,-1.0087246894836426,-0.3171856701374054,19.48838806152344,-164.33514404296875,-317.4278564453125
1699734258,-2.288441162109375,0.6170169067382812,-6.874005432128906,-0.4802989661693573,-1.0967909097671509,-0.4110474586486816,19.30537414550781,-164.08924865722656,-317.4990234375
1699734258,-2.5339306640625003,0.8205935668945313,-6.676715698242188,-0.5007094144821167,-1.2357707023620603,-0.443223774433136,18.769363403320312,-163.8040313720703,-317.5018310546875
1699734258,-2.8021728515625,0.9355545043945312,-6.415508880615235,-0.5411772131919861,-1.4738309383392334,-0.456298828125,18.634780883789062,-163.3323974609375,-317.48504638671875
1699734258,-2.8255242919921875,1.1823912048339844,-6.2032502746582034,-0.5736507773399353,-1.7783830165863037,-0.4145481884479522,17.744964599609375,-162.99920654296875,-317.8569030761719
1699734258,-3.035238189697266,1.625020751953125,-5.852828979492188,-0.5842666625976562,-2.157989025115967,-0.2077151089906692,17.050735473632812,-163.1435089111328,-318.18084716796875
1699734258,-3.72904541015625,2.3007156372070314,-5.7172109985351565,-0.5990844964981079,-2.642258405685425,0.1940088868141174,15.666854858398438,-162.4234161376953,-317.92095947265625
1699734258,-4.107608184814453,3.0717622375488283,-5.797593841552735,-0.5844759941101074,-3.20829439163208,0.6857325434684753,14.5745849609375,-162.67510986328125,-318.16357421875
1699734258,-3.871698760986329,3.358416137695313,-5.730682983398438,-0.5440942049026489,-3.887417078018189,1.1943947076797483,13.309951782226562,-161.8059539794922,-318.6346130371094
1699734258,-3.9234910583496094,3.26965072631836,-5.513035583496095,-0.5626662969589233,-4.574645519256592,1.6975164413452148,11.44512939453125,-161.87155151367188,-319.28826904296875
1699734258,-4.0459364318847655,3.254232788085938,-5.23790771484375,-0.5643709897994995,-5.253551483154297,2.1615540981292725,9.150985717773438,-161.9044189453125,-318.8753356933594
1699734258,-4.1499700927734375,3.559747467041016,-4.734055480957031,-0.4049951732158661,-6.073412895202637,2.5145740509033203,6.936431884765625,-161.42514038085938,-318.7108764648437
1699734258,-3.801494750976562,4.778812408447266,-4.167184295654297,-0.2456885874271392,-6.79998779296875,2.812119483947754,4.1965179443359375,-161.12692260742188,-318.86944580078125
1699734258,-4.061354370117188,5.383105773925782,-3.95896728515625,-0.0825422778725624,-7.3930745124816895,3.177358388900757,0.8435821533203125,-160.87599182128906,-317.715087890625
1699734258,-4.66115707397461,5.221741333007813,-3.913012847900391,0.0588737018406391,-7.905139923095703,3.4946038722991943,-2.20306396484375,-160.70555114746094,-317.3314819335937
1699734258,-5.00319580078125,5.514382781982422,-4.347559204101563,0.1928104609251022,-8.285356521606445,3.733914375305176,-5.6758575439453125,-160.66688537597656,-316.7030639648437
1699734258,-5.73173080444336,5.978268127441407,-4.680167541503907,0.2962947785854339,-8.418128967285156,3.993580102920532,-8.876510620117188,-160.05880737304688,-315.4540405273437
1699734258,-6.568939819335938,6.815626831054688,-5.133574676513672,0.3957904875278473,-8.30988883972168,4.307493209838867,-12.770172119140623,-159.76889038085938,-313.6094055175781
1699734258,-7.396718444824219,7.577542419433594,-5.520220642089844,0.5708291530609131,-8.064288139343262,4.700854778289795,-16.213592529296875,-159.3704071044922,-311.96453857421875
1699734258,-8.68523895263672,8.11761932373047,-6.038892059326172,0.8804594278335571,-7.788721561431885,5.085011005401611,-18.77996826171875,-158.4990692138672,-310.30230712890625
1699734258,-10.233170013427737,8.256829833984375,-6.481072540283203,1.30846905708313,-7.403153896331787,5.363924980163574,-22.00860595703125,-157.4127197265625,-309.13201904296875
1699734258,-11.351045379638672,8.601113891601562,-6.49289794921875,1.8046237230300903,-6.90878438949585,5.441766738891602,-24.22080993652344,-156.6968536376953,-306.86944580078125
1699734258,-11.96162567138672,9.072932739257812,-6.186634826660157,2.3234379291534424,-6.373345851898193,5.303268909454346,-26.599868774414062,-155.94102478027344,-304.4364013671875
1699734258,-12.393926696777344,8.917855224609376,-5.640270996093751,2.8210604190826416,-5.84143590927124,4.873918056488037,-27.888687133789062,-154.5070343017578,-303.74774169921875
1699734258,-12.545860748291016,8.375682678222656,-5.352718963623047,3.3230159282684326,-5.27123498916626,4.279365062713623,-29.676055908203125,-154.1536407470703,-302.39666748046875
1699734258,-13.913566589355469,7.870932312011719,-4.971761169433594,3.7483932971954346,-4.475681781768799,3.7284905910491934,-31.45147705078125,-154.0401611328125,-300.44635009765625
1699734258,-15.349530487060548,7.382348327636719,-4.35698959350586,3.970466136932373,-3.4908788204193115,3.374680995941162,-32.52427673339844,-153.6024627685547,-299.3349914550781
1699734258,-15.856975250244142,7.220534820556641,-4.133953399658203,4.0578436851501465,-2.36747670173645,3.110657930374145,-33.10417175292969,-153.52212524414062,-298.6264038085937
1699734258,-15.79799789428711,6.655010833740235,-4.136797485351563,4.084640502929688,-1.50211501121521,2.7435758113861084,-33.40644836425781,-153.6638946533203,-298.39019775390625
1699734258,-16.68550231933594,6.965016174316407,-3.8838235473632814,4.068296909332275,-0.8110529184341431,2.2805514335632324,-33.81871032714844,-153.87477111816406,-298.747314453125
1699734258,-16.277899932861327,8.298592987060548,-3.506158905029297,4.075709342956543,-0.2383510470390319,1.8058948516845703,-33.7161865234375,-154.2090606689453,-298.85308837890625
1699734258,-16.12656463623047,7.336094512939454,-3.07325912475586,4.188025951385498,0.196561262011528,1.235740303993225,-33.27667236328125,-154.8687744140625,-299.719970703125
1699734258,-16.173417205810548,6.017037506103516,-2.448608093261719,4.328635215759277,0.4512987434864044,0.5007408857345581,-33.30476379394531,-155.43057250976562,-300.26580810546875
1699734258,-15.980767822265626,5.656886444091797,-2.240241394042969,4.43463945388794,0.5557705760002136,-0.3565607964992523,-32.771575927734375,-156.39859008789062,-301.5224609375
1699734258,-14.700779571533204,5.246739349365234,-2.047442321777344,4.489624977111816,0.5277911424636841,-1.1621872186660769,-32.574249267578125,-157.65786743164062,-301.62310791015625
1699734258,-13.685291290283203,4.152814178466797,-1.5446379089355469,4.466340065002441,0.574125349521637,-1.7621811628341677,-32.47337341308594,-159.74171447753906,-301.9935913085937
1699734258,-13.587245178222656,3.283721466064453,-0.229921875,4.269331932067871,0.6413205862045288,-2.222963333129883,-31.819076538085938,-161.4838104248047,-302.7294616699219
1699734258,-12.731325073242187,3.2692016601562504,0.7345225524902345,3.7690935134887695,0.5696991682052612,-2.656299352645874,-31.159194946289062,-163.65933227539062,-302.46240234375
1699734258,-10.604248352050782,2.9334498596191407,2.0119660949707034,2.03678035736084,0.9890032410621644,-2.6462597846984863,-30.76625061035156,-165.6314697265625,-303.0140991210937
1699734258,-8.904981994628907,2.288141784667969,4.8014154052734375,-0.5490897297859192,1.0410480499267578,-2.289761066436768,-30.119918823242188,-166.66107177734375,-303.27911376953125
1699734258,-7.596702575683594,3.1257998657226564,5.689668273925782,-2.462069511413574,0.4926978349685669,-2.165300130844116,-29.638687133789062,-167.34249877929688,-303.357421875
1699734258,-5.889502716064453,4.288132781982422,6.141428833007812,-3.046839714050293,-1.0455106496810913,-2.380897760391236,-29.408615112304688,-166.9544677734375,-303.84832763671875
1699734258,-5.811963958740234,3.4819093322753907,4.6413981628417975,-2.6597907543182373,-2.904069900512696,-2.8041162490844727,-29.730789184570312,-167.09902954101562,-303.2619323730469
1699734258,-7.920030212402344,2.647694091796875,3.861070861816408,-1.9205266237258911,-4.32992696762085,-3.2033560276031494,-30.7254638671875,-166.92984008789062,-301.6664123535156
1699734258,-9.710906066894532,2.0170555114746094,3.936214599609375,-0.795068085193634,-4.570530891418457,-3.364058017730713,-32.345062255859375,-167.87074279785156,-299.7206420898437
1699734258,-9.914782104492188,0.8842112731933595,3.441343688964844,-0.0747229754924774,-4.094739437103272,-3.2436234951019287,-34.016021728515625,-168.57920837402344,-297.9148254394531
1699734258,-10.208621063232425,1.9303857421875,1.2998968505859376,0.0265887342393398,-3.680718421936035,-3.1667380332946777,-35.11604309082031,-169.73255920410156,-295.575927734375
1699734258,-7.476502532958984,2.988684997558594,-0.9045689392089844,-0.220503881573677,-3.400763511657715,-3.1063778400421143,-35.67863464355469,-171.15533447265625,-293.84356689453125
1699734258,-6.516698455810547,0.2673440551757812,-1.0189311218261718,-0.2579971849918365,-3.8488028049468994,-2.789618492126465,-36.21807861328125,-172.2945556640625,-291.8684997558594
1699734258,-4.705165557861329,-0.7888595581054688,-0.8824150085449219,-0.0684874504804611,-4.196414470672607,-2.536576271057129,-37.11030578613281,-173.0395050048828,-289.60809326171875
1699734258,-2.221979370117188,1.5979270935058594,0.0805325317382812,0.1749084293842315,-4.671331405639648,-2.5315210819244385,-37.51448059082031,-174.19346618652344,-287.7496337890625
1699734258,-2.1842578125000003,2.549797668457032,-0.7173083496093751,0.3985044956207275,-4.839183330535889,-2.4523398876190186,-38.52653503417969,-174.80003356933594,-285.2078857421875
1699734258,-4.433779907226563,2.9882359313964844,-1.0440788269042969,0.7328369617462158,-4.196121692657471,-2.0928890705108643,-38.66065979003906,-176.53367614746094,-282.2232666015625
1699734258,-5.375920715332032,5.318739624023438,-1.5393988037109376,0.9592083096504213,-3.1135990619659424,-1.7721720933914185,-39.37301635742188,-177.42486572265625,-280.0303039550781
1699734258,-4.709805908203125,6.878196716308594,-1.8973045349121087,0.8706640601158142,-1.939571738243103,-1.6592159271240234,-39.000274658203125,-178.12673950195312,-278.3481750488281
1699734258,-4.322710876464844,6.139333190917969,-0.6268963623046875,0.2781474590301513,-1.5091100931167605,-1.6158751249313354,-39.42567443847656,-179.36814880371094,-277.1815185546875
1699734259,-5.420527954101563,2.93150390625,-1.6289126586914062,-0.2379518449306488,-1.4036022424697876,-1.584087610244751,-38.75593566894531,-179.4287872314453,-276.5546264648437
1699734259,-6.4252386474609375,1.806593170166016,-0.2318678283691406,-0.3906487226486206,-1.18052875995636,-1.7081995010375977,-38.57682800292969,-180.3599090576172,-275.28082275390625
1699734259,-6.755451965332032,2.1498294067382813,1.0602452087402343,-0.3570454716682434,-1.1017062664031982,-1.8392142057418823,-38.31163024902344,-180.93702697753903,-274.6142578125
1699734259,-7.162754974365234,2.313139801025391,1.2445120239257814,-0.5550224781036377,-1.218319535255432,-1.7592122554779053,-37.8265380859375,-181.6644592285156,-274.27850341796875
1699734259,-8.263715515136719,0.8590635681152344,1.6075071716308595,-1.0025192499160769,-1.0760453939437866,-1.3601123094558716,-37.43254089355469,-182.538314819336,-273.7082824707031
1699734259,-10.710377655029298,-1.6253201293945314,2.928061065673828,-1.2805300951004028,-0.8337404131889343,-0.8515340089797974,-37.17152404785156,-183.0035552978516,-273.2831420898437
1699734259,-12.093052368164065,-2.042502593994141,3.5199302673339847,-1.2375839948654177,-0.4533973038196563,-0.6777513027191162,-37.237335205078125,-183.2961883544922,-273.103271484375
1699734259,-11.82750457763672,-0.6656657409667969,4.184398498535156,-1.132177472114563,0.1146086007356643,-0.2549830377101898,-36.76318359375,-182.72457885742188,-273.43798828125
1699734259,-13.06812469482422,-1.2389735412597658,3.9197488403320313,-1.3854973316192627,0.914824604988098,0.3663974404335022,-36.86283874511719,-183.20655822753903,-273.990478515625
1699734259,-13.301489410400391,-2.2936802673339844,4.5566743469238284,-2.3613314628601074,1.4066978693008425,1.0044676065444946,-36.65492248535156,-182.9389038085937,-274.0945739746094
1699734259,-14.413377227783204,-9.45029800415039,4.378544769287109,-2.152203321456909,1.5108195543289185,1.074357509613037,-37.09733581542969,-182.1327362060547,-274.8148193359375
1699734259,-16.84896240234375,-9.714797973632812,4.897365875244141,-2.37274169921875,1.9392614364624023,-0.8243200182914734,-36.88267517089844,-181.2632598876953,-276.54840087890625
1699734259,-11.373348999023438,-2.4496559143066405,3.19974609375,-2.2735414505004883,1.2423875331878662,-0.61709064245224,-36.54026794433594,-181.4739990234375,-277.8284912109375
1699734259,-15.223043518066406,-9.775870971679687,0.7659571838378907,-1.8112951517105105,0.7592243552207947,-0.7664270997047424,-36.55677795410156,-181.02867126464844,-278.9608459472656
1699734259,-10.661728820800782,-0.9822573852539064,0.5695655822753907,-1.2318017482757568,-0.2099726796150207,-1.3412622213363647,-35.893524169921875,-181.1010589599609,-278.6654663085937
1699734259,-8.084089050292969,-1.9118243408203128,-0.3290158081054687,0.4048604071140289,0.4565725922584533,-1.5920352935791016,-36.0084228515625,-181.35891723632807,-278.4303894042969
1699734259,-11.588302001953126,2.1043240356445314,5.271138610839844,0.5194628834724426,0.9688832759857178,-1.1135646104812622,-35.321502685546875,-181.70574951171875,-278.0809020996094
1699734259,-8.281229095458984,2.591261444091797,1.1967613220214843,-0.0144830690696835,0.5510240197181702,-0.3678941428661346,-34.92366027832031,-182.1270446777344,-278.907470703125
1699734259,-7.801327056884766,0.8164022827148438,-0.2489323425292968,0.280708372592926,0.1646155714988708,-0.1836678385734558,-35.17973327636719,-181.83514404296875,-278.8326721191406
1699734259,-7.761809234619141,3.134481811523438,0.8253836059570313,1.1373915672302246,0.0170602090656757,-0.2039677798748016,-34.80487060546875,-181.87258911132807,-278.74365234375
1699734259,-7.349267120361328,5.285359039306641,0.2243833923339843,1.6843212842941284,0.3810016810894012,0.052019789814949,-35.171142578125,-182.2062225341797,-278.1178283691406
1699734259,-7.971672821044923,7.2564601135253906,1.1799961853027343,1.6192437410354614,1.0911881923675537,0.8316157460212708,-34.621368408203125,-182.0609741210937,-277.9960327148437
1699734259,-8.269852752685548,7.276817779541016,2.810256042480469,0.9984800815582277,1.223119020462036,2.2303380966186523,-34.778533935546875,-181.5542755126953,-279.0159912109375
1699734259,-8.94973892211914,4.432432708740235,-0.7982899475097657,1.67859947681427,-0.0918694660067558,2.8026046752929688,-35.59764099121094,-180.5804901123047,-278.5187072753906
1699734259,-8.034392395019532,7.617808685302735,-1.4862593078613282,2.823504447937012,-0.5543737411499023,2.1008777618408203,-35.725860595703125,-179.19146728515625,-278.8916015625
1699734259,-8.759783935546876,10.749446411132814,2.4360342407226563,2.9915926456451416,-0.889816164970398,1.23113751411438,-35.66021728515625,-178.92312622070312,-278.0728759765625
1699734259,-9.527238006591798,9.589059448242187,-0.3124003601074219,1.9581393003463743,-0.1662155985832214,1.2524995803833008,-36.14598083496094,-178.72010803222656,-276.6639404296875
1699734259,-12.77069320678711,5.679938507080078,-0.2565664672851562,0.2828109264373779,0.8316567540168762,1.4382082223892212,-36.06109619140625,-178.37872314453125,-275.96832275390625
1699734259,-12.365186462402344,5.781277770996094,-1.2527449035644531,-1.0147775411605835,1.5118629932403564,1.461101531982422,-36.61907958984375,-177.4132843017578,-276.1719970703125
1699734259,-11.594588928222656,6.393804016113282,0.1332229614257812,-1.5367847681045532,1.8699891567230225,1.462307691574097,-36.85578918457031,-176.96531677246094,-277.2020874023437
1699734259,-10.159523162841795,7.634573822021485,1.1638298034667969,-1.608132004737854,1.8746366500854488,1.455317139625549,-36.55540466308594,-175.9566192626953,-278.43084716796875
1699734259,-9.431287536621094,8.57701400756836,1.178349609375,-1.5194423198699951,1.909542679786682,1.555976629257202,-36.31193542480469,-175.5283203125,-279.24468994140625
1699734259,-9.362281036376952,8.458310852050781,1.3970448303222658,-1.4245778322219849,1.88414204120636,1.6821047067642212,-36.56303405761719,-174.76470947265625,-280.71197509765625
1699734259,-9.161698150634765,7.572003936767579,1.0906320190429688,-1.288106083869934,1.6433852910995483,1.7024699449539185,-36.46995544433594,-174.13873291015625,-281.78814697265625
1699734259,-9.09538604736328,6.844965820312501,1.1517050170898435,-1.1080195903778076,1.4667659997940063,1.6357351541519165,-36.383148193359375,-173.03781127929688,-282.43341064453125
1699734259,-8.989556121826173,6.978787536621094,0.4354444885253906,-0.9472104907035828,1.4520885944366455,1.58752179145813,-36.765167236328125,-172.21463012695312,-283.08209228515625
1699734259,-9.876461791992188,6.885082397460938,-1.0473719787597655,-0.8398089408874512,1.5543094873428345,1.6874589920043943,-36.39697265625,-171.46763610839844,-283.92193603515625
1699734259,-10.408156127929688,6.769073638916016,-1.8721568298339848,-0.8797677755355835,1.7928597927093506,1.8165563344955444,-36.0968017578125,-170.75115966796875,-284.9544372558594
1699734259,-10.00923568725586,5.986950073242188,-2.0613633728027345,-1.0019006729125977,1.6631158590316772,1.6785392761230469,-36.20703125,-169.60299682617188,-286.03643798828125
1699734259,-10.260563049316406,4.952601013183594,-3.416794738769531,-1.2602999210357666,1.625713348388672,1.599777102470398,-36.250579833984375,-168.9932098388672,-286.177978515625
1699734259,-10.783575439453124,3.624562683105469,-2.211950225830078,-0.6509740352630615,1.716261863708496,1.56898832321167,-35.925262451171875,-168.3954315185547,-287.7214660644531
1699734259,-11.639645233154296,4.284091186523438,-1.9600241088867187,-0.2595886886119842,1.365399718284607,1.4360592365264893,-35.911773681640625,-167.4550018310547,-288.501708984375
1699734259,-11.12426696777344,3.799548797607422,-3.9835162353515625,-0.457078605890274,1.5078428983688354,1.601102590560913,-35.491668701171875,-167.158203125,-289.31512451171875
1699734259,-12.722643127441406,1.3308824157714845,-2.125729522705078,0.2939724922180176,2.557081937789917,1.9965465068817136,-35.69294738769531,-166.3905029296875,-290.0014038085937
1699734259,-13.76747039794922,2.5283921813964847,-1.0509645080566408,0.9679165482521056,2.417521715164185,1.751233458518982,-35.35450744628906,-165.53013610839844,-291.5735778808594
1699734259,-10.924432525634764,3.5009197998046875,-5.183570709228516,1.085875153541565,2.071815013885498,1.5048197507858276,-34.75559997558594,-165.32237243652344,-291.88787841796875
1699734259,-10.20323226928711,0.2616558837890625,-2.169588317871094,1.2723875045776367,1.92657470703125,1.6919262409210205,-34.36187744140625,-164.9324188232422,-293.0062255859375
1699734259,-11.411070556640626,-0.2938389587402344,-1.0394384765625,1.34977126121521,1.8067454099655151,1.7346899509429932,-34.07490539550781,-164.33782958984375,-294.3192138671875
1699734259,-10.808872833251954,-0.2032772827148437,-0.3986210632324219,1.2999978065490725,1.2007697820663452,1.449346899986267,-33.40997314453125,-164.1595916748047,-295.0645751953125
1699734259,-11.36810989379883,-1.80389877319336,1.28133544921875,0.3205492496490478,1.9980536699295044,1.0532413721084597,-33.018157958984375,-164.04925537109375,-295.46978759765625
1699734259,-13.169014892578126,-3.656895446777344,4.278552703857423,0.082275167107582,1.9357458353042605,0.6571480631828308,-32.780059814453125,-163.7739715576172,-296.2181091308594
1699734259,-12.838801574707032,-2.1869522094726563,4.176315307617188,0.3953510522842407,1.3999992609024048,0.415907472372055,-31.98565673828125,-163.9314727783203,-297.19512939453125
1699734259,-11.289223937988282,-0.7845185852050781,4.869673461914063,0.6964283585548401,0.375523030757904,-0.0166500825434923,-31.573211669921875,-163.2559051513672,-297.78204345703125
1699734259,-9.425599365234376,-0.542471923828125,4.434528350830078,1.044488549232483,-0.7060074806213379,-0.2459218800067901,-31.49090576171875,-163.0797882080078,-297.7008056640625
1699734259,-9.441616058349611,-0.8470884704589844,4.362079010009766,1.469855546951294,-1.6979087591171265,-0.3719959259033203,-31.90936279296875,-163.87637329101562,-297.5255126953125
1699734259,-8.750952301025391,0.901575164794922,2.8554620361328125,1.7987189292907717,-2.2408716678619385,-0.4311612546443939,-32.41398620605469,-164.18614196777344,-296.78985595703125
1699734259,-8.167315979003906,2.0757334899902347,1.8309924316406248,1.9098435640335083,-2.4500482082366943,-0.5132142901420593,-32.99885559082031,-164.76022338867188,-295.9940185546875
1699734259,-7.458240509033203,2.839145965576172,1.2849279785156251,1.889249920845032,-2.611315488815308,-0.7503632307052612,-33.55426025390625,-165.73190307617188,-294.87451171875
1699734259,-6.599176940917969,2.989134063720704,1.325792999267578,1.7985919713974,-2.8781325817108154,-1.0411028861999512,-34.37309265136719,-166.3224639892578,-293.5326843261719
1699734259,-5.904621276855469,2.781815185546875,1.5503260803222656,1.8284614086151123,-3.1708014011383057,-1.408949375152588,-35.48698425292969,-166.6928253173828,-291.8809814453125
1699734259,-5.589077453613282,2.7318191528320312,1.2882211303710938,1.8561944961547847,-3.448587656021118,-1.811155915260315,-35.98114013671875,-167.45802307128906,-290.411376953125
1699734259,-5.2437455749511726,2.1839584350585937,0.2457888793945312,1.7310397624969482,-3.654149293899536,-2.2226009368896484,-36.61494445800781,-168.4943084716797,-289.00311279296875
1699734259,-4.847669219970704,1.4012361145019532,-1.3428575134277343,1.4622381925582886,-3.676398992538452,-2.490065097808838,-37.47697448730469,-170.20289611816406,-287.015869140625
1699734259,-5.109474792480469,0.7837701416015626,-2.442470855712891,1.0988149642944336,-3.0721561908721924,-2.6184210777282715,-37.524688720703125,-171.1675262451172,-284.645751953125
1699734259,-7.694299621582032,0.55324951171875,-3.1701077270507816,0.6364827156066895,-2.439345359802246,-2.5605828762054443,-38.163421630859375,-172.174560546875,-282.7894897460937
1699734259,-7.777825927734375,0.3326083374023437,-4.198618927001953,0.3719125688076019,-2.0769503116607666,-2.3687286376953125,-38.20350646972656,-173.05902099609375,-281.7914123535156
1699734259,-7.992778930664063,0.7048841857910156,-4.125870208740235,-0.0746731758117675,-1.4899848699569702,-2.247098684310913,-38.054718017578125,-174.3430633544922,-280.6742553710937
1699734259,-7.572453002929688,0.0282911682128906,-3.224444732666016,-0.7391659617424011,-1.131900191307068,-2.037849187850952,-38.50282287597656,-175.035400390625,-279.260498046875
1699734259,-8.400680694580078,-1.929038543701172,-4.222569122314454,-1.2475711107254028,-0.8258885741233826,-1.721059799194336,-38.157958984375,-175.94012451171875,-279.0419921875
1699734259,-8.97563507080078,-2.281256103515625,-3.2488439941406253,-1.669939637184143,-0.7839605808258057,-1.6649606227874756,-38.17311096191406,-176.38909912109375,-278.2621459960937
1699734259,-8.445587310791016,-3.8001475524902335,-2.5210574340820315,-1.6185665130615234,-0.6109869480133057,-2.1907379627227783,-38.23725891113281,-176.86679077148438,-278.27313232421875
1699734259,-9.9776513671875,-5.13297592163086,-1.1310479736328125,-1.3175464868545532,-0.6445491313934326,-2.6474595069885254,-38.10832214355469,-177.0792694091797,-278.68084716796875
1699734259,-11.979139251708984,-4.798571319580079,-2.084415435791016,-1.4655324220657349,-0.6755331754684448,-2.3783202171325684,-37.92488098144531,-177.98672485351562,-278.3746643066406
1699734259,-11.685449981689452,-4.0585102844238286,-1.636995849609375,-1.3302500247955322,-0.6209967136383057,-2.062993049621582,-37.60029602050781,-178.82785034179688,-278.12310791015625
1699734259,-12.894485778808594,-2.62778549194336,-1.0606942749023438,-0.7922129034996033,-0.3469318449497223,-2.006150484085083,-37.31227111816406,-179.3764190673828,-278.03253173828125
1699734259,-12.657678222656251,1.6455281066894532,-0.5596861267089844,-0.2955802381038666,-0.0820629149675369,-1.987496018409729,-37.16618347167969,-180.3365173339844,-278.00927734375
1699734259,-10.878478088378907,5.326074371337891,1.8001565551757814,0.4388340711593628,0.4385075867176056,-1.800086498260498,-36.84471130371094,-180.6135406494141,-278.3253479003906
1699734259,-10.64960403442383,4.654870147705078,3.6045043945312494,1.0202796459197998,0.2572086155414581,-1.2154600620269775,-36.29136657714844,-181.1957397460937,-277.7434997558594
1699734259,-11.899055786132813,5.128634948730469,0.9014254760742187,1.3649619817733765,-0.1420881599187851,-0.9656701683998108,-35.603912353515625,-181.8964691162109,-278.0261535644531
1699734259,-8.850644989013674,6.851552124023438,-0.62031005859375,1.328908085823059,-0.1250639110803604,-0.7629743218421936,-35.62815856933594,-182.0504608154297,-277.56085205078125
1699734259,-9.216783599853516,6.477330322265625,-1.745520172119141,0.9798621535301208,0.1425840407609939,-0.1124700829386711,-35.63111877441406,-182.53683471679688,-276.9305419921875
1699734259,-11.997251586914064,5.018763427734375,-2.9033624267578126,0.5716259479522705,0.6970754861831665,0.6680718064308167,-35.02949523925781,-182.7000274658203,-277.3192138671875
1699734259,-12.859458618164064,5.796995086669922,-2.605481872558594,0.0499739497900009,1.1844401359558103,1.2188228368759155,-35.16117858886719,-182.24278259277344,-277.2561950683594
1699734259,-11.922107849121094,6.250252532958985,-1.7188755798339843,-0.3686746954917907,1.594746708869934,1.7226606607437134,-35.24195861816406,-181.7370758056641,-277.6845397949219
1699734259,-10.906619567871097,5.977369995117188,0.257464599609375,-0.8411117792129517,2.4503209590911865,2.399468421936035,-35.383087158203125,-181.17530822753903,-278.3479919433594
1699734259,-9.159303131103515,5.7101756286621095,3.505111083984376,-2.029839515686035,1.9870952367782595,3.61462926864624,-35.3677978515625,-180.0081787109375,-279.66973876953125
1699734259,-7.926317138671876,1.69806884765625,-4.538711700439453,-2.4586760997772217,0.3455201089382171,4.260496616363525,-35.67936706542969,-177.8922882080078,-281.7799072265625
1699734259,-6.698420562744141,3.4120046997070315,-6.175707550048829,-1.939955711364746,2.3893847465515137,3.914926767349243,-36.33195495605469,-176.06076049804688,-281.8783264160156
1699734259,-11.845167846679688,8.626560974121094,4.162843322753907,-1.4097139835357666,1.8308247327804563,2.974749803543091,-36.597747802734375,-174.26455688476562,-282.8240051269531
1699734259,-10.103240203857425,11.36376892089844,-6.860982513427735,-0.7841017246246338,0.8665651679039001,2.478065729141236,-36.76438903808594,-172.7838134765625,-284.18365478515625
1699734259,-9.81134719848633,4.987029418945313,-5.087919616699219,-0.5056179165840149,0.9314581751823424,2.271496057510376,-36.74024963378906,-171.12713623046875,-284.69061279296875
1699734259,-11.379336547851564,4.193080444335938,-3.7714073181152346,-0.3941925764083862,1.1009539365768433,2.330606460571289,-36.90235900878906,-169.82362365722656,-285.4879455566406
1699734259,-10.119705963134766,5.594166870117188,-5.095853118896485,-0.368733286857605,2.045119524002075,2.932410478591919,-36.951263427734375,-169.00942993164062,-286.1008605957031
1699734259,-12.013717346191408,5.104834442138672,-4.631668395996094,-0.7465218901634216,2.7207577228546143,4.009598255157471,-37.14085388183594,-167.3985595703125,-287.0982360839844
1699734259,-15.939154357910155,6.165079650878907,-7.867339782714844,-1.548435926437378,2.628894329071045,4.853979110717773,-36.49189758300781,-165.84828186035156,-288.38494873046875
1699734259,-16.769178314208986,6.904990997314454,-8.858578491210938,-2.4703361988067627,2.220343351364136,5.329439163208008,-35.9117431640625,-163.3492431640625,-289.382080078125
1699734259,-16.039296112060548,6.303092651367188,-8.659791870117187,-3.259328603744507,1.1082041263580322,5.50766658782959,-35.50079345703125,-160.63380432128906,-290.23272705078125
1699734259,-15.645764465332032,3.379222869873047,-9.607171783447264,-3.776991128921509,-0.6145723462104797,5.726016998291016,-34.84016418457031,-157.8612518310547,-291.3519897460937
1699734259,-14.757810974121094,0.6518943786621094,-9.848020935058594,-3.834043502807617,-2.804248332977295,5.752099990844727,-34.94667053222656,-154.7403106689453,-291.01171875
1699734260,-11.571237487792969,0.6315367126464844,-7.6455010986328125,-2.852867126464844,-3.090686559677124,5.721116542816162,-34.98652648925781,-151.28106689453125,-289.7582092285156
1699734260,-10.070907440185549,-0.7418572998046875,-2.465373229980469,-1.3651318550109863,-3.6493711471557617,5.59938383102417,-35.05598449707031,-148.25152587890625,-287.8668212890625
1699734260,-10.499166870117188,0.2198927307128906,-0.2573149108886718,0.1686681061983108,-5.701894760131836,5.494170665740967,-35.07414245605469,-145.45343017578125,-286.62701416015625
1699734260,-9.025780792236327,1.4877561950683595,0.4499642944335937,1.7303351163864136,-7.3286285400390625,5.337677955627441,-34.82432556152344,-142.9024658203125,-284.4335327148437
1699734260,-4.979544982910157,2.254910888671875,3.8583764648437504,3.116734266281128,-7.578175067901611,4.831716537475586,-34.88322448730469,-140.7370147705078,-281.0739440917969
1699734260,-0.0303868103027343,3.367098083496094,8.436306610107422,4.116495609283447,-6.279067039489746,3.8158349990844727,-34.5771484375,-138.84646606445312,-278.10430908203125
1699734260,5.664071502685547,6.199807434082032,13.140574035644532,4.24307107925415,-3.177338123321533,2.069544792175293,-34.541351318359375,-137.40003967285156,-276.2062072753906
1699734260,11.328143005371096,9.112151184082032,16.22281448364258,3.633850574493408,0.2991741895675659,0.1136839538812637,-33.87379455566406,-136.52195739746094,-275.8328552246094
1699734260,10.398426361083985,7.991581420898438,11.532168731689454,3.4021642208099365,2.1570656299591064,-1.0304441452026367,-34.27101135253906,-136.2410125732422,-275.83209228515625
1699734260,4.5409570312500005,5.897585906982422,4.834197235107422,3.506162405014038,3.321280002593994,-1.2428759336471558,-34.27482604980469,-137.25469970703125,-277.9095153808594
1699734260,-1.1117381286621095,4.5584706115722655,1.907183990478516,3.54207444190979,4.340311050415039,-0.8575871586799622,-34.33015441894531,-138.36346435546875,-280.2524719238281
1699734260,-5.090763702392579,4.24636962890625,-0.2556683349609375,3.421725988388061,5.121719837188721,-0.2246882319450378,-34.003692626953125,-139.2693634033203,-282.6700439453125
1699734260,-6.091582489013672,4.525688781738282,-3.9342686462402345,-0.4485053420066833,-1.1448016166687012,0.2559260427951813,-33.32989501953125,-140.1819305419922,-285.571533203125
1699734260,-6.914271697998047,7.316485290527344,-39.77708312988281,-1.3104779720306396,-0.8371937274932861,0.4826872944831848,-32.82342529296875,-139.86239624023438,-286.695556640625
1699734260,-6.867718505859376,7.664361877441407,-5.819598083496094,-0.889807939529419,-0.3436354100704193,0.7267590761184692,-32.90925598144531,-139.84182739257812,-286.043212890625
1699734260,-7.520960083007813,6.777456207275391,0.2183958435058594,-0.4148006439208984,0.0554936192929744,0.9103837609291076,-33.05964660644531,-139.20826721191406,-285.1818542480469
1699734260,-7.703580322265625,7.65208740234375,-2.348316650390625,-0.1354542374610901,-0.1937050223350525,0.8738433122634888,-32.730010986328125,-138.58453369140625,-285.7010498046875
1699734260,-8.557255096435547,7.752977600097656,-4.011058959960938,-0.1533823609352111,-0.9886831045150756,0.5803805589675903,-32.43084716796875,-138.76113891601562,-285.5567626953125
1699734260,-9.384734344482425,7.696095886230469,-5.507347412109375,-0.2240757048130035,-1.6733919382095337,0.5024135708808899,-32.51496887207031,-138.1332244873047,-285.1283569335937
1699734260,-10.196795654296876,7.428302764892578,-4.028273162841797,-0.4085827171802521,-1.6216919422149658,0.6480687856674194,-32.935546875,-137.60092163085938,-284.6893920898437
1699734260,-8.804690551757814,7.608228607177735,-2.432441711425781,-0.6222444176673889,-1.0418075323104858,0.8827803730964661,-32.81663513183594,-137.31492614746094,-283.9825744628906
1699734260,-7.3814501953125,8.101452941894532,-1.217717742919922,-0.841984212398529,-0.2331605553627014,1.135531663894653,-32.96211242675781,-137.1207275390625,-283.0638427734375
1699734260,-6.569089508056641,8.559500427246094,-0.6852749633789063,-1.0512598752975464,0.5562112927436829,1.3510676622390747,-32.85713195800781,-136.46287536621094,-282.5769958496094
1699734260,-6.287525024414063,8.527467041015626,-0.6116281127929688,-1.1965430974960327,1.1314849853515625,1.4817665815353394,-32.1920166015625,-135.6850128173828,-282.74627685546875
1699734260,-5.975873107910156,8.137078857421875,-0.6433621215820313,-1.267495036125183,1.577894926071167,1.6285099983215332,-31.733413696289062,-134.87831115722656,-282.7862548828125
1699734260,-6.33961669921875,7.529492340087891,-0.718505859375,-1.2437318563461304,1.7187039852142334,1.8144375085830688,-30.9449462890625,-134.3538360595703,-282.912353515625
1699734260,-6.653813323974609,6.865772552490235,-0.7827223205566407,-1.1641480922698977,1.6838035583496094,2.16294002532959,-29.986236572265625,-133.35574340820312,-283.387451171875
1699734260,-6.883884887695313,5.203628997802735,-0.6089337158203125,-1.0217092037200928,1.4628664255142212,2.575101852416992,-29.3013916015625,-132.2611846923828,-283.3509521484375
1699734260,-6.49334701538086,5.720204772949219,-0.6062393188476562,-0.7398504018783569,0.6921334862709045,2.889605760574341,-28.003143310546875,-131.11917114257812,-284.1446533203125
1699734260,-4.831353149414063,6.084996185302734,-0.4026626586914062,-0.3946618139743805,-0.197041168808937,3.05762243270874,-26.719741821289062,-130.0509490966797,-284.4262084960937
1699734260,-2.695145416259766,5.809718627929688,0.0437091064453125,-0.0569192096590995,-0.9134634733200072,3.1278605461120605,-25.62042236328125,-128.8314971923828,-284.29180908203125
1699734260,-0.2529739379882812,5.069507904052735,0.2936892700195312,0.2482223212718963,-1.5194729566574097,3.040895462036133,-24.95625305175781,-128.11424255371094,-283.50250244140625
1699734260,1.325493621826172,4.559069366455079,0.3835025024414062,0.5254747271537781,-1.9102870225906368,2.925562858581543,-23.961578369140625,-126.91983032226562,-283.102783203125
1699734260,1.7143849182128907,4.956792297363282,0.4611909484863281,0.741862416267395,-2.075632810592652,2.806297779083252,-23.14202880859375,-126.02790832519533,-283.14410400390625
1699734260,2.095941467285156,5.434149627685547,0.6411167907714844,0.9067754745483398,-2.126715898513794,2.67504620552063,-22.225112915039062,-125.3750457763672,-282.9407958984375
1699734260,2.373164978027344,5.948330383300782,0.7890092468261719,1.0989062786102295,-1.9763894081115725,2.5668692588806152,-21.64610290527344,-124.8345184326172,-282.9243469238281
1699734260,2.636018371582032,6.434219970703126,1.145867156982422,1.3313435316085815,-1.542622685432434,2.52038836479187,-21.066314697265625,-124.47467041015624,-282.527099609375
1699734260,2.5092320251464844,6.074068908691406,1.5232324218750002,1.616849064826965,-0.6520220041275024,2.496551275253296,-20.52764892578125,-123.58561706542967,-282.6502685546875
1699734260,1.6615447998046875,6.235433349609376,1.760039978027344,1.951545000076294,0.7835353016853333,2.49161434173584,-19.636886596679688,-123.31576538085938,-283.17633056640625
1699734260,-0.3492237854003906,7.035968627929688,1.9836749267578129,2.005499124526977,2.350750207901001,2.460184335708618,-18.548171997070312,-123.58949279785156,-284.2545166015625
1699734260,-2.195035400390625,7.764204254150391,1.1966116333007812,2.016063690185547,3.317946434020996,2.6037161350250244,-17.361526489257812,-123.39166259765624,-285.7845458984375
1699734260,-3.5340010070800782,8.98656234741211,-0.8032296752929687,1.92082941532135,3.344279527664185,3.0068519115448,-15.726654052734377,-123.09803771972656,-287.0746459960937
1699734260,-4.736899566650391,11.18758529663086,-3.2256422424316407,1.547113299369812,2.4549269676208496,3.425018310546875,-13.91259765625,-122.96600341796876,-288.8133544921875
1699734260,-4.955594787597657,14.777569885253907,-6.093079376220704,0.9124400019645692,0.3691650032997131,3.541813611984253,-12.060394287109377,-122.60623168945312,-289.67822265625
1699734260,-4.73540267944336,20.57202026367188,-9.031918029785157,0.169922724366188,-2.5329174995422363,3.3481285572052,-10.044769287109377,-122.23806762695312,-290.296630859375
1699734260,-3.670517120361328,24.503295135498043,-10.444530487060549,-0.4688093066215515,-5.187539577484131,2.8570876121521,-8.7880859375,-121.70646667480467,-290.986572265625
1699734260,-1.4849121093750002,24.302113494873044,-9.060957641601563,-0.8549420833587646,-6.80794620513916,2.280991315841675,-8.370758056640625,-121.08999633789062,-290.3560791015625
1699734260,0.5474116516113281,20.64057769775391,-5.834866333007813,-1.105131983757019,-7.396981239318848,1.7634565830230713,-8.945220947265625,-120.6273956298828,-288.9962158203125
1699734260,2.731669464111328,16.219221954345706,-3.1928604125976565,-1.2647173404693604,-7.403307437896728,1.3587011098861694,-10.22198486328125,-119.93295288085938,-287.1810607910156
1699734260,4.554279327392578,12.412637786865234,-1.7116905212402345,-1.376075267791748,-6.665068626403809,0.8309483528137207,-10.575790405273438,-119.22312927246094,-285.0685119628906
1699734260,6.220913543701172,9.012757873535156,-0.3505709838867187,-1.4752156734466553,-4.534862518310547,0.0022325278259813,-10.876541137695312,-118.93667602539062,-283.53143310546875
1699734260,7.921377410888672,5.676944732666016,0.2924917602539063,-1.5094594955444336,-1.4139167070388794,-1.0094035863876345,-12.240493774414062,-118.22956848144533,-281.552734375
1699734260,9.10975616455078,3.612737274169922,-0.5810916137695313,-1.2889471054077148,1.5570762157440186,-1.766472578048706,-12.904891967773438,-118.413818359375,-280.6185913085937
1699734260,6.944359130859375,2.9954209899902344,-1.5837066650390623,-0.9184406399726868,3.506618022918701,-2.091217517852783,-13.336471557617188,-118.54640197753906,-279.7256164550781
1699734260,4.954097900390625,3.1317874145507814,-2.975362701416016,-0.6398137807846069,4.316446304321289,-2.126143455505371,-13.833694458007812,-118.81173706054688,-280.11688232421875
1699734260,4.440665588378907,3.7482055664062495,-4.403243408203125,-0.4236154556274414,4.442528247833252,-2.05176043510437,-14.035537719726562,-119.68067932128906,-281.2134704589844
1699734260,3.900289306640625,4.320016479492188,-4.532125396728516,0.9363945722579956,1.9907557964324951,-1.0681710243225098,-13.960311889648438,-120.12710571289062,-281.3286437988281
1699734260,-7.034022674560547,-2.6252407836914062,-2.318977661132813,1.3512636423110962,-0.3395120203495025,-0.0552470088005065,-14.395828247070312,-120.90362548828124,-282.289306640625
1699734260,-3.879482574462891,1.2978012084960937,-6.452931060791016,0.5168631076812744,-1.1393213272094729,-0.8041508197784424,-14.315277099609377,-120.8839874267578,-282.822509765625
1699734260,5.189558258056641,7.757168884277344,-8.108488311767578,-0.1816824525594711,-1.2428206205368042,-1.3098174333572388,-14.950149536132812,-121.10726928710938,-283.2147521972656
1699734260,1.4419514465332033,7.927814025878907,-3.553759918212891,-0.4468286335468292,0.8198783993721008,-1.2982980012893677,-15.480514526367188,-121.88470458984376,-282.31231689453125
1699734260,-0.3115022277832031,11.607013092041017,7.336693267822266,-0.0511065945029258,3.019977569580078,-1.1152905225753784,-16.34307861328125,-122.2752685546875,-282.596923828125
1699734260,0.4854405212402344,14.982793121337892,9.329349517822266,0.5005736351013184,4.470816135406494,-1.171938419342041,-15.905487060546877,-122.92874145507812,-282.9413452148437
1699734260,2.240840148925781,14.12238235473633,5.5464161682128905,1.0587007999420166,4.675703525543213,-1.5831645727157593,-15.808685302734377,-123.18196105957033,-284.297607421875
1699734260,2.889141998291016,10.643017730712891,1.697021026611328,1.5120205879211426,3.954476833343506,-1.7418063879013062,-15.455657958984377,-123.98484802246094,-286.093017578125
1699734260,1.0999127197265626,9.270222473144532,-0.983005828857422,1.6324535608291626,2.899938106536865,-1.5232458114624023,-15.025543212890623,-124.85850524902344,-287.82647705078125
1699734260,0.4282594299316406,10.862611083984376,-3.342848510742188,1.1875418424606323,2.180469036102295,-1.069666624069214,-15.44305419921875,-125.40838623046876,-288.714599609375
1699734260,-0.6713539123535157,13.250445556640626,-4.9018565368652345,0.2799062132835388,1.850635409355164,-0.320873886346817,-15.225204467773438,-126.4904327392578,-290.3148803710937
1699734260,-3.455713806152344,13.837973785400392,-5.620811462402344,-0.6603065729141235,1.5557571649551392,0.2317179143428802,-15.136032104492188,-126.68302917480467,-290.70654296875
1699734260,-4.146527252197266,13.627062377929688,-4.891827392578125,-1.2380188703536987,1.3710302114486694,0.2883524298667907,-14.564727783203123,-126.521728515625,-290.86590576171875
1699734260,-2.828368377685547,13.89725051879883,-2.2088067626953127,-1.2433966398239136,1.5223968029022217,0.0350069850683212,-14.353164672851562,-126.1249542236328,-290.913818359375
1699734260,-1.978884887695313,14.02418655395508,1.4266831970214844,-0.8633222579956055,1.966637134552002,-0.2026351392269134,-13.544342041015623,-125.88523864746094,-290.7525634765625
1699734260,-1.7106427001953126,14.03391632080078,3.133433990478516,-0.5190849900245667,2.4430694580078125,-0.2527563571929931,-13.425811767578123,-125.87335205078124,-291.2841186523437
1699734260,-1.3024415588378906,13.32543960571289,2.319277038574219,-0.3932577967643738,2.565861463546753,-0.262062519788742,-13.078567504882812,-125.53662109375,-291.5823669433594
1699734260,-0.3183879089355469,12.459041290283205,0.5168751525878906,-0.4102269411087036,2.279369831085205,-0.2605122923851013,-12.580490112304688,-125.30287170410156,-292.35418701171875
1699734260,-0.1552272033691406,10.726993103027343,-0.7978408813476563,-0.5341653823852539,1.8463010787963867,-0.2634532153606415,-11.600387573242188,-125.18864440917967,-292.6477355957031
1699734260,0.3037184143066406,9.840985565185548,-1.4220428466796875,-0.6826198697090149,1.4742921590805054,-0.1949093043804168,-11.579025268554688,-125.49696350097656,-292.434326171875
1699734260,0.741258544921875,10.41549087524414,-1.4431489562988282,-0.775717556476593,1.2106386423110962,0.0802192017436027,-11.08209228515625,-124.84510803222656,-292.6520690917969
1699734260,0.3718267822265625,10.88626190185547,-0.969833221435547,-0.7654598951339722,1.0010422468185425,0.4811849892139435,-10.866485595703123,-124.58097839355467,-292.9814147949219
1699734260,0.2713856506347656,11.417806549072266,-0.4210743713378906,-0.67970871925354,0.8079029321670532,0.8598641157150269,-10.649429321289062,-124.38639831542967,-293.055908203125
1699734260,0.5951623535156251,11.869417419433594,-0.166453857421875,-0.533334493637085,0.5661693811416626,1.1673479080200195,-10.089996337890623,-123.82843017578124,-292.55426025390625
1699734260,0.5057981872558595,11.442205810546875,-0.2468367004394531,-0.3429650664329529,0.2247212529182434,1.5409239530563354,-9.315383911132812,-123.19924926757812,-293.05816650390625
1699734260,-0.7646099853515625,10.366692352294924,-0.5215155029296875,0.016153136268258,-0.5286337733268738,1.8806103467941284,-8.926345825195312,-122.88688659667967,-293.47821044921875
1699734260,-1.1969110107421876,8.98701141357422,-0.9767189025878906,0.189011201262474,-1.1500965356826782,2.0165882110595703,-8.068328857421875,-122.6959228515625,-293.4356689453125
1699734260,-1.069226531982422,8.050409088134765,-1.944755859375,0.1813828349113464,-1.551241755485535,2.1214420795440674,-7.85748291015625,-121.775146484375,-293.613525390625
1699734260,-2.4266038513183594,7.436086578369141,-2.648442535400391,-0.0189680978655815,-1.462779521942139,2.731196403503418,-7.265213012695312,-121.68789672851562,-293.21319580078125
1699734260,-10.316696319580078,5.354814605712891,-2.771786041259766,-0.1490778923034668,-1.3288710117340088,3.8889706134796143,-6.8199005126953125,-121.2970733642578,-293.5263671875
1699734260,-16.89012680053711,4.496349792480469,-2.439028015136719,0.2416850626468658,-2.93709683418274,4.566906929016113,-6.010421752929688,-120.68098449707033,-293.13336181640625
1699734260,-8.562943267822266,10.620265045166017,-2.744542694091797,0.6787252426147461,-4.444956302642822,4.565208911895752,-4.729095458984375,-119.63015747070312,-293.3548583984375
1699734260,-2.3215223693847657,12.822335815429687,-3.1570848083496097,0.9226289987564088,-5.370422840118408,3.8707594871521,-3.6376800537109375,-119.27931213378906,-292.23046875
1699734260,1.755249938964844,10.95332244873047,-3.595822448730469,0.8172681927680969,-5.360499382019043,2.3529324531555176,-3.26959228515625,-118.79258728027344,-292.6056823730469
1699734260,7.901917877197266,10.998079376220703,-3.942351837158203,0.439339816570282,-4.218027591705322,0.7766216993331909,-3.3027801513671875,-118.52540588378906,-292.2623291015625
1699734260,8.626111907958984,11.341914367675782,-3.1713052368164063,0.256880521774292,-2.876047849655152,-0.2498140931129455,-3.8119049072265625,-118.10855102539062,-292.3345031738281
1699734260,7.264243927001954,11.733350372314456,-1.5408956909179687,0.20147505402565,-1.070889592170715,-0.6325827836990356,-4.9112396240234375,-118.03314208984376,-291.8997497558594
1699734260,5.647156677246094,12.043804779052737,-0.0793350219726562,0.2437812387943267,0.88808673620224,-0.4450597465038299,-5.678741455078125,-118.51779174804688,-291.8558349609375
1699734260,4.028722229003907,12.885055389404297,-0.0685574340820312,0.2799208760261535,2.208284616470337,-0.0847854614257812,-5.9518890380859375,-118.57400512695312,-292.24365234375
1699734260,3.6916232299804688,14.395564270019532,-1.457219696044922,0.3633371889591217,2.302764177322388,0.1569257080554962,-5.195343017578125,-118.57470703125,-292.5863037109375
1699734260,3.5079551696777345,14.637910308837892,-2.151775360107422,0.5881396532058716,1.3577873706817627,0.1679013818502426,-4.423599243164063,-118.05357360839844,-292.8324584960937
1699734260,3.1819331359863283,13.739927673339844,-2.040107574462891,0.6374115943908691,0.2464673072099685,0.0620449967682361,-4.00396728515625,-118.5486297607422,-292.953369140625
1699734260,2.894381103515625,13.078902282714845,-2.304158477783204,0.3177441358566284,-0.323749840259552,-0.0281916912645101,-4.077880859375,-118.24887084960938,-293.74053955078125
1699734261,2.661016387939453,12.796140289306642,-2.5066873168945314,-0.2130129337310791,-0.3472269475460052,-0.0590191110968589,-4.0725860595703125,-117.86065673828124,-293.5723876953125
1699734261,2.4325914001464843,12.576546936035156,-2.2608984375000003,-0.6809082627296448,-0.2317690551280975,-0.0262417234480381,-3.6266937255859375,-117.95802307128906,-293.39166259765625
1699734261,2.355202331542969,12.712164916992188,-2.072590026855469,-1.070786714553833,-0.0306702945381402,-0.0154985319823026,-3.978790283203125,-116.99069213867188,-292.7355651855469
1699734261,2.75711654663086,12.630434875488282,-2.01136734008789,-1.216551423072815,-0.0719072148203849,-0.0913376361131668,-3.925491333007813,-116.67184448242188,-292.779052734375
1699734261,3.312461700439453,11.828103332519532,-1.5600558471679689,-1.1888532638549805,-0.3285784125328064,-0.1833144277334213,-4.1753997802734375,-115.77781677246094,-291.78033447265625
1699734261,3.422183532714844,10.89449478149414,-1.1874806213378908,-1.1858373880386353,-0.3895890414714813,-0.1848233789205551,-4.148834228515625,-115.70553588867188,-291.45477294921875
1699734261,3.290307769775391,10.144254913330078,-0.9436376953125,-1.3485310077667236,-0.1522563844919204,-0.1073621436953544,-4.4505157470703125,-114.69923400878906,-290.55645751953125
1699734261,3.2687525939941406,9.660610656738282,-0.7661068725585938,-1.571600079536438,0.0457858629524707,0.0648058950901031,-4.378509521484375,-113.90716552734376,-290.8321533203125
1699734261,3.164419555664063,9.566905517578126,-0.4763095092773438,-1.8916800022125244,0.1920144408941269,0.2720704078674316,-4.380416870117188,-113.34269714355467,-289.26373291015625
1699734261,3.3419503784179687,10.158924407958985,-0.5153782653808594,-2.2451159954071045,0.2213182747364044,0.3777086734771728,-4.4210968017578125,-112.61788940429688,-288.32763671875
1699734261,3.763623504638672,10.88910598754883,-0.6692582702636719,-2.5633318424224854,0.1741233319044113,0.4011277258396148,-3.96014404296875,-111.74717712402344,-286.7821655273437
1699734261,3.556454315185547,11.116483154296876,-0.6839277648925781,-2.837308645248413,0.3690270483493805,0.3587091565132141,-3.620849609375,-110.591552734375,-285.4740600585937
1699734261,3.68159408569336,11.328143005371096,-0.6456074523925781,-3.300766468048096,1.372617483139038,0.2561806440353393,-3.289947509765625,-109.8040771484375,-284.0916748046875
1699734261,3.976331176757813,11.504326629638673,-1.1256591796875,-4.176742076873779,3.70697283744812,0.0581152327358722,-2.830429077148437,-108.80767822265624,-282.3685607910156
1699734261,4.0302191162109375,10.789413299560549,-1.391356658935547,-4.507349014282227,5.390738487243652,-0.183841735124588,-2.386383056640625,-107.62229919433594,-280.04119873046875
1699734261,4.377646636962891,10.606643371582033,0.9205856323242188,-3.753620386123657,5.881877422332764,-0.6083778142929077,-1.3343048095703125,-106.89761352539062,-278.4244384765625
1699734261,5.721402282714844,10.845696258544924,5.498366088867188,-1.8877540826797483,4.323809146881104,-0.9267696738243104,-0.77288818359375,-105.70591735839844,-275.949462890625
1699734261,4.834047546386719,10.323132934570314,5.9516235351562505,-0.5906603336334229,2.665987730026245,-0.780860424041748,-1.0307769775390625,-105.2709503173828,-274.4722900390625
1699734261,2.4801924133300783,8.592731323242187,1.6413368225097658,-0.0452601574361324,1.5777612924575806,-0.5744864344596863,-1.372467041015625,-105.23171997070312,-274.4978942871094
1699734261,2.463277587890625,8.2244970703125,-1.071621551513672,-0.0418585017323493,0.8555735349655151,-0.4438381493091583,-1.5012664794921875,-104.9808349609375,-273.9020080566406
1699734261,2.796484680175781,8.856632537841799,-2.6638604736328126,-0.2663398087024688,0.2974964082241058,-0.3937853872776031,-1.0709075927734375,-104.49057006835938,-274.0184020996094
1699734261,2.712060241699219,9.358538818359376,-3.0532008361816407,-0.6971295475959778,0.0109312105923891,-0.2289929687976837,-1.358917236328125,-104.47663879394533,-273.68701171875
1699734261,1.7561480712890627,9.71419921875,-3.0132339477539065,-1.107004165649414,-0.2798945009708404,-0.1303795725107193,-1.0956573486328125,-103.84658813476562,-273.03594970703125
1699734261,1.5983761596679689,9.833501129150392,-2.1335133361816405,-1.5106182098388672,-0.3867277503013611,0.2995195984840393,-1.2266082763671875,-103.66392517089844,-271.8109741210937
1699734261,-2.040406951904297,9.587861938476562,-1.2460089111328123,-1.7248114347457886,-1.1099202632904053,1.192434310913086,-0.9670867919921876,-103.2278289794922,-270.81072998046875
1699734261,-7.240892486572266,8.602311401367189,-0.8928932189941406,-1.8167150020599363,-2.5950448513031006,2.33461856842041,-0.3546905517578125,-102.77586364746094,-269.6326904296875
1699734261,-9.739197235107424,8.676706695556641,-0.9589059448242188,-1.7906996011734009,-4.762352466583252,3.553835153579712,0.831024169921875,-102.4976806640625,-267.960693359375
1699734261,-9.418414306640626,11.216475219726563,-0.0854722595214843,-2.121129035949707,-6.096939086914063,4.249772071838379,3.111541748046875,-101.92681884765624,-265.6225280761719
1699734261,-4.17496810913086,15.182627563476563,0.94124267578125,-2.6512839794158936,-7.043056488037109,3.842573165893554,6.188140869140625,-101.4011688232422,-264.23321533203125
1699734261,4.0707847595214846,16.807648315429688,0.5866300964355469,-3.2324109077453613,-7.521463394165039,2.231009006500244,9.491744995117188,-100.7917022705078,-261.7566833496094
1699734261,11.992461547851564,16.58970153808594,-0.7551795959472657,-3.8009793758392334,-6.683007717132568,1.0149176120758057,12.323287963867188,-101.08155822753906,-260.0046081542969
1699734261,9.763746185302736,15.497722320556642,-2.0209474182128906,-4.059879779815674,-5.300497055053711,-0.1479284763336181,14.689254760742188,-101.83956909179688,-258.14080810546875
1699734261,8.91381362915039,13.121264190673829,-2.792443084716797,-3.873150825500488,-3.662835359573364,-0.9753736853599548,16.015960693359375,-102.46125793457033,-255.02769470214844
1699734261,6.322402496337891,9.68875213623047,-2.362237701416016,-3.213995218276977,-2.024327278137207,-1.4317162036895752,16.764205932617188,-102.92854309082033,-252.5815887451172
1699734261,4.571643218994141,6.4129641723632815,-1.891466674804688,-2.4687628746032715,-0.6716148853302002,-1.968412399291992,17.216552734375,-103.6405792236328,-250.48797607421875
1699734261,6.525979156494141,4.482877807617188,-2.6108706665039065,-1.9146865606307983,0.4984931647777557,-2.343909740447998,16.69781494140625,-104.5402374267578,-248.1625366210937
1699734261,6.912625122070313,2.275118865966797,-3.31276107788086,-1.6411067247390747,1.464551329612732,-2.4439830780029297,15.647171020507812,-105.32211303710938,-247.04624938964844
1699734261,7.503745880126954,0.3203338623046875,-3.916904754638672,-1.6283416748046875,1.8673512935638428,-2.221542358398437,14.327072143554688,-105.6828155517578,-246.2209930419922
1699734261,8.221203918457032,-1.3572276306152344,-4.398752746582032,-1.9962999820709229,1.503169059753418,-1.4931191205978394,13.234024047851562,-105.95491027832033,-244.6818389892578
1699734261,7.827971649169922,-3.2525862121582034,-3.982019348144532,-2.970228910446167,0.5716201066970825,-0.2691270709037781,11.7379150390625,-106.44317626953124,-242.6035003662109
1699734261,8.635841674804688,-2.9018655395507813,-1.9495458984375,-4.044564723968506,-0.1497157216072082,0.839665412902832,11.110916137695312,-106.89553833007812,-242.10435485839844
1699734261,9.4315869140625,0.0272433471679687,1.6170872497558595,-4.560756206512451,-0.5728800296783447,1.3696343898773191,11.294479370117188,-107.7684326171875,-240.1332092285156
1699734261,8.984317016601564,2.485431518554688,5.883664855957032,-4.399613857269287,-0.6424218416213989,1.4959020614624023,12.7786865234375,-109.06678771972656,-237.3026123046875
1699734261,8.105494537353517,3.879931640625,9.49625244140625,-3.8730216026306152,-0.0549724400043487,1.3449466228485107,13.867538452148438,-110.50775146484376,-235.06655883789065
1699734261,7.711663513183594,4.785398712158203,11.859837341308594,-3.392280578613281,1.4892966747283936,1.1714468002319336,14.825119018554688,-111.92893981933594,-232.44552612304688
1699734261,6.827302551269532,4.6288243103027344,12.16280731201172,-2.998605489730835,3.277864933013916,0.946814775466919,15.448562622070312,-112.68760681152344,-230.58914184570312
1699734261,7.79099853515625,5.2964360046386725,10.823242950439454,-3.021181583404541,5.613219261169434,1.137934923171997,15.739593505859377,-114.13581848144533,-228.1313018798828
1699734261,6.904092864990234,7.54955062866211,8.375982055664062,-2.660254716873169,5.304033279418945,1.5065656900405884,14.547210693359377,-115.01025390625,-226.5642547607422
1699734261,4.468657379150391,6.556515655517578,6.515201568603516,-1.8855971097946167,3.68310809135437,1.5883768796920776,13.056564331054688,-115.84976196289062,-224.80517578125
1699734261,2.8033703613281253,4.902305603027344,5.9074653625488285,-1.2207802534103394,2.530326128005981,1.7658289670944214,11.962905883789062,-117.02839660644533,-222.91793823242188
1699734261,0.8816665649414063,5.671106872558594,5.133574676513672,-0.6894383430480957,1.765438199043274,1.0811917781829834,11.644195556640623,-117.50416564941406,-222.12042236328125
1699734261,4.544250183105469,7.883955230712891,4.460574188232422,-0.3660978376865387,1.7741619348526,0.2380264103412628,11.733993530273438,-117.96780395507812,-221.15496826171875
1699734261,3.777095489501953,8.85049530029297,4.871769104003906,-0.2085611969232559,2.249753952026367,-0.6181159615516663,11.417877197265623,-118.24795532226562,-220.96853637695312
1699734261,2.844834136962891,9.637857971191409,5.076692962646485,-0.0890393257141113,2.5728683471679688,-1.3166614770889282,10.913070678710938,-118.24519348144533,-220.4580993652344
1699734261,1.577120361328125,9.845326538085938,4.3524989318847656,0.0787110552191734,2.495436429977417,-1.8112584352493288,9.126861572265623,-118.33699035644533,-220.69805908203125
1699734261,0.3677851867675781,9.97331039428711,3.592379608154297,0.1932434886693954,1.880425810813904,-2.0065743923187256,6.71343994140625,-118.35519409179688,-220.1554412841797
1699734261,-1.1449690246582032,9.7716796875,2.5429119873046875,0.1242433860898017,0.8432555794715881,-1.945024013519287,5.033218383789063,-118.1983642578125,-220.378173828125
1699734261,-2.660717010498047,9.237290954589843,1.5440391540527345,-0.1542428284883499,-0.2734810709953308,-1.6913437843322754,3.4393310546875,-118.30020141601562,-220.5204315185547
1699734261,-3.819906463623047,7.722740478515625,0.9569599914550782,-0.5108752250671387,-1.1940921545028689,-1.315245509147644,2.8387451171875,-118.62936401367188,-219.77491760253903
1699734261,-4.6500801086425785,5.431305541992188,1.5411950683593751,-0.6973891854286194,-1.6552083492279053,-0.8642799258232117,1.9612579345703125,-118.9511260986328,-219.47653198242188
1699734261,-4.812642059326172,3.169508972167969,3.5459761047363285,-0.5924590826034546,-1.5803136825561523,-0.609321117401123,2.470916748046875,-119.42010498046876,-219.1803436279297
1699734261,-2.463127899169922,2.1448896789550784,6.008205871582032,-0.2901979982852936,-1.1790207624435425,-0.7239707708358765,2.822235107421875,-119.93576049804688,-218.7130584716797
1699734261,1.2585827636718752,2.314636688232422,7.496261444091798,0.0584222972393035,-0.7341184616088867,-0.8514874577522278,3.249252319335937,-120.30459594726562,-218.45953369140625
1699734261,2.983894958496094,2.312690734863281,7.914192352294922,0.3270446956157684,-0.4307580590248108,-0.8419943451881409,3.69464111328125,-120.43544006347656,-218.7134552001953
1699734261,3.213667144775391,2.336341552734375,7.634274444580078,0.4743864834308624,-0.3440255522727966,-0.7475937604904175,3.470077514648437,-120.9110870361328,-218.6699066162109
1699734261,3.0398785400390627,2.6167085266113284,7.161856842041016,0.5239548087120056,-0.4091004133224487,-0.620236337184906,3.736175537109375,-120.66664123535156,-218.6718139648437
1699734261,2.7304719543457034,3.065325622558594,7.12039306640625,0.5490788221359253,-0.4378761351108551,-0.5503347516059875,2.9144439697265625,-120.64675903320312,-218.6080474853516
1699734261,2.6385630798339843,3.601959686279297,7.725883941650391,0.6122796535491943,-0.3576564192771911,-0.5024591088294983,3.2955322265625,-120.23106384277344,-219.4803009033203
1699734261,2.2303619384765625,3.925137634277344,8.373137969970703,0.7127450108528137,-0.1828619539737701,-0.4889097809791565,2.6287994384765625,-120.07292175292967,-219.161865234375
1699734261,1.931732940673828,4.265080718994141,8.58419906616211,0.8217050433158875,0.0059998356737196,-0.4974870085716247,2.580841064453125,-119.80006408691406,-219.7852478027344
1699734261,1.7048048400878908,4.649481353759766,8.448880462646486,0.9288501143455504,0.1727320998907089,-0.539315938949585,2.24493408203125,-119.27891540527344,-219.471923828125
1699734261,1.505120086669922,5.110223236083985,8.358318786621094,1.053370475769043,0.3016224205493927,-0.5898118615150452,1.8819427490234373,-118.8373565673828,-220.32077026367188
1699734261,1.088536376953125,5.570366363525391,8.421487426757812,1.2365949153900146,0.3838003873825073,-0.6475303173065186,1.520843505859375,-118.47370910644533,-220.2308044433593
1699734261,0.4686753845214844,5.973478088378907,8.460705871582032,1.5143966674804688,0.4681102037429809,-0.6737174391746521,0.853240966796875,-118.18797302246094,-221.416732788086
1699734261,-0.0916094970703125,6.123915252685547,8.368946685791016,1.830915808677673,0.5635752081871033,-0.649449348449707,0.2827301025390625,-117.66262817382812,-221.7228240966797
1699734261,-0.3188369750976562,6.063740386962891,7.7583663940429695,2.0796194076538086,0.6216201186180115,-0.582709789276123,-0.6767578125,-117.02830505371094,-222.9757843017578
1699734261,-0.2152523803710937,6.06658447265625,6.870412902832031,2.145740509033203,0.616050124168396,-0.5215137600898743,-1.3481292724609375,-115.76449584960938,-223.4543914794922
1699734261,0.1128652954101562,6.437812500000001,6.296356658935547,1.832955002784729,0.5975717902183533,-0.5196352005004883,-2.0013580322265625,-115.1251983642578,-224.60501098632807
1699734261,0.494571533203125,7.597001953125001,6.934479675292969,1.147453546524048,0.5105713605880737,-0.5242903828620911,-2.3729705810546875,-114.42514038085938,-225.49745178222656
1699734261,0.8945397949218751,10.352022857666016,9.429042205810548,0.2656308710575104,-0.0043199136853218,-0.4740586578845978,-3.346038818359375,-113.52590942382812,-226.26231384277344
1699734261,1.3918057250976563,15.571518859863282,12.63806900024414,-0.1678614318370819,-1.2140309810638428,-0.2665978670120239,-3.624557495117188,-113.4892578125,-226.722900390625
1699734261,2.037263488769532,20.312909088134766,12.943433990478516,0.5981054902076721,-1.723886251449585,-0.1398828029632568,-3.71160888671875,-113.415283203125,-226.9014129638672
1699734261,1.7076489257812502,19.892283782958984,10.49826873779297,1.7060036659240725,-1.3930872678756714,-0.1776877045631408,-3.115951538085937,-113.5715789794922,-226.6561889648437
1699734261,1.035696258544922,15.256573791503907,6.705904998779297,2.229287624359131,-0.8007824420928955,-0.2506431341171264,-2.602874755859375,-112.95556640625,-226.6409606933593
1699734261,1.1105406188964844,9.859247589111328,4.164340209960938,2.213013172149658,-0.2186444550752639,-0.2514684498310089,-1.6073455810546875,-112.75546264648438,-226.9970703125
1699734261,1.4986834716796875,6.185437316894531,3.784280548095704,1.9914588928222656,0.285750538110733,-0.282469779253006,-1.3292236328125,-112.09649658203124,-228.3068084716797
1699734261,2.622247009277344,4.568350067138672,4.71579345703125,1.823976397514344,0.5747775435447693,-0.3746159374713897,-1.52337646484375,-111.59700012207033,-229.8261566162109
1699734261,3.7414695739746096,4.169429626464844,5.527555389404297,1.7959364652633667,0.7561899423599243,-0.4318720400333404,-1.3030548095703125,-110.24186706542967,-230.2563018798828
1699734261,3.9329214477539054,3.957320709228516,5.713917846679688,1.8643203973770144,0.9962288737297058,-0.3817428350448608,-1.9423675537109373,-110.14778137207033,-230.92251586914065
1699734261,3.4453852844238284,3.6777021789550783,5.234315185546875,1.9648594856262207,1.2530609369277954,-0.2078786343336105,-2.422882080078125,-109.33317565917967,-232.4277191162109
1699734261,2.628533935546875,3.5551071166992188,4.361180877685547,2.013736724853516,1.3870999813079834,0.0285770501941442,-2.9960174560546875,-109.14085388183594,-233.421615600586
1699734261,1.990111541748047,3.982019348144532,3.4708323669433594,1.971570372581482,1.3572454452514648,0.2313557267189026,-3.4774169921875,-108.18289184570312,-234.63259887695312
1699734261,1.6503181457519531,5.103936309814453,2.793041839599609,1.8934361934661863,1.2547749280929563,0.3218914866447449,-3.9918365478515625,-107.2703094482422,-235.3538055419922
1699734261,1.5747253417968752,6.664590911865234,2.458786926269531,1.8421921730041504,1.2337394952774048,0.2841321229934692,-4.7256927490234375,-106.64102172851562,-236.20819091796875
1699734261,1.6037649536132814,8.41894271850586,2.3607408142089845,1.880253553390503,1.254744291305542,0.1767894178628921,-4.621353149414063,-105.80998229980467,-237.6469268798828
1699734261,1.7509089660644532,10.087373199462892,2.1501287841796874,2.01232385635376,1.2221757173538208,0.0674011409282684,-4.39630126953125,-105.4558563232422,-239.3578948974609
1699734261,2.0389100646972658,11.207344207763672,1.790277099609375,2.181288957595825,1.1097743511199951,0.0026069683954119,-4.9182891845703125,-104.9207763671875,-240.55303955078125
1699734261,2.339035949707031,11.588302001953126,1.3654605102539064,2.355072498321533,0.9558972120285034,0.015907060354948,-5.144088745117188,-104.21473693847656,-241.6418609619141
1699734261,2.518961791992188,11.698622589111327,0.994980926513672,2.4733428955078125,0.8351225852966309,0.0813430622220039,-5.35369873046875,-103.8190460205078,-243.33517456054688
1699734262,2.35475326538086,11.64697998046875,0.7150630187988282,2.534324884414673,0.821224570274353,0.1535759717226028,-5.7746429443359375,-103.17227172851562,-245.10533142089844
1699734262,1.798509979248047,11.849808197021485,1.2422666931152344,2.4904158115386963,0.8568091988563538,0.2047110646963119,-5.781494140625,-102.71958923339844,-246.7567596435547
1699734262,0.7366181945800782,11.935130767822267,2.013612670898437,2.3139090538024902,0.9321849346160888,0.1741606146097183,-5.660415649414063,-101.83172607421876,-247.7193298339844
1699734262,-0.3701802062988281,11.546538848876954,2.826272735595704,2.029197931289673,1.0342849493026731,0.0878893733024597,-5.92449951171875,-101.38238525390624,-249.1807098388672
1699734262,-1.3552816772460938,10.576256561279298,3.2048355102539063,1.7376761436462402,1.1027926206588743,0.0297336615622043,-5.79833984375,-101.02238464355467,-250.63772583007807
1699734262,-1.8815872192382808,9.008416900634764,2.791694641113281,1.531874179840088,1.0367289781570437,0.0340418554842472,-5.5224456787109375,-101.02981567382812,-252.2989959716797
1699734262,-1.8224601745605469,7.809559936523438,1.887125701904297,1.4181679487228394,0.8049220442771912,0.0993846431374549,-5.8795928955078125,-100.3267822265625,-253.3091583251953
1699734262,-1.4302757263183594,7.572902069091797,0.8632548522949219,1.3881876468658447,0.4659977853298187,0.1763191074132919,-5.864105224609375,-100.24432373046876,-254.8430633544922
1699734262,-0.7994874572753906,8.08887908935547,-0.0413140869140625,1.3933496475219729,0.0478183887898922,0.2436177134513855,-5.948822021484375,-100.07369995117188,-255.1604156494141
1699734262,-0.2965333557128906,8.913214874267577,-0.9544152832031252,1.4129140377044678,-0.3714835345745086,0.2872253954410553,-6.147262573242188,-99.93182373046876,-255.8177032470703
1699734262,-0.0489482116699218,9.70746322631836,-1.6075071716308595,1.4195735454559326,-0.7588834762573242,0.2892283499240875,-6.0204010009765625,-99.73211669921876,-256.900634765625
1699734262,-0.0458047485351562,10.351424102783204,-2.022593994140625,1.402612328529358,-1.1020362377166748,0.2867042124271393,-5.43963623046875,-99.33872985839844,-257.63702392578125
1699734262,-0.2363584899902344,10.669662322998049,-2.069446563720703,1.3917850255966189,-1.3985249996185305,0.2808132767677307,-5.175567626953125,-99.23602294921876,-258.51885986328125
1699734262,-0.5701643371582031,10.553503875732424,-1.665436706542969,1.4004709720611572,-1.6271849870681765,0.2796055376529693,-4.820037841796875,-99.1572265625,-259.1457214355469
1699734262,-0.8756790161132812,10.071655883789065,-0.865799560546875,1.4376752376556396,-1.787020206451416,0.2722855806350708,-4.3814697265625,-99.11752319335938,-259.87890625
1699734262,-0.9957293701171877,9.411229248046876,0.096998291015625,1.4707250595092771,-1.8810575008392327,0.2389934062957763,-4.183441162109375,-99.03358459472656,-260.675537109375
1699734262,-0.7358697509765625,8.813372497558595,0.8069718933105469,1.4424245357513428,-1.905753254890442,0.1694944947957992,-3.971588134765625,-98.84674072265624,-261.0679931640625
1699734262,-0.0856219482421875,8.374185791015625,1.2496014404296876,1.3402626514434814,-1.81415331363678,0.0773464515805244,-3.5868072509765625,-99.30453491210938,-261.8889465332031
1699734262,0.5387297058105469,7.956105194091797,1.5081138610839844,1.206171989440918,-1.5871734619140625,0.0292937066406011,-3.17425537109375,-98.8309326171875,-262.2945556640625
1699734262,0.8036787414550781,7.512128448486329,1.859283599853516,1.1071546077728271,-1.2543823719024658,0.0251109451055526,-3.1532135009765625,-98.96662902832033,-263.390380859375
1699734262,1.0313552856445314,7.522007904052734,1.99505126953125,1.0482792854309082,-0.9176544547080994,0.0040450752712786,-3.2872467041015625,-99.1142578125,-263.6663818359375
1699734262,1.330433349609375,7.662415924072266,1.7423767089843751,1.0155363082885742,-0.6377019286155701,-0.0397189185023307,-2.845611572265625,-99.10237121582033,-263.9155578613281
1699734262,1.4880555725097655,7.918533325195312,1.4304254150390625,1.0053621530532837,-0.3940809965133667,-0.085027277469635,-2.89544677734375,-99.3308563232422,-264.406005859375
1699734262,1.5401472473144533,8.198451232910157,1.2067904663085938,1.0060701370239258,-0.1848662495613098,-0.1050683632493019,-2.81976318359375,-99.03399658203124,-264.8535461425781
1699734262,1.5209870910644532,8.484207000732422,1.038240966796875,1.0019712448120115,-0.0316961444914341,-0.105524830520153,-3.0471343994140625,-98.83226013183594,-265.6722412109375
1699734262,1.44898681640625,8.830586700439454,0.959355010986328,0.9862582683563232,0.0773967877030372,-0.0820301547646522,-3.1425323486328125,-99.34506225585938,-266.15728759765625
1699734262,1.2936099243164063,9.264534301757813,1.038240966796875,0.937039077281952,0.1581283807754516,-0.037613421678543,-3.13616943359375,-99.07980346679688,-267.02685546875
1699734262,1.0371931457519532,9.72183334350586,1.1753558349609377,0.8534107804298401,0.2076746374368667,0.0415311977267265,-3.3510894775390625,-99.37734985351562,-267.68865966796875
1699734262,0.7996371459960938,10.223440246582031,1.3001962280273438,0.7218005657196045,0.2437298446893692,0.1278277337551117,-3.0523681640625,-99.40762329101562,-267.90826416015625
1699734262,0.6438111877441407,10.748997344970704,1.4121633911132814,0.5475038290023804,0.2773788869380951,0.2039475440979004,-2.872177124023437,-99.29408264160156,-268.9622802734375
1699734262,0.4631369018554688,11.186088409423828,1.4166540527343752,0.3397093713283539,0.3081311881542206,0.2709097862243652,-2.6217498779296875,-99.47943115234376,-269.5521240234375
1699734262,0.164058837890625,11.475137329101564,1.2328363037109376,0.1144418865442276,0.3405093848705292,0.3191489577293396,-2.6671905517578125,-99.50125122070312,-269.87158203125
1699734262,-0.2288740539550781,11.516900482177736,0.9131011962890624,-0.1117182746529579,0.3573197722434997,0.3456056118011474,-2.713134765625,-99.28848266601562,-269.7891845703125
1699734262,-0.6932084655761719,11.427236938476565,0.5415737915039063,-0.3032802641391754,0.3537932336330414,0.3671351373195648,-2.20428466796875,-99.1298370361328,-270.0654296875
1699734262,-1.0785072326660157,11.290720825195312,0.3562591552734375,-0.4215307235717773,0.3299957513809204,0.3705714046955108,-1.7686767578125,-99.16464233398438,-269.43377685546875
1699734262,-1.20948486328125,11.26811782836914,0.3945794677734375,-0.4626930654048919,0.2843233346939087,0.3278540372848511,-1.80322265625,-98.84144592285156,-269.2929077148437
1699734262,-1.1916719055175782,11.478280792236328,0.3248245239257812,-0.4616573750972748,0.2436603307723999,0.252056747674942,-1.718170166015625,-98.75331115722656,-268.90478515625
1699734262,-1.0228230285644533,11.953243103027344,0.0847238159179687,-0.4241259694099426,0.2652798593044281,0.1805151849985122,-1.3869171142578125,-98.59820556640624,-268.6932983398437
1699734262,-0.7159611511230469,12.485236816406251,-0.086220703125,-0.3358895778656006,0.3197452425956726,0.126570463180542,-1.50970458984375,-98.78224182128906,-267.967041015625
1699734262,-0.2059716796875,13.056898040771484,-0.1679507446289062,-0.2073294818401336,0.357484370470047,0.0853359401226043,-1.0542144775390625,-98.97018432617188,-268.5573425292969
1699734262,0.6318360900878907,13.52991439819336,-0.1848655700683593,-0.044556550681591,0.35659059882164,0.0586848855018615,-0.5400238037109375,-98.8524169921875,-268.0575561523437
1699734262,1.4004876708984375,13.607303466796877,-0.1954934692382812,0.1133622452616691,0.3327465355396271,0.0830328315496444,-0.673095703125,-98.89561462402344,-267.4561767578125
1699734262,1.88967041015625,13.552966461181642,-0.2677931213378906,0.234726220369339,0.3077429234981537,0.1575443595647812,-0.3438568115234375,-99.09738159179688,-267.81085205078125
1699734262,2.3044578552246096,13.63813934326172,-0.3240760803222656,0.2816194295883178,0.2456779330968856,0.2363398373126983,-0.021820068359375,-98.70523071289062,-267.34112548828125
1699734262,2.6911038208007816,13.912967834472656,-0.4267625427246094,0.2363912314176559,0.1406929343938827,0.2938926219940185,0.4157867431640625,-98.74299621582033,-267.7851867675781
1699734262,2.8837532043457035,14.21249496459961,-0.3679348754882812,0.0946207791566848,0.0504599772393703,0.3364246189594269,0.9310150146484376,-98.552001953125,-268.069580078125
1699734262,2.438878326416016,14.343771972656253,-0.0449066162109375,-0.1372673064470291,0.082098864018917,0.4065571129322052,1.18267822265625,-98.29165649414062,-268.1152648925781
1699734262,1.3516891479492188,14.271472320556642,0.2866539001464844,-0.428651750087738,0.199061170220375,0.4347011148929596,1.6252899169921875,-98.55487060546876,-267.93341064453125
1699734262,0.661025390625,14.02807846069336,0.4200265502929687,-0.709816575050354,0.2780902087688446,0.3731152713298797,2.0875396728515625,-98.22401428222656,-267.4627380371094
1699734262,0.4252656555175781,13.48919906616211,0.4026626586914062,-0.9222431182861328,0.2608702182769775,0.2507603168487549,2.648712158203125,-98.13011169433594,-266.71923828125
1699734262,0.4062551879882812,12.737013244628908,0.4948709106445312,-1.04932701587677,0.1498363614082336,0.1074122115969657,3.0415496826171875,-98.21255493164062,-266.7197570800781
1699734262,0.4990621948242187,12.000844116210938,0.9436376953125,-1.0868043899536133,-0.0210701320320367,-0.0420433245599269,3.77056884765625,-98.20738220214844,-265.32781982421875
1699734262,0.6987469482421875,11.604917449951172,1.7612374877929688,-1.0701560974121094,-0.2243031412363052,-0.2037936002016067,4.04595947265625,-97.93055725097656,-264.6222839355469
1699734262,1.101409606933594,11.754456481933596,2.7512786865234378,-1.1408257484436035,-0.408888965845108,-0.361779510974884,4.25390625,-97.76034545898438,-263.27252197265625
1699734262,1.8820362854003907,12.325369262695313,3.673361206054688,-1.45623779296875,-0.4538391232490539,-0.4888423979282379,4.518829345703125,-97.76956176757812,-262.8016662597656
1699734262,2.6698480224609376,12.85885986328125,4.6044250488281255,-2.057801485061645,-0.2544469237327575,-0.5645475387573242,4.7996368408203125,-97.657958984375,-261.82574462890625
1699734262,2.7897486877441406,12.710368652343751,5.411846008300781,-2.7664220333099365,0.2020593583583831,-0.5628657341003418,4.685470581054688,-97.56820678710938,-259.8641052246094
1699734262,2.228415985107422,11.809691619873048,5.786217498779298,-3.387893915176392,0.8664975166320801,-0.5153416395187378,4.630172729492188,-97.5743408203125,-258.851318359375
1699734262,1.692081298828125,10.884465637207033,5.743855590820313,-3.753247022628784,1.5715720653533936,-0.4968315958976745,4.851974487304688,-98.15028381347656,-256.6058959960937
1699734262,1.465602264404297,10.528655548095704,5.42232421875,-3.798301696777344,2.1667816638946533,-0.5043390393257141,4.631805419921875,-98.33575439453124,-253.86265563964844
1699734262,1.5013778686523438,10.75603271484375,4.939278717041016,-3.516873359680176,2.551623582839966,-0.4897694289684295,4.51165771484375,-98.89881896972656,-251.075927734375
1699734262,1.6976197814941407,11.231294403076172,4.044589233398438,-3.0439488887786865,2.731162548065185,-0.4327375888824463,4.408111572265625,-99.22032165527344,-248.25311279296875
1699734262,2.184108123779297,11.530372467041015,2.6506878662109377,-2.495660781860352,2.722851276397705,-0.3752875924110412,3.8226470947265625,-99.8885498046875,-245.8642578125
1699734262,2.7939399719238285,11.514056396484376,0.8758287048339845,-1.9942834377288816,2.513400793075561,-0.3482703566551208,3.489410400390625,-100.65150451660156,-243.9462738037109
1699734262,3.3693434143066407,10.976673889160155,-0.9361532592773438,-1.60381817817688,2.232132196426392,-0.3739418983459472,3.259063720703125,-101.0015869140625,-241.8692626953125
1699734262,3.705394592285157,10.062225494384766,-2.180665283203125,-1.3874478340148926,1.934511423110962,-0.4018901884555816,2.4545440673828125,-101.84022521972656,-240.39537048339844
1699734262,3.461851043701172,9.097032623291016,-2.914439392089844,-1.373690485954285,1.6923214197158811,-0.397157222032547,2.2854766845703125,-102.20343017578124,-239.2421722412109
1699734262,2.899021453857422,8.41894271850586,-3.087479553222656,-1.549871802330017,1.4382526874542236,-0.3376249074935913,1.9267425537109373,-102.52516174316406,-238.0015869140625
1699734262,2.1475840759277345,7.978259124755859,-2.954555969238281,-1.898163795471192,1.1322554349899292,-0.24460069835186,1.67388916015625,-103.30999755859376,-236.90750122070312
1699734262,1.3699511718750002,7.705526275634766,-2.403252410888672,-2.328519582748413,0.8478074669837952,-0.1504118740558624,1.212890625,-103.86058044433594,-235.65049743652344
1699734262,0.7626640319824219,7.541617126464844,-1.1831396484375,-2.7132678031921387,0.639581024646759,-0.0644453018903732,1.1572113037109375,-104.32662963867188,-234.72213745117188
1699734262,0.4388873291015625,7.435787200927734,0.487386474609375,-2.8889405727386475,0.3603411316871643,0.040713608264923,0.7395477294921875,-104.95440673828124,-232.4262237548828
1699734262,0.1212478637695312,7.265591125488282,2.239193572998047,-2.776318311691284,-0.1623441725969314,0.1169702932238578,1.092071533203125,-105.83512878417967,-231.03530883789065
1699734262,-0.085023193359375,7.334747314453125,3.592379608154297,-2.527585744857788,-0.6963495016098022,0.0965076312422752,1.32708740234375,-107.19937133789062,-229.19143676757807
1699734262,-0.0595761108398437,7.678282928466797,4.310436401367188,-2.3681445121765137,-0.7989765405654907,-0.0043156524188816,1.865234375,-108.65823364257812,-226.60012817382807
1699734262,0.0142204284667968,7.906558227539063,5.027145996093751,-2.3118152618408203,-0.5505816340446472,-0.175542265176773,2.88525390625,-109.52395629882812,-224.97705078125
1699734262,-0.1597178649902343,8.178842010498048,5.36244873046875,-2.2805449962615967,-0.1742913722991943,-0.4020933806896209,3.2566680908203125,-110.94769287109376,-223.84133911132807
1699734262,-0.4343966674804688,8.413853302001954,5.2524275207519535,-2.2147932052612305,0.2584555149078369,-0.6459015011787415,3.739501953125,-112.04029846191406,-222.4761505126953
1699734262,-0.4736151123046875,8.41849365234375,4.869224395751953,-2.073859214782715,0.5977174639701843,-0.8573402762413025,3.6185455322265625,-113.1677703857422,-220.7907257080078
1699734262,-0.3899391174316406,8.268206176757813,4.0529718017578125,-1.828256607055664,0.7302494049072266,-0.9769108891487122,3.736648559570313,-114.23135375976562,-219.3890075683593
1699734262,-0.2746788024902344,7.687264251708985,3.0823901367187503,-1.5729169845581057,0.6016637682914734,-0.9526191353797911,3.2065887451171875,-115.53753662109376,-218.30776977539065
1699734262,-0.1924996948242187,6.84541488647461,1.93278076171875,-1.374881386756897,0.2660655081272125,-0.8144415020942688,2.76312255859375,-116.80690002441406,-217.40139770507807
1699734262,-0.0345780944824218,5.859415283203125,0.8940907287597657,-1.2821296453475952,-0.16233991086483,-0.6254873275756836,2.0967254638671875,-118.0881805419922,-216.3626251220703
1699734262,0.1969903564453125,4.789440307617188,0.2261796569824218,-1.2841962575912476,-0.5610148310661316,-0.4318222403526306,1.8212432861328125,-118.85739135742188,-215.72186279296875
1699734262,0.4546046447753906,3.763623504638672,0.0522413635253906,-1.3417344093322754,-0.8336365222930908,-0.2586195766925812,1.9713897705078125,-119.18190002441406,-215.12705993652344
1699734262,0.6976991271972657,2.871478729248047,0.3483256530761719,-1.372488021850586,-0.8984432220458984,-0.1324105113744735,2.395782470703125,-120.1090850830078,-214.40382385253903
1699734262,1.0734178161621095,2.245181121826172,1.368753662109375,-1.2945247888565063,-0.7867976427078247,-0.0966903269290924,2.536224365234375,-120.96131896972656,-213.82481384277344
1699734262,1.5549664306640625,1.9559825134277344,3.114273834228516,-1.036468744277954,-0.680387556552887,-0.1289617121219635,3.2596588134765625,-121.5862274169922,-212.75909423828125
1699734262,1.831291809082032,1.864073638916016,5.164709930419922,-0.5866935849189758,-0.6712833046913147,-0.1625052839517593,3.781051635742188,-122.5438232421875,-212.29705810546875
1699734262,1.763782196044922,1.9607725524902344,6.980134735107423,-0.0467672385275363,-0.6442663073539734,-0.1681141704320907,4.242919921875,-122.9756317138672,-211.6853485107422
1699734262,1.2361294555664064,2.343077545166016,7.924221496582032,0.4264573156833648,-0.5071084499359131,-0.0848163515329361,4.88604736328125,-123.52204895019533,-211.47100830078125
1699734262,0.3113525390625,2.973267059326172,7.910450134277344,0.7589545845985413,-0.4616254270076751,0.0201169867068529,5.145050048828125,-123.37980651855467,-211.01141357421875
1699734262,-0.5273533630371094,3.606450347900391,7.280709686279297,0.9615209698677064,-0.5699931383132935,0.0763637498021125,5.343231201171875,-123.29827880859376,-211.5193023681641
1699734262,-1.0487191772460938,3.9637573242187503,6.791227569580078,1.0557012557983398,-0.6358579397201538,0.1052177622914314,5.498748779296875,-122.86178588867188,-211.4662475585937
1699734262,-1.3741424560546875,3.940106506347656,6.990163879394531,1.0545785427093506,-0.5154593586921692,0.111672468483448,6.1055450439453125,-122.13150024414062,-211.9686584472656
1699734262,-1.728006591796875,3.866309967041016,7.842042388916016,1.023113250732422,-0.0879032239317894,0.0462865382432937,6.4616546630859375,-121.77532958984376,-212.1405792236328
1699734262,-1.972148895263672,4.261637878417969,8.898096313476563,1.1079280376434326,0.6929649114608765,-0.1098271682858467,7.04693603515625,-121.05465698242188,-212.5430908203125
1699734262,-2.013163604736328,5.187462615966797,9.594597930908202,1.5085651874542236,1.6173595190048218,-0.3389434516429901,6.9606475830078125,-119.99261474609376,-212.78561401367188
1699734262,-1.9038908386230469,6.117778015136719,9.264683990478517,2.1199629306793213,2.258522748947144,-0.4488539695739746,6.5518646240234375,-119.30850219726562,-213.2001037597656
1699734262,-1.6239729309082032,6.40233627319336,7.287295989990235,2.633357524871826,2.280967712402344,-0.2985768318176269,5.3421783447265625,-118.6577606201172,-214.02713012695312
1699734263,-0.7455995178222656,6.324049072265625,4.130809936523438,2.9654078483581543,1.6362639665603638,0.0601935647428035,3.973922729492188,-117.87033081054688,-215.1053924560547
1699734263,0.6821315002441407,6.241121520996094,1.1900253295898438,3.072373867034912,0.6271150708198547,0.4785766899585724,2.85589599609375,-116.08522033691406,-216.74957275390625
1699734263,2.086960144042969,6.349795532226563,0.8322692871093751,2.6499834060668945,-0.5161967873573303,0.8752002120018005,2.269989013671875,-114.80517578125,-218.192123413086
1699734263,2.621348876953125,6.883884887695313,4.244124298095703,1.409102201461792,-1.3064333200454712,1.2880817651748655,2.4599609375,-113.00367736816406,-220.0921173095703
1699734263,2.145488433837891,8.652606811523437,9.292077026367188,0.565386176109314,-0.4075872004032135,1.395257830619812,2.7266998291015625,-111.38433837890624,-221.30194091796875
1699734263,1.0997630310058597,13.16347640991211,12.690010986328126,0.9700364470481871,1.2120640277862549,0.735077440738678,4.220428466796875,-110.584716796875,-222.0408935546875
1699734263,-0.4984634399414063,19.016455078125,10.51129165649414,2.0075507164001465,1.7349843978881836,0.0156077221035957,5.079513549804688,-110.25912475585938,-221.42691040039065
1699734263,-1.0602452087402343,22.04001754760742,5.122647399902344,2.768946886062622,1.296428680419922,-0.362451434135437,4.9371490478515625,-109.72586059570312,-222.409896850586
1699734263,-2.0820204162597657,22.123843231201167,2.793640594482422,2.8452165126800537,0.939642608165741,-0.3144950866699219,4.34185791015625,-108.72151184082033,-223.21310424804688
1699734263,-3.1259495544433595,18.27489715576172,2.402953033447266,2.346413373947144,0.8401471376419067,-0.1478507071733474,3.45159912109375,-107.43406677246094,-225.150634765625
1699734263,-3.174149322509766,12.681778106689451,2.1043240356445314,1.6539756059646606,0.628598690032959,-0.0456625595688819,3.1648406982421875,-106.63059997558594,-226.08273315429688
1699734263,-1.942061462402344,8.359216918945313,2.520308990478516,1.1973694562911987,0.2932039201259613,0.0189782176166772,2.8590087890625,-105.57870483398438,-227.8101043701172
1699734263,-0.4647834777832031,5.532195739746094,2.793790283203125,1.0562472343444824,-0.0240097288042306,0.0645116120576858,2.485076904296875,-105.23098754882812,-228.9622802734375
1699734263,0.408350830078125,3.8715490722656254,2.866688690185547,1.126362442970276,-0.2489357888698578,0.106349341571331,2.6163330078125,-104.75228881835938,-229.5136260986328
1699734263,0.7557783508300782,3.006797332763672,3.106040954589844,1.241965413093567,-0.3864433169364929,0.1520822048187255,2.743392944335937,-104.54042053222656,-230.46778869628903
1699734263,1.0163864135742189,3.1623239135742187,3.007695465087891,1.2939010858535769,-0.4473146498203277,0.3009449243545532,3.0642547607421875,-104.21434020996094,-230.36216735839844
1699734263,1.1358380126953125,4.398004302978515,2.3939717102050784,1.270411729812622,-0.4273273646831512,0.5881479382514954,3.184478759765625,-103.69041442871094,-231.35406494140625
1699734263,1.1934681701660157,6.225703582763672,1.7559983825683594,1.17480206489563,-0.3494200408458709,0.9130620956420898,3.834259033203125,-103.40576171875,-232.406478881836
1699734263,1.3072315979003908,8.393196258544922,1.2870236206054688,1.081380844116211,-0.2742741703987121,1.1236212253570557,4.238525390625,-102.7206573486328,-232.6903686523437
1699734263,1.4904505920410156,10.896141357421875,1.0577005004882811,1.0600569248199463,-0.245819091796875,1.1258739233016968,5.2550811767578125,-102.55577087402344,-233.21681213378903
1699734263,1.6515156555175785,13.24400894165039,0.9258247375488282,1.0940622091293335,-0.1862449795007705,0.9351359605789183,6.0113677978515625,-102.2969970703125,-233.9477081298828
1699734263,1.4961387634277346,14.70976089477539,1.1647279357910156,1.170904278755188,-0.0658722221851348,0.6303102970123291,6.688018798828125,-101.53643798828124,-234.8876495361328
1699734263,0.9577084350585938,15.227833557128909,1.79386962890625,1.2899398803710938,-0.0041175135411322,0.3317920565605163,7.511016845703125,-100.95158386230467,-235.5332489013672
1699734263,0.2968327331542968,14.54435485839844,2.364483032226562,1.463037610054016,-0.0572931170463562,0.1154469698667526,7.950119018554687,-100.7981414794922,-236.276611328125
1699734263,-0.0128732299804687,12.654385070800782,2.577939147949219,1.609803318977356,-0.135554626584053,0.0082936165854334,8.28936767578125,-100.40823364257812,-236.7578125
1699734263,-0.0425115966796875,10.565179595947264,2.356250152587891,1.65960693359375,-0.1796616464853286,0.0302457865327596,8.56201171875,-100.23233032226562,-237.8925018310547
1699734263,-0.334105224609375,8.881929931640625,2.007475433349609,1.6042560338974,-0.2313687801361084,0.1400220841169357,8.558090209960938,-99.74665832519533,-238.40708923339844
1699734263,-0.6966513061523438,7.840246124267579,1.5459851074218751,1.4603337049484253,-0.3840240836143493,0.2470116466283798,8.690155029296875,-99.55636596679688,-239.2682342529297
1699734263,-0.8864566040039062,7.607480163574219,0.8818162536621095,1.289538025856018,-0.6240494847297668,0.2869420349597931,8.690841674804688,-99.1470947265625,-241.20120239257807
1699734263,-0.8189469909667969,7.945177917480469,0.3306623840332031,1.1447811126708984,-0.8826730251312256,0.2816561758518219,9.293838500976562,-98.9993896484375,-241.1900329589844
