timestamp,acc-x,acc-y,acc-z,gyr-x,gyr-y,gyr-z,mag-x,mag-y,mag-z
1700075867,0.95684814453125,-0.0235748291015625,-0.3330230712890625,0.0448463000357151,-0.3440785408020019,0.0202155224978923,101.199462890625,-61.38648986816406,280.4083251953125
1700075867,1.008209228515625,0.0169525146484375,-0.263580322265625,0.0935200974345207,-0.3211426138877868,0.0633289068937301,100.83738708496094,-61.59642028808594,281.21405029296875
1700075867,1.03021240234375,0.028656005859375,-0.209442138671875,0.1635399311780929,-0.3012173771858215,0.108770951628685,100.93424987792967,-61.69645690917969,281.9659423828125
1700075867,1.0340576171875,0.0196380615234375,-0.2435760498046875,0.2812857329845428,-0.3266193866729736,0.1579443663358688,100.87123107910156,-61.36773681640625,282.70831298828125
1700075867,1.0943603515625,0.0256805419921875,-0.2630157470703125,0.3963300287723541,-0.3657476305961609,0.2181227505207061,100.96330261230467,-61.52601623535156,282.66015625
1700075867,1.1706695556640625,0.052520751953125,-0.1644744873046875,0.4412937760353088,-0.35561403632164,0.2832727134227752,101.07464599609376,-61.22525024414063,283.0565185546875
1700075867,1.2106170654296875,0.0684967041015625,-0.069427490234375,0.3763003945350647,-0.3312474489212036,0.3413727879524231,100.78919982910156,-61.02986145019531,283.27276611328125
1700075867,1.2487945556640625,0.0384368896484375,-0.067657470703125,0.3479587733745575,-0.307015061378479,0.3904545605182647,100.95950317382812,-60.56556701660156,282.5454406738281
1700075867,1.2810211181640625,-0.0113677978515625,-0.118408203125,0.3675846755504608,-0.328082799911499,0.4445950388908386,101.05949401855467,-60.40904235839844,282.6292724609375
1700075867,1.3197174072265625,-0.0466461181640625,-0.1099395751953125,0.3510357737541199,-0.3223591446876526,0.5092451572418213,101.128662109375,-60.72096252441406,283.1205749511719
1700075867,1.3424530029296875,-0.0861663818359375,-0.0877227783203125,0.3772822916507721,-0.3439347445964813,0.5970674157142639,101.23504638671876,-60.752288818359375,283.6723327636719
1700075867,1.332305908203125,-0.13623046875,-0.041473388671875,0.4001924097537994,-0.3217878937721252,0.7126057147979736,100.82705688476562,-60.22239685058594,283.5824279785156
1700075867,1.3623504638671875,-0.1809539794921875,-0.04864501953125,0.4422328174114227,-0.3722137808799743,0.8027028441429138,100.64573669433594,-59.274993896484375,283.9926452636719
1700075867,1.4145965576171875,-0.2444915771484375,0.020904541015625,0.4711552858352661,-0.4061216711997986,0.9151201844215392,100.73092651367188,-58.940765380859375,283.5541381835937
1700075867,1.49200439453125,-0.2958526611328125,0.091461181640625,0.4037088453769684,-0.4500025808811188,1.0625181198120115,100.36164855957033,-58.558441162109375,283.40985107421875
1700075867,1.5469207763671875,-0.3405303955078125,0.1610565185546875,0.2718674540519714,-0.4640946984291076,1.1572563648223877,100.22615051269533,-58.06098937988281,283.1990661621094
1700075867,1.5697174072265625,-0.4435577392578125,0.1940155029296875,0.1647388786077499,-0.407066285610199,1.2066197395324707,100.20346069335938,-58.020538330078125,283.4519958496094
1700075867,1.514495849609375,-0.56298828125,0.17572021484375,0.061695322394371,-0.2989632785320282,1.2144248485565186,100.39759826660156,-58.1041259765625,283.2728881835937
1700075867,1.428619384765625,-0.677520751953125,0.0947723388671875,-0.1679373383522033,0.080656498670578,1.2698668241500854,100.24998474121094,-58.01902770996094,283.3778991699219
1700075868,1.34039306640625,-0.678253173828125,-0.2212371826171875,-0.7929607629776001,0.7816670536994934,1.6789859533309937,100.31906127929688,-57.967864990234375,283.4183044433594
1700075868,1.2121734619140625,-0.400726318359375,-0.7723541259765625,-1.9376001358032229,1.203540563583374,2.4558005332946777,100.20333862304688,-57.78193664550781,283.2256774902344
1700075868,1.149261474609375,-0.10906982421875,-1.3132171630859375,-2.576664686203003,1.0697526931762695,3.117871046066284,100.31980895996094,-57.77033996582031,282.7347412109375
1700075868,1.454254150390625,-0.0194549560546875,-1.6844024658203125,-2.34048080444336,0.8618239760398865,3.4426519870758057,100.50677490234376,-57.66023254394531,283.5586242675781
1700075868,1.7301483154296875,0.0449066162109375,-1.489715576171875,-1.7790358066558838,0.8644163012504578,3.9598231315612793,100.4665069580078,-57.673828125,283.22772216796875
1700075868,1.58154296875,0.4367218017578125,-0.971282958984375,-1.0522935390472412,0.8095458149909973,4.615406036376953,100.33029174804688,-57.75550842285156,283.44732666015625
1700075868,1.419830322265625,0.8309173583984375,-0.6457672119140625,-0.4931905269622803,0.8002135753631592,4.98264741897583,100.64369201660156,-57.82142639160156,282.9919128417969
1700075868,1.4734039306640625,1.07403564453125,-0.750701904296875,-0.6069474816322327,0.8536632061004639,4.837411403656006,100.48794555664062,-57.97224426269531,283.4534606933594
1700075868,1.6731719970703125,1.4086761474609375,-0.964324951171875,-1.5068455934524536,0.924615442752838,4.298631191253662,100.6189422607422,-58.17413330078125,283.4324951171875
1700075868,1.980804443359375,1.867523193359375,-0.754730224609375,-1.036558747291565,1.222674012184143,3.307952642440796,100.99031066894533,-58.05961608886719,283.6593017578125
1700075868,2.16595458984375,1.549072265625,-0.1984405517578125,0.4969168305397033,1.7155396938323977,2.546321153640747,100.99224853515624,-58.47499084472656,284.1711730957031
1700075868,1.927520751953125,0.8251495361328125,-0.1372833251953125,1.0029702186584473,1.881388783454895,2.294522285461426,100.4657745361328,-58.40794372558594,283.39599609375
1700075868,1.592803955078125,0.6992950439453125,-0.4777374267578125,0.7646231055259705,1.664921522140503,2.1964476108551025,100.63531494140624,-58.76139831542969,284.122802734375
1700075868,1.478485107421875,0.536529541015625,-0.6092071533203125,0.3623760640621185,1.338943600654602,1.9945480823516848,100.6069793701172,-58.938568115234375,283.78515625
1700075868,1.4425811767578125,0.2537841796875,-0.59637451171875,-0.0237668491899967,1.0521643161773682,1.778869867324829,100.60955810546876,-59.38410949707031,284.25506591796875
1700075868,1.3125152587890625,0.071319580078125,-0.565032958984375,-0.3796605169773102,0.7895185947418213,1.6211729049682615,100.33433532714844,-59.83158874511719,284.41064453125
1700075868,1.1131134033203125,-0.039154052734375,-0.5240325927734375,-0.5626175403594971,0.5560911893844604,1.3560211658477783,100.62014770507812,-59.76924133300781,284.1674194335937
1700075868,0.93145751953125,-0.23358154296875,-0.379547119140625,-0.5476460456848145,0.4633841812610626,1.0572887659072876,100.42481994628906,-59.9989013671875,284.2593994140625
1700075868,0.7099609375,-0.464202880859375,-0.199310302734375,-0.4664689004421234,0.5102198719978333,0.8080331683158875,100.36189270019533,-60.37812805175781,284.3822631835937
1700075868,0.4501495361328125,-0.5970611572265625,-0.11712646484375,-0.4749558568000793,0.4318944215774536,0.7474923133850098,100.12716674804688,-60.64094543457031,284.1461486816406
1700075868,0.16729736328125,-0.5989837646484375,-0.1350555419921875,-0.5630393624305725,0.243258997797966,0.568078339099884,100.94808959960938,-60.70445251464844,284.279296875
1700075868,0.049591064453125,-0.65643310546875,-0.1645965576171875,-0.7341368198394775,0.1548846513032913,0.1366294771432876,100.2945556640625,-60.81010437011719,284.70379638671875
1700075868,0.05859375,-0.6425018310546875,-0.1693878173828125,-0.92292457818985,0.0419067032635211,-0.3212326169013977,100.56608581542967,-61.4708251953125,284.91522216796875
1700075868,0.058074951171875,-0.474609375,-0.103668212890625,-1.052079439163208,-0.0906169861555099,-0.7125255465507507,100.5804443359375,-62.15621948242188,285.097412109375
1700075868,0.064910888671875,-0.3601226806640625,-0.0112152099609375,-1.089823603630066,-0.2347214221954345,-1.0478827953338623,100.78997802734376,-62.28512573242188,285.53729248046875
1700075868,0.0683746337890625,-0.283355712890625,0.01739501953125,-1.0862674713134766,-0.3760654926300049,-1.414251446723938,100.30256652832033,-62.32945251464844,285.5780639648437
1700075868,0.0677337646484375,-0.2978973388671875,0.0027923583984375,-1.1600306034088137,-0.4647487699985504,-1.7662267684936523,100.56413269042967,-62.76988220214844,285.4933776855469
1700075868,0.0188751220703125,-0.3787841796875,-0.0308837890625,-1.329526662826538,-0.5491203665733337,-2.0451560020446777,100.47080993652344,-62.95074462890625,285.249755859375
1700075868,-0.06756591796875,-0.400726318359375,-0.100555419921875,-1.5434582233428955,-0.6281659007072449,-2.2809300422668457,100.46792602539062,-63.6925048828125,285.58697509765625
1700075868,-0.1078948974609375,-0.3401031494140625,-0.1490325927734375,-1.8096896409988403,-0.7130427360534668,-2.581857681274414,100.72996520996094,-63.9119873046875,285.7847595214844
1700075868,-0.078155517578125,-0.263763427734375,-0.1524200439453125,-1.9841513633728027,-0.8409032225608826,-2.843738079071045,100.81907653808594,-64.055419921875,285.78546142578125
1700075868,-0.04656982421875,-0.1483001708984375,-0.109710693359375,-2.0240440368652344,-1.0468484163284302,-3.054651021957397,100.47933959960938,-64.29098510742188,285.95880126953125
1700075868,-0.0068817138671875,0.0107269287109375,-0.0990447998046875,-1.6198885440826416,-1.1379812955856323,-3.109291315078736,100.37374877929688,-64.71006774902344,286.03887939453125
1700075868,0.03631591796875,0.1628265380859375,-0.028961181640625,-1.2762008905410769,-1.1065850257873535,-3.110478401184082,100.49237060546876,-64.14480590820312,285.70068359375
1700075868,0.06671142578125,0.2975311279296875,-0.024261474609375,-0.8847873210906982,-1.156415343284607,-3.1094651222229004,100.30145263671876,-64.62632751464844,286.2189025878906
1700075868,0.0894775390625,0.50054931640625,-0.2040863037109375,-0.3687335550785064,-1.1292575597763062,-3.103208303451538,100.3373565673828,-65.11579895019531,286.2862854003906
1700075868,0.117431640625,0.6820831298828125,-0.3618927001953125,-0.054364439100027,-0.9841565489768982,-3.041388750076294,100.58790588378906,-64.90681457519531,286.11968994140625
1700075868,0.1498565673828125,0.8529510498046875,-0.4544219970703125,0.242006242275238,-0.8122491836547852,-2.864607572555542,100.38165283203124,-64.70584106445312,285.890625
1700075868,0.158111572265625,1.0455169677734375,-0.6056060791015625,0.3111357688903808,-0.7612046599388123,-2.573953151702881,100.2416534423828,-64.75123596191406,286.064697265625
1700075868,0.208526611328125,1.25006103515625,-0.72076416015625,0.2223321348428726,-0.7820338010787964,-2.1613640785217285,99.96713256835938,-64.85226440429688,286.4073486328125
1700075868,0.298797607421875,1.441131591796875,-0.668701171875,0.4177756607532501,-0.7574405670166016,-1.7899709939956665,100.184326171875,-64.72714233398438,286.14337158203125
1700075868,0.37384033203125,1.52838134765625,-0.5772552490234375,0.6831652522087097,-0.669317364692688,-1.2888176441192627,100.01962280273438,-64.56253051757812,285.9369506835937
1700075868,0.3372802734375,1.7391204833984375,-0.6400146484375,0.6391951441764832,-0.707878053188324,-0.7639482617378235,99.90667724609376,-64.48968505859375,286.2428894042969
1700075868,0.3222808837890625,2.003280639648437,-0.6781768798828125,0.3725999295711517,-0.7081217169761658,-0.4564535617828369,99.86361694335938,-64.44772338867188,286.4520263671875
1700075868,0.3745269775390625,2.0399322509765625,-0.669219970703125,0.4663189649581909,-0.6162967681884766,-0.2803544402122497,99.8469696044922,-64.65463256835938,286.6486511230469
1700075868,0.3896942138671875,1.832122802734375,-0.5837249755859375,0.6158312559127808,-0.5515094995498657,-0.017698036506772,99.82658386230467,-63.94798278808594,286.88507080078125
1700075868,0.3231201171875,1.574127197265625,-0.560821533203125,0.1965349018573761,0.0813353359699249,0.0973505228757858,99.51214599609376,-63.76470947265625,286.49859619140625
1700075868,0.2345123291015625,1.321197509765625,-1.186614990234375,-0.4352377653121948,0.5963073372840881,0.0249916352331638,99.9009246826172,-63.79798889160156,286.8988647460937
1700075868,0.263275146484375,1.0642242431640625,-1.740386962890625,-0.7505160570144653,0.1523096412420272,-0.2823113203048706,99.76863098144533,-63.81376647949219,286.9286499023437
1700075868,1.2382659912109375,0.5225830078125,-0.970489501953125,-0.2663214206695556,-0.799168050289154,-0.7065571546554565,99.3154296875,-63.09538269042969,287.3327941894531
1700075868,2.2783966064453125,0.1192626953125,0.0074462890625,-0.07987991720438,-0.7918251752853394,-0.8419588804244995,99.62831115722656,-63.07247924804688,287.90643310546875
1700075868,1.9240264892578125,-0.19207763671875,-0.04144287109375,0.3922556638717651,-0.1278892606496811,0.0133376428857445,98.9287567138672,-62.653076171875,288.0096435546875
1700075868,0.917327880859375,-0.188873291015625,0.161956787109375,0.7430840134620667,0.0449208691716194,0.7816271185874939,98.658935546875,-62.23580932617188,288.2914123535156
1700075868,0.8977508544921875,0.2619171142578125,-0.0189971923828125,0.2039621919393539,-0.4373802542686462,0.8807787299156189,98.41946411132812,-61.61332702636719,287.754638671875
1700075868,1.9206390380859373,0.6792144775390625,0.0743560791015625,-0.8266183137893677,-0.3328186869621277,0.6722803711891174,98.3159637451172,-60.70289611816406,288.3624267578125
1700075868,2.2769775390625,0.7913818359375,0.0174407958984375,-0.920455038547516,-0.0216448418796062,0.3403868675231933,97.52189636230467,-59.73384094238281,288.55645751953125
1700075868,1.2392730712890625,0.50457763671875,-0.3541412353515625,-0.569571852684021,-0.0460098348557949,0.0889397263526916,97.82444763183594,-58.88230895996094,288.54412841796875
1700075868,0.489837646484375,0.2067413330078125,-0.62701416015625,-0.1402050405740738,-0.109093464910984,0.0581993907690048,97.16291809082033,-57.143646240234375,288.0072631835937
1700075868,0.470550537109375,0.13201904296875,-0.5568389892578125,0.037554033100605,-0.0376128889620304,0.0982554629445076,96.55792236328124,-54.9534912109375,287.09918212890625
1700075868,0.6631622314453125,0.2105865478515625,-0.309814453125,-0.0477044060826301,0.0660123080015182,-0.0028306739404797,95.9013671875,-53.58439636230469,286.59527587890625
1700075868,0.8759765625,0.3739166259765625,-0.1949462890625,-0.1735547482967376,0.1110042855143547,-0.1871573776006698,95.22935485839844,-51.304534912109375,286.30596923828125
1700075868,1.1074066162109375,0.4175567626953125,-0.3043365478515625,-0.0858693644404411,0.0473872236907482,-0.3233764767646789,94.00379943847656,-49.92413330078125,286.19317626953125
1700075868,1.17376708984375,0.32470703125,-0.414093017578125,0.0658876672387123,-0.0356655865907669,-0.3380395472049713,93.1208038330078,-48.22369384765625,285.48260498046875
1700075868,1.0504150390625,0.2132720947265625,-0.4710693359375,0.117108516395092,-0.1340789794921875,-0.3040387034416199,91.78962707519533,-46.53428649902344,284.97674560546875
1700075868,0.94146728515625,0.1581268310546875,-0.4763946533203125,0.1254788339138031,-0.197756752371788,-0.2879596054553985,90.49966430664062,-45.49151611328125,284.58740234375
1700075868,0.94659423828125,0.196075439453125,-0.42523193359375,0.1278924494981765,-0.2469557225704193,-0.3137502074241638,90.20559692382812,-44.73805236816406,283.46563720703125
1700075868,0.995697021484375,0.2753143310546875,-0.3972015380859375,0.145957201719284,-0.2951426804065704,-0.3919339478015899,89.36325073242188,-44.136627197265625,283.2205505371094
1700075868,1.0188446044921875,0.294219970703125,-0.401123046875,0.1705144792795181,-0.3548023104667663,-0.4612997174263,88.12577819824219,-43.59429931640625,282.7469787597656
1700075868,1.0070037841796875,0.2803802490234375,-0.3854522705078125,0.1452621221542358,-0.3982003629207611,-0.4985397458076477,87.76972961425781,-43.33465576171875,281.7767028808594
1700075868,0.9803009033203124,0.239776611328125,-0.3687744140625,0.0775608345866203,-0.3967700004577636,-0.4986228346824646,86.85111999511719,-42.64210510253906,281.260009765625
1700075868,0.9255523681640624,0.19476318359375,-0.3611297607421875,0.0106497146189212,-0.3971529603004455,-0.4808688759803772,86.26783752441406,-42.00782775878906,280.85009765625
1700075868,0.9023590087890624,0.1605377197265625,-0.354156494140625,-0.0302646942436695,-0.4077741801738739,-0.4637820422649383,85.058837890625,-41.37515258789063,279.3985290527344
1700075868,0.9125823974609376,0.1527557373046875,-0.3695220947265625,-0.0233892127871513,-0.4348489344120025,-0.4402972161769867,84.31051635742188,-40.83570861816406,278.50701904296875
1700075868,0.938690185546875,0.173919677734375,-0.368377685546875,-0.0064608287066221,-0.465493381023407,-0.4377307295799255,84.26707458496094,-40.22628784179688,277.1727905273437
1700075868,0.9811859130859376,0.2032012939453125,-0.3458404541015625,-0.0134542901068925,-0.4962547719478607,-0.4558689892292022,83.72677612304688,-39.93907165527344,276.7648620605469
1700075868,1.008087158203125,0.223358154296875,-0.3347625732421875,-0.0162024050951004,-0.5071588158607483,-0.5021020174026489,82.71937561035156,-39.60502624511719,275.3861694335937
1700075868,1.029388427734375,0.2069854736328125,-0.3404083251953125,0.0660557150840759,-0.521369457244873,-0.5537364482879639,82.32197570800781,-39.159942626953125,274.2923889160156
1700075868,1.0209808349609375,0.19146728515625,-0.341278076171875,0.2132228016853332,-0.5551385879516602,-0.5720850825309753,82.45259094238281,-39.070068359375,273.79217529296875
1700075868,1.0175933837890625,0.19384765625,-0.318267822265625,0.2978380918502807,-0.5871793627738953,-0.5676416158676147,82.2828369140625,-38.804595947265625,272.9041748046875
1700075868,1.007049560546875,0.21533203125,-0.3238525390625,0.2229968607425689,-0.6242891550064087,-0.5822820663452148,82.28460693359375,-38.99299621582031,272.27099609375
1700075868,1.004150390625,0.233062744140625,-0.331207275390625,0.1231951713562011,-0.6317702531814575,-0.6289475560188293,82.42216491699219,-39.232330322265625,271.3406982421875
1700075868,1.0397796630859375,0.21197509765625,-0.3076629638671875,0.1238598898053169,-0.5848546624183655,-0.6566702723503113,82.76036071777344,-39.47468566894531,271.43115234375
1700075868,1.080169677734375,0.16943359375,-0.27252197265625,0.2341869324445724,-0.562468409538269,-0.6142165660858154,82.98158264160156,-39.64544677734375,270.8819274902344
1700075868,1.084930419921875,0.122589111328125,-0.2354736328125,0.4376436471939087,-0.536919355392456,-0.5238762497901917,83.60345458984375,-40.132843017578125,269.9008178710937
1700075868,1.0544586181640625,0.07958984375,-0.227783203125,0.5917253494262695,-0.5181158781051636,-0.4321948289871216,84.53717041015625,-40.69410705566406,269.4900817871094
1700075868,1.0033111572265625,0.0601043701171875,-0.2381439208984375,0.6073024272918701,-0.5086110234260559,-0.39301198720932,85.00314331054688,-41.48124694824219,270.2918701171875
1700075868,0.9456634521484376,0.030029296875,-0.2335662841796875,0.516296923160553,-0.4498401284217834,-0.3449326157569885,85.67117309570312,-42.03990173339844,269.3280639648437
1700075868,0.8974609375,-0.0047607421875,-0.2394561767578125,0.5208091139793396,-0.3783116042613983,-0.2550352215766907,86.93360900878906,-43.0203857421875,269.3045654296875
1700075868,0.8845672607421875,-0.0379791259765625,-0.218475341796875,0.5807957649230957,-0.3359825313091278,-0.1729075908660888,87.83245849609375,-43.60810852050781,269.4140930175781
1700075868,0.906585693359375,-0.0721588134765625,-0.212615966796875,0.595721423625946,-0.2985517978668213,-0.0833050087094307,88.5791015625,-44.20774841308594,270.36492919921875
1700075868,0.903350830078125,-0.06329345703125,-0.2236328125,0.4792941510677337,-0.2771839201450348,0.0219617579132318,89.47494506835938,-44.86894226074219,270.749267578125
1700075868,0.8621368408203125,-0.0352020263671875,-0.269561767578125,0.2654801309108734,-0.2811605632305145,0.1125286743044853,90.13572692871094,-45.79556274414063,271.03729248046875
1700075868,0.824066162109375,-0.0345001220703125,-0.2989501953125,0.0413564927875995,-0.2910853624343872,0.1954315453767776,90.69772338867188,-46.264404296875,271.8482666015625
1700075868,0.8121795654296875,-0.0504913330078125,-0.298583984375,-0.1359487771987915,-0.2770545184612274,0.2743473947048187,91.34805297851562,-46.681640625,272.21697998046875
1700075868,0.79534912109375,-0.0600433349609375,-0.317169189453125,-0.2432118505239486,-0.2690003216266632,0.3618620634078979,91.75279235839844,-46.99211120605469,272.7733764648437
1700075868,0.7760467529296875,-0.011138916015625,-0.32354736328125,-0.269840270280838,-0.2713867723941803,0.415052592754364,92.0908203125,-47.581146240234375,272.6417236328125
1700075868,0.8167724609375,0.0726776123046875,-0.2548980712890625,-0.2065475881099701,-0.2402131408452987,0.4312992095947265,92.17491149902344,-47.66424560546875,273.39141845703125
1700075868,0.861358642578125,0.1457977294921875,-0.1759490966796875,-0.0935688316822052,-0.1957151740789413,0.4435095191001892,92.652099609375,-47.95008850097656,273.910400390625
1700075868,0.882965087890625,0.192138671875,-0.134979248046875,-0.0748574659228324,-0.1685133874416351,0.4580602347850799,93.00831604003906,-48.09619140625,274.33795166015625
1700075869,0.9179534912109376,0.16705322265625,-0.1172637939453125,-0.1252519339323043,-0.1320139616727829,0.511822521686554,93.3060302734375,-48.11460876464844,274.85711669921875
1700075869,0.910797119140625,0.134857177734375,-0.1797943115234375,-0.2491693496704101,-0.1449920833110809,0.570612370967865,93.24232482910156,-47.99508666992188,275.43292236328125
1700075869,0.9201812744140624,0.1083984375,-0.2389678955078125,-0.4064726829528808,-0.1588775366544723,0.617313802242279,93.62603759765624,-48.25260925292969,275.0206298828125
1700075869,0.9570159912109376,0.0619964599609375,-0.2487640380859375,-0.4027727544307709,-0.1444013863801956,0.6481529474258423,94.06993103027344,-48.115020751953125,275.0249328613281
1700075869,0.9625396728515624,0.031280517578125,-0.2564697265625,-0.2915032207965851,-0.1638089120388031,0.6742231845855713,94.09715270996094,-48.28240966796875,275.06427001953125
1700075869,0.9856719970703124,0.088714599609375,-0.266632080078125,-0.212178036570549,-0.1982686072587967,0.7084077596664429,94.65586853027344,-48.62515258789063,275.4320068359375
1700075869,1.040374755859375,0.1944122314453125,-0.124603271484375,-0.2303951233625412,-0.1707869172096252,0.7807338833808899,94.4328155517578,-48.197113037109375,275.40185546875
1700075869,1.0642852783203125,0.1999359130859375,-0.04833984375,-0.2940201759338379,-0.1958070546388626,0.8442769050598145,94.39865112304688,-48.13687133789063,275.3253173828125
1700075869,1.123443603515625,0.1002655029296875,-0.1553497314453125,-0.2976415455341339,-0.2717191278934479,0.9368616938591005,94.57229614257812,-48.25732421875,275.9428100585937
1700075869,1.2592620849609375,0.0165863037109375,-0.2411956787109375,-0.2549164593219757,-0.3681553900241852,0.9873035550117492,94.52642822265624,-47.84907531738281,275.7506103515625
1700075869,1.3673858642578125,0.0238494873046875,-0.254547119140625,-0.2396024763584137,-0.4242047965526581,0.9919167160987854,94.11085510253906,-47.56854248046875,275.2502746582031
1700075869,1.440216064453125,0.1274566650390625,-0.158294677734375,-0.1988324075937271,-0.4749047458171844,0.993973195552826,94.3376007080078,-47.79087829589844,275.56280517578125
1700075869,1.4526824951171875,0.25152587890625,-0.001373291015625,-0.2321357727050781,-0.5197177529335022,1.052250623703003,94.3358917236328,-47.55940246582031,275.74169921875
1700075869,1.4332427978515625,0.2845001220703125,0.086578369140625,-0.2930481135845184,-0.5318663120269775,1.131391525268555,93.98252868652344,-47.97224426269531,276.031982421875
1700075869,1.4496917724609375,0.1389923095703125,0.06378173828125,-0.3196592330932617,-0.5655235648155212,1.1810879707336426,93.9490966796875,-47.68328857421875,275.7380676269531
1700075869,1.536376953125,-0.04486083984375,-0.037933349609375,-0.3655689358711242,-0.6251363158226013,1.1987297534942627,94.12965393066406,-47.20989990234375,275.71881103515625
1700075869,1.6566925048828125,-0.1614227294921875,-0.1020965576171875,-0.3779608905315399,-0.7138164043426514,1.2180843353271484,94.21563720703124,-47.40168762207031,275.45831298828125
1700075869,1.7471771240234375,-0.20941162109375,-0.0982208251953125,-0.281834065914154,-0.846926212310791,1.24277663230896,94.30348205566406,-47.62767028808594,275.1918640136719
1700075869,1.7922210693359375,-0.2190093994140625,-0.0205230712890625,-0.0121386880055069,-0.9691477417945862,1.1808371543884275,94.4954071044922,-47.55113220214844,274.7901916503906
1700075869,1.8414764404296875,-0.2930755615234375,0.1068267822265625,0.2514793574810028,-1.032228708267212,1.0830100774765017,94.48260498046876,-48.08058166503906,275.2393798828125
1700075869,1.90252685546875,-0.3809661865234375,0.197113037109375,0.4239696562290191,-0.9569283723831176,0.952712059020996,94.4052734375,-48.21907043457031,275.5181884765625
1700075869,1.922637939453125,-0.5331878662109375,0.24530029296875,0.4492765963077545,-0.8553175926208496,0.8245359659194946,94.337646484375,-48.037841796875,276.15838623046875
1700075869,1.7892913818359375,-0.6902008056640625,0.296051025390625,0.1106839030981063,-0.589816689491272,0.7372809648513794,94.63714599609376,-48.23927307128906,275.9018859863281
1700075869,1.5446014404296875,-0.70758056640625,-0.0777740478515625,-0.6491314172744751,-0.0926330015063285,0.9828310608863832,94.81686401367188,-48.20878601074219,275.84893798828125
1700075869,1.2288970947265625,-0.38800048828125,-0.931243896484375,-1.8169491291046145,0.1428125500679016,1.7306352853775024,94.70060729980467,-48.3209228515625,276.030029296875
1700075869,0.8635101318359375,0.0706939697265625,-1.5262451171875,-2.9783051013946533,0.2860368192195892,2.7590749263763428,94.71165466308594,-48.81871032714844,275.76055908203125
1700075869,0.744873046875,0.2332000732421875,-1.76776123046875,-3.0955007076263428,0.4593164622783661,3.237563371658325,95.15231323242188,-49.08013916015625,275.8033447265625
1700075869,1.0104217529296875,0.0994415283203125,-1.430816650390625,-2.713476657867432,0.5407069325447083,3.695651054382324,94.98251342773438,-49.05563354492188,276.51275634765625
1700075869,1.180572509765625,0.3857879638671875,-0.855926513671875,-2.235514879226685,0.3975273966789245,4.526646137237549,95.18522644042967,-49.60527038574219,276.1890563964844
1700075869,1.23681640625,1.040924072265625,-0.426849365234375,-1.84570586681366,0.3766087889671325,5.054400444030762,95.30003356933594,-49.62994384765625,276.21240234375
1700075869,1.3628692626953125,1.4978179931640625,-0.4022674560546875,-1.6122097969055176,0.8068680167198181,4.803703308105469,95.42878723144533,-49.92024230957031,276.4901733398437
1700075869,1.4877166748046875,1.6434173583984375,-0.6982421875,-1.33162260055542,0.8780612349510193,4.387935161590576,95.482666015625,-50.16346740722656,276.68133544921875
1700075869,1.6464385986328125,1.6389617919921875,-0.663970947265625,-1.0079470872879028,0.776691198348999,3.997169017791748,95.6746063232422,-50.197509765625,276.5375366210937
1700075869,1.7671661376953125,1.1149139404296875,-0.55413818359375,-0.6575413942337036,0.8258123993873596,3.650846242904663,95.57626342773438,-50.59709167480469,276.5248413085937
1700075869,1.6749267578125,0.4548492431640625,-0.5265350341796875,-0.4785157144069671,0.8525497913360596,3.4961066246032715,95.90841674804688,-51.0194091796875,276.56884765625
1700075869,1.497528076171875,0.231842041015625,-0.5081634521484375,-0.3930804431438446,0.7321258783340454,3.597466230392456,95.78424072265624,-51.042877197265625,277.1346435546875
1700075869,1.271209716796875,0.1747589111328125,-0.440032958984375,-0.2156931459903717,0.5086619257926941,3.7199747562408447,95.92247009277344,-51.47505187988281,277.6358337402344
1700075869,1.1346435546875,0.087738037109375,-0.280548095703125,0.0269155036658048,0.349528968334198,3.722410678863525,96.20762634277344,-51.4774169921875,277.81365966796875
1700075869,1.021820068359375,0.03570556640625,-0.139434814453125,0.2405774593353271,0.2776859402656555,3.5533816814422607,95.9989776611328,-52.066680908203125,277.0902099609375
1700075869,0.9188079833984376,0.0691680908203125,-0.0034332275390625,0.3132268786430359,0.2412240654230117,3.1657512187957764,95.88392639160156,-51.82679748535156,277.57696533203125
1700075869,0.875244140625,0.0630645751953125,0.0522308349609375,0.3193934261798858,0.0703559219837188,2.67840313911438,95.80792236328124,-52.251739501953125,277.5365905761719
1700075869,0.8541259765625,-0.0599212646484375,0.011199951171875,0.2732885181903839,-0.29187873005867,2.2057199478149414,96.04039001464844,-52.591094970703125,278.3297119140625
1700075869,0.831756591796875,-0.2393798828125,-0.0636138916015625,0.0023907197173684,-0.7394330501556396,1.7926067113876345,96.20535278320312,-52.428619384765625,278.47760009765625
1700075869,0.7565155029296875,-0.373382568359375,-0.1401214599609375,-0.5402994751930237,-1.110304832458496,1.4852454662322998,96.18994140625,-52.88856506347656,278.39825439453125
1700075869,0.6116790771484375,-0.4837646484375,-0.1597442626953125,-1.3033534288406372,-1.376612424850464,1.228127121925354,96.0717315673828,-53.06568908691406,278.2575378417969
1700075869,0.4391021728515625,-0.5908203125,-0.1802520751953125,-2.044984102249145,-1.5656739473342896,0.9664201140403748,96.01358032226562,-53.209716796875,278.4421691894531
1700075869,0.292877197265625,-0.6891326904296875,-0.222137451171875,-2.5072619915008545,-1.708346962928772,0.6526177525520325,95.92384338378906,-52.96965026855469,278.7372436523437
1700075869,0.215911865234375,-0.7952117919921875,-0.2451934814453125,-2.601688861846924,-1.779165506362915,0.2983579337596893,95.9486083984375,-53.14118957519531,278.5588073730469
1700075869,0.2258148193359375,-0.89923095703125,-0.238006591796875,-2.4893922805786133,-1.896927833557129,-0.036691702902317,96.00276184082033,-53.48222351074219,278.4197998046875
1700075869,0.2881927490234375,-0.938079833984375,-0.2180023193359375,-2.409996747970581,-2.085486650466919,-0.3130322098731994,95.96359252929688,-53.13288879394531,279.20184326171875
1700075869,0.33465576171875,-0.828887939453125,-0.256011962890625,-2.520007371902466,-2.269432783126831,-0.6785217523574829,96.021728515625,-52.813385009765625,279.1988525390625
1700075869,0.362060546875,-0.603790283203125,-0.3636474609375,-2.6222195625305176,-2.470555067062378,-1.021776556968689,95.97256469726562,-53.32183837890625,278.633056640625
1700075869,0.3557586669921875,-0.405517578125,-0.4004669189453125,-2.7162129878997803,-2.676248550415039,-1.3026349544525146,96.00213623046876,-52.83613586425781,278.4573974609375
1700075869,0.3402099609375,-0.27239990234375,-0.4078216552734375,-2.822140693664551,-2.8565099239349365,-1.550820231437683,95.9643096923828,-52.905181884765625,278.4755249023437
1700075869,0.335205078125,-0.2044525146484375,-0.41925048828125,-2.8963093757629395,-2.999837636947632,-1.7801399230957031,96.2271728515625,-52.67665100097656,279.08721923828125
1700075869,0.3462677001953125,-0.184295654296875,-0.433013916015625,-2.9616129398345947,-3.1225571632385254,-2.011453628540039,95.57847595214844,-52.478271484375,279.19561767578125
1700075869,0.3805084228515625,-0.1919708251953125,-0.4704437255859375,-3.011042833328247,-3.247983694076538,-2.2501027584075928,95.60923767089844,-52.601806640625,278.6904296875
1700075869,0.4420623779296875,-0.1975250244140625,-0.5146026611328125,-3.050423383712769,-3.377225399017334,-2.485933780670166,95.38002014160156,-52.4556884765625,278.9954833984375
1700075869,0.5167999267578125,-0.1868896484375,-0.55072021484375,-3.0189852714538574,-3.470759630203247,-2.6874611377716064,95.42295837402344,-52.102630615234375,279.2997436523437
1700075869,0.5885772705078125,-0.16302490234375,-0.57147216796875,-2.9377248287200928,-3.50846791267395,-2.8742153644561768,94.94186401367188,-52.31129455566406,278.9927978515625
1700075869,0.664703369140625,-0.140869140625,-0.598388671875,-2.8754663467407227,-3.507063627243042,-3.053378105163574,94.5815887451172,-52.169036865234375,279.88360595703125
1700075869,0.737091064453125,-0.123931884765625,-0.6450653076171875,-2.774608850479126,-3.490498304367065,-3.245633363723755,94.91828918457033,-51.69645690917969,279.699462890625
1700075869,0.8139801025390625,-0.124542236328125,-0.690521240234375,-2.562106370925904,-3.47298264503479,-3.4523112773895264,94.26701354980467,-51.632598876953125,279.8739624023437
1700075869,0.9052581787109376,-0.1342010498046875,-0.70086669921875,-2.2653844356536865,-3.4151053428649902,-3.6280269622802734,94.14421081542967,-51.50387573242188,279.56640625
1700075869,0.9696502685546876,-0.091644287109375,-0.7058258056640625,-1.98014497756958,-3.3156838417053223,-3.76705813407898,93.9175262451172,-51.382171630859375,279.543701171875
1700075869,1.0040740966796875,-0.0035247802734375,-0.737762451171875,-1.7212159633636477,-3.181138515472412,-3.980687141418457,93.31745910644533,-51.150970458984375,279.4815673828125
1700075869,1.0804595947265625,0.064361572265625,-0.8115692138671875,-1.6285693645477295,-3.0457334518432617,-4.276821136474609,92.95907592773438,-50.65565490722656,279.75164794921875
1700075869,1.21112060546875,0.1379241943359375,-0.9201812744140624,-1.7029240131378174,-2.940688133239746,-4.559802532196045,92.67453002929688,-50.28330993652344,279.31768798828125
1700075869,1.376068115234375,0.2120513916015625,-1.0203704833984375,-2.042069673538208,-2.869667291641236,-4.835920333862305,92.2703094482422,-49.84780883789063,278.98065185546875
1700075869,1.56451416015625,0.232879638671875,-1.0941162109375,-2.411034107208252,-2.8912112712860107,-4.975405693054199,91.67829895019533,-49.37602233886719,278.8228759765625
1700075869,1.6387176513671875,0.2494049072265625,-1.04608154296875,-2.509601354598999,-2.8723413944244385,-4.940645217895508,91.03108215332033,-48.79637145996094,278.12750244140625
1700075869,1.5754852294921875,0.2549896240234375,-0.98040771484375,-2.2532432079315186,-2.813450813293457,-4.8322834968566895,90.67100524902344,-48.379150390625,277.8233642578125
1700075869,1.510009765625,0.2508544921875,-0.8825531005859375,-2.037224531173706,-2.656290531158448,-4.660270690917969,90.14488220214844,-47.65284729003906,277.19390869140625
1700075869,1.488433837890625,0.3104095458984375,-0.886383056640625,-1.7120990753173828,-2.304565906524658,-4.533760070800781,89.34835815429688,-46.62739562988281,276.2209167480469
1700075869,1.5799102783203125,0.415008544921875,-0.9316558837890624,-1.2723997831344604,-2.0422465801239014,-4.451547622680664,88.5732421875,-45.55718994140625,275.6962280273437
1700075869,1.6915283203125,0.5576629638671875,-0.931793212890625,-0.9718897342681884,-1.9234068393707275,-4.375399589538574,87.59236145019531,-44.51963806152344,275.0810852050781
1700075869,1.76861572265625,0.7045135498046875,-0.8882598876953125,-0.8339737057685852,-1.801692605018616,-4.277894973754883,86.58485412597656,-43.32081604003906,275.09942626953125
1700075869,1.774078369140625,0.890655517578125,-0.757598876953125,-0.6762263774871826,-1.5839024782180786,-4.121552467346191,85.43592834472656,-42.92633056640625,274.68853759765625
1700075869,1.662750244140625,1.123260498046875,-0.5603179931640625,-0.4432682394981384,-1.3495904207229614,-3.887351512908936,84.52745056152344,-41.83514404296875,274.6600952148437
1700075869,1.445587158203125,1.30322265625,-0.5117950439453125,-0.3338216543197632,-1.058158278465271,-3.592989206314087,83.51535034179688,-41.15133666992188,273.90484619140625
1700075869,1.2173309326171875,1.282470703125,-0.693511962890625,-0.3727575838565826,-0.7519107460975647,-3.1082980632781982,82.43205261230469,-40.79582214355469,273.013916015625
1700075869,1.031768798828125,1.0671539306640625,-0.8128204345703125,-0.6997013688087463,-0.4610983729362488,-2.43142032623291,81.71559143066406,-40.61079406738281,273.3543701171875
1700075869,0.8713531494140625,0.898101806640625,-0.833526611328125,-1.1443235874176023,-0.1733099967241287,-1.6430305242538452,80.97860717773438,-39.7860107421875,272.8178100585937
1700075869,0.7332763671875,0.8754425048828125,-0.8368377685546875,-1.52498459815979,0.1182299703359603,-0.8246086835861206,79.63201904296875,-39.81758117675781,272.1729736328125
1700075869,0.6385955810546875,1.0275115966796875,-0.8590087890625,-1.6890596151351929,0.4109981954097748,-0.0787613913416862,78.93104553222656,-39.573516845703125,271.27960205078125
1700075869,0.5774078369140625,1.266143798828125,-0.8371429443359375,-1.4690537452697754,0.7358114123344421,0.6100385785102844,78.18263244628906,-39.384521484375,271.01092529296875
1700075869,0.54107666015625,1.44207763671875,-0.7413482666015625,-1.1734691858291626,1.0093066692352295,1.2119630575180054,77.18673706054688,-39.14002990722656,269.90362548828125
1700075869,0.6338958740234375,1.4752044677734375,-0.6504669189453125,-1.005245566368103,1.1414917707443235,1.6752718687057495,76.70510864257812,-39.19602966308594,268.5355834960937
1700075869,0.9140167236328124,1.3053131103515625,-0.4792327880859375,-1.04334557056427,1.038874626159668,2.083388090133667,75.84712219238281,-39.1787109375,267.308837890625
1700075869,0.9390716552734376,1.115203857421875,-0.333984375,-1.011450171470642,0.1463018208742141,1.3980966806411743,75.05760192871094,-39.10386657714844,266.16162109375
1700075869,1.6938934326171875,-0.254425048828125,0.8688201904296875,-0.3278777301311493,-0.5775514841079712,-0.4723486304283142,74.61062622070312,-39.32560729980469,265.2353210449219
1700075869,2.439056396484375,-2.082611083984375,2.106796264648437,-0.3098872900009155,1.2255598306655884,-1.1236536502838137,74.43206787109375,-39.727783203125,263.9356994628906
1700075869,1.785400390625,-1.90911865234375,0.847686767578125,-1.3590177297592163,2.0104668140411377,1.0988469123840332,73.65716552734375,-39.783203125,262.7732849121094
1700075869,1.0170135498046875,0.0355377197265625,-0.38018798828125,-1.5362085103988647,1.7497506141662598,3.696784734725952,74.16133117675781,-40.50944519042969,261.781494140625
1700075869,1.26025390625,0.6090087890625,-0.320831298828125,-0.2552149891853332,1.2003511190414429,3.4690423011779785,74.19241333007812,-40.93356323242188,260.85089111328125
1700075869,1.5834503173828125,-0.327239990234375,0.00146484375,0.137549877166748,1.0701135396957395,2.2883169651031494,74.37953186035156,-41.76187133789063,259.8382263183594
1700075869,1.2234649658203125,-0.146453857421875,-0.54119873046875,-0.2723766565322876,1.2176337242126465,1.8331917524337769,75.11122131347656,-42.51754760742188,259.203369140625
1700075869,0.807952880859375,0.4351654052734375,-0.568359375,-0.4420304000377655,1.315792202949524,1.986526370048523,75.53131103515625,-43.15785217285156,258.925537109375
1700075869,0.864959716796875,0.75494384765625,-0.2229766845703125,-0.4775513708591461,1.1958346366882324,1.7636810541152954,76.39176940917969,-43.845489501953125,258.5902099609375
1700075869,1.2535400390625,0.6491546630859375,-0.1014556884765625,-0.3045218288898468,1.2788403034210205,1.1630802154541016,76.92562866210938,-44.11265563964844,257.9418334960937
1700075870,1.330108642578125,0.40533447265625,-0.3158721923828125,0.0215071570128202,1.1351414918899536,0.9191996455192566,78.2227783203125,-44.93733215332031,257.41619873046875
1700075870,1.0494537353515625,0.4182586669921875,-0.319000244140625,0.2682615518569946,0.8331467509269714,0.8639411926269531,79.63272094726562,-46.2802734375,257.09930419921875
1700075870,1.01629638671875,0.2722625732421875,-0.22003173828125,0.3407344222068786,0.6201918721199036,0.8414475917816162,80.67561340332031,-46.78257751464844,256.53839111328125
1700075870,1.0964508056640625,0.05499267578125,-0.1472625732421875,0.3357836008071899,0.5727692246437073,0.8153864145278931,81.80810546875,-47.5303955078125,257.1168518066406
1700075870,1.1030120849609375,-0.08929443359375,-0.1236724853515625,0.2437218427658081,0.5619940757751465,0.7770243883132935,82.96403503417969,-48.57801818847656,257.35595703125
1700075870,1.0824127197265625,-0.1376190185546875,-0.1084136962890625,-0.1537927538156509,0.5351212024688721,0.8096749782562256,83.81105041503906,-49.42066955566406,257.89971923828125
1700075870,1.0681915283203125,-0.0565338134765625,-0.110198974609375,-0.5843297839164734,0.5527449250221252,0.7942627668380737,85.31640625,-50.057525634765625,258.3730773925781
1700075870,1.0756072998046875,-0.027984619140625,-0.0989990234375,-0.6658214330673218,0.549850344657898,0.7359728217124939,86.35923767089844,-50.78775024414063,258.8510131835937
1700075870,1.0287322998046875,-0.0230865478515625,-0.1148223876953125,-0.5813859105110168,0.4456315338611603,0.6984795331954956,87.38764953613281,-51.04371643066406,259.458984375
1700075870,0.99151611328125,0.05706787109375,-0.146392822265625,-0.4604251384735107,0.3473137617111206,0.612319827079773,88.21269226074219,-51.63743591308594,260.20782470703125
1700075870,1.0242156982421875,0.1057586669921875,-0.138092041015625,-0.2805874645709991,0.3072289228439331,0.5249974727630615,88.95167541503906,-52.075714111328125,260.6557922363281
1700075870,1.053070068359375,0.1396636962890625,-0.0937957763671875,-0.0419250801205635,0.3058699071407318,0.4328393042087555,89.30375671386719,-52.47999572753906,260.80322265625
1700075870,1.0714263916015625,0.122283935546875,-0.0615386962890625,0.1367836743593216,0.3101077973842621,0.3614064157009125,89.61215209960938,-52.7491455078125,261.8526306152344
1700075870,1.067596435546875,0.04718017578125,-0.07830810546875,0.2426147758960724,0.2916789948940277,0.359310507774353,89.88201904296875,-52.52796936035156,261.820068359375
1700075870,1.0443115234375,-0.0326995849609375,-0.1131439208984375,0.2838785946369171,0.237563282251358,0.3993093073368072,90.55316162109376,-51.83642578125,261.6180419921875
1700075870,1.01947021484375,-0.0680694580078125,-0.1476593017578125,0.1869166195392608,0.1722513884305954,0.4506747722625732,90.4851531982422,-52.095794677734375,262.546630859375
1700075870,1.0102081298828125,-0.04266357421875,-0.1485443115234375,0.0145057057961821,0.1561230272054672,0.459583044052124,90.9583740234375,-52.32513427734375,263.19293212890625
1700075870,1.0092315673828125,-0.004669189453125,-0.1299896240234375,-0.0774596408009529,0.1661450266838073,0.4348705112934112,91.04067993164062,-52.49462890625,263.3916015625
1700075870,0.9998016357421876,0.0093536376953125,-0.0988922119140625,-0.0692557692527771,0.180961787700653,0.4051059484481811,91.01760864257812,-52.14033508300781,262.98712158203125
1700075870,0.9877777099609376,-0.0013580322265625,-0.112030029296875,0.0559679269790649,0.1938429772853851,0.3703431785106659,90.92874145507812,-52.03376770019531,262.2008361816406
1700075870,0.9800567626953124,-0.0342864990234375,-0.13275146484375,0.2170140743255615,0.175467163324356,0.3007891178131103,91.01480102539062,-52.03279113769531,262.1790771484375
1700075870,1.0117034912109375,-0.0838775634765625,-0.1269683837890625,0.1809008121490478,0.186285987496376,0.3010969758033752,91.43821716308594,-51.86659240722656,262.8961486816406
1700075870,0.9903717041015624,-0.090057373046875,-0.1816558837890625,0.0708933472633361,0.1454759687185287,0.4050407111644745,91.40325927734376,-51.79188537597656,262.3188781738281
1700075870,0.9127655029296876,-0.0478363037109375,-0.1546173095703125,0.054005179554224,0.1504265218973159,0.4639857709407806,91.18836975097656,-51.66323852539063,262.86444091796875
1700075870,0.93585205078125,-0.051513671875,-0.094512939453125,0.0754233822226524,0.187503844499588,0.4987717270851135,91.3307647705078,-51.71321105957031,262.49566650390625
1700075870,0.9750518798828124,-0.0312347412109375,-0.0882415771484375,0.1423331797122955,0.189390167593956,0.545650839805603,91.4883270263672,-51.82026672363281,262.0182189941406
1700075870,1.029541015625,0.0296478271484375,-0.08966064453125,0.1740399748086929,0.1918759644031524,0.5555478930473328,91.62075805664062,-51.64498901367188,262.5856628417969
1700075870,1.06689453125,0.0624847412109375,-0.0767974853515625,0.202281191945076,0.241057887673378,0.58196622133255,91.61262512207033,-51.71041870117188,262.1964111328125
1700075870,1.0189666748046875,0.0673980712890625,-0.0644378662109375,0.1831024438142776,0.2776758074760437,0.6379067301750183,91.63323974609376,-51.93739318847656,262.2504272460937
1700075870,0.9471588134765624,0.028228759765625,-0.090423583984375,0.1188012212514877,0.2898336946964264,0.7360007762908936,91.4200439453125,-51.88978576660156,262.5897216796875
1700075870,0.8933258056640625,-0.0397796630859375,-0.135498046875,0.0571098923683166,0.2941802144050598,0.84639972448349,91.2504425048828,-51.36882019042969,262.4698486328125
1700075870,0.8716583251953125,-0.129669189453125,-0.1707000732421875,-0.0213974341750144,0.2918614149093628,0.9451143145561218,91.67501831054688,-52.008880615234375,262.4237060546875
1700075870,0.888824462890625,-0.1980743408203125,-0.218536376953125,-0.0803835242986679,0.2795717120170593,1.0400326251983645,91.76856994628906,-51.86442565917969,262.840576171875
1700075870,0.9424591064453124,-0.2048492431640625,-0.25250244140625,-0.0527854487299919,0.2398711889982223,1.1436103582382202,92.05067443847656,-52.52095031738281,262.72882080078125
1700075870,1.0013427734375,-0.1292572021484375,-0.2562255859375,-0.0606236644089221,0.168340802192688,1.201931715011597,91.80911254882812,-52.321807861328125,262.6836853027344
1700075870,1.0522613525390625,0.040008544921875,-0.2229461669921875,-0.0722656771540641,0.1074417680501937,1.188976764678955,91.80123901367188,-52.529571533203125,262.9287414550781
1700075870,1.067169189453125,0.2137603759765625,-0.1520233154296875,-0.0258097592741251,0.1093616411089897,1.1220440864562988,91.85397338867188,-52.81927490234375,262.7152099609375
1700075870,1.0498809814453125,0.315460205078125,-0.0818023681640625,0.1080692112445831,0.166615605354309,1.0566917657852173,91.8238525390625,-52.86857604980469,263.0400085449219
1700075870,1.0164794921875,0.34979248046875,-0.01556396484375,0.2059305310249328,0.2196045219898224,1.048635959625244,92.66114807128906,-53.423095703125,263.035400390625
1700075870,0.99114990234375,0.3180389404296875,0.01556396484375,0.2038332819938659,0.2725646793842315,1.0740163326263428,92.1750030517578,-53.50178527832031,263.0810546875
1700075870,0.956146240234375,0.17364501953125,-0.0218658447265625,0.1401046365499496,0.3014788925647735,1.1656469106674194,92.38723754882812,-53.69007873535156,263.5289611816406
1700075870,0.924407958984375,0.007568359375,-0.0901641845703125,-0.0482234545052051,0.3030272424221039,1.2902696132659912,92.43020629882812,-53.77519226074219,263.3397827148437
1700075870,0.9659271240234376,-0.0863494873046875,-0.1791534423828125,-0.1435023099184036,0.2767538428306579,1.4162999391555786,92.48175048828124,-54.01860046386719,263.70166015625
1700075870,1.0421600341796875,-0.0844268798828125,-0.25885009765625,-0.1066100671887397,0.1546708047389984,1.5389577150344849,92.6171417236328,-53.91239929199219,263.6036376953125
1700075870,1.155242919921875,-0.002960205078125,-0.2347412109375,-0.0476910881698131,0.0665204375982284,1.5865027904510498,92.3140869140625,-54.36328125,263.779296875
1700075870,1.2261505126953125,0.1156005859375,-0.1867523193359375,0.0834914296865463,0.0457547046244144,1.5983235836029053,92.87327575683594,-54.381103515625,263.98565673828125
1700075870,1.1992645263671875,0.2447052001953125,-0.1222686767578125,0.2268525809049606,0.0776431262493133,1.5920674800872805,92.3444366455078,-54.379791259765625,264.10650634765625
1700075870,1.1864166259765625,0.29461669921875,-0.0413970947265625,0.3102462887763977,0.11403389275074,1.643333077430725,92.34870910644533,-54.583740234375,264.17877197265625
1700075870,1.1632080078125,0.257568359375,0.038421630859375,0.2705955505371094,0.1320560425519943,1.7923811674118042,92.84637451171876,-54.80278015136719,264.3253173828125
1700075870,1.1549530029296875,0.171844482421875,0.043365478515625,0.1222010105848312,0.1134442687034607,1.987004995346069,92.77645874023438,-54.802032470703125,264.8511962890625
1700075870,1.2059783935546875,0.1002197265625,0.0023040771484375,-0.0124076670035719,0.0766846612095832,2.160732746124268,92.67515563964844,-54.83338928222656,265.17266845703125
1700075870,1.3099365234375,0.044403076171875,-0.02313232421875,-0.060617808252573,0.0470018647611141,2.3042960166931152,92.8846435546875,-55.055755615234375,265.2064819335937
1700075870,1.41357421875,0.0113525390625,-0.04425048828125,-0.0081063956022262,-0.0142042357474565,2.455317258834839,92.7810516357422,-55.306243896484375,265.03131103515625
1700075870,1.489288330078125,0.0045013427734375,-0.0598297119140625,0.0863221064209938,-0.0733559727668762,2.58833122253418,92.77142333984376,-55.61897277832031,265.17218017578125
1700075870,1.5696563720703125,-0.039703369140625,-0.0230560302734375,0.1877376735210418,-0.1560798734426498,2.703738212585449,93.0775909423828,-55.2542724609375,265.86053466796875
1700075870,1.6837921142578125,-0.1082000732421875,0.0372772216796875,0.2157440036535263,-0.3301829695701599,2.811314344406128,93.24671936035156,-55.81474304199219,265.04083251953125
1700075870,1.8785552978515625,-0.20428466796875,0.086669921875,0.1551019698381424,-0.4997994303703308,2.847057342529297,93.16250610351562,-56.02749633789063,265.3617553710937
1700075870,2.1507110595703125,-0.406158447265625,0.128570556640625,0.099669337272644,-0.6017186045646667,2.801706075668335,92.99665832519533,-56.00357055664063,265.3524780273437
1700075870,2.441986083984375,-0.7024383544921875,0.2042999267578125,0.3217005431652069,-0.5071513652801514,2.610348701477051,93.14402770996094,-56.26847839355469,266.45281982421875
1700075870,2.6295928955078125,-1.0776824951171875,0.240264892578125,0.6386632919311523,-0.3798165619373321,2.509579658508301,92.97299194335938,-55.88627624511719,266.21490478515625
1700075870,2.4720611572265625,-1.2799224853515625,0.1155242919921875,0.2179083675146103,-0.1436200141906738,2.912639856338501,92.82022094726562,-55.93672180175781,265.5080261230469
1700075870,1.9993743896484373,-1.1439666748046875,-0.5282745361328125,-0.9698220491409302,0.3719397485256195,3.778493404388428,93.32470703125,-56.10122680664063,266.27606201171875
1700075870,1.60614013671875,-0.7498016357421875,-1.3216705322265625,-2.268559455871582,0.7181059122085571,4.667561531066895,92.653564453125,-56.28321838378906,265.48211669921875
1700075870,1.3249359130859375,-0.4140167236328125,-1.5770416259765625,-2.579457998275757,0.3330157697200775,4.600884437561035,92.86138916015624,-55.74940490722656,266.5355834960937
1700075870,1.3097686767578125,-0.4800262451171875,-1.519195556640625,-3.006021499633789,-0.1362236142158508,3.850535392761232,92.49235534667967,-55.84483337402344,266.57720947265625
1700075870,1.55975341796875,-0.4444580078125,-1.8778533935546875,-3.548185110092163,-0.2035248875617981,3.5144073963165283,92.83802795410156,-56.03468322753906,267.005859375
1700075870,1.427642822265625,-0.0863189697265625,-1.830047607421875,-3.2253267765045166,-0.4602890312671661,3.572765350341797,92.8364715576172,-55.985107421875,266.4754638671875
1700075870,1.0538330078125,0.2201385498046875,-1.2357940673828125,-3.010096549987793,-0.7018668055534363,3.503729820251465,92.82411193847656,-55.70039367675781,266.8741455078125
1700075870,0.8980865478515625,0.40020751953125,-0.9700927734375,-3.074819803237915,-0.7968553304672241,3.363553762435913,92.42982482910156,-55.695648193359375,266.8623046875
1700075870,0.8046112060546875,0.70965576171875,-0.8863677978515625,-3.430593490600586,-0.7896339297294617,3.015993595123291,92.40997314453124,-55.580108642578125,267.0595092773437
1700075870,0.9215240478515624,1.1211700439453125,-0.5949249267578125,-3.4362707138061523,-0.8527063727378845,2.098512649536133,92.27122497558594,-55.57228088378906,267.12237548828125
1700075870,1.1360626220703125,1.092132568359375,-0.15521240234375,-2.3344175815582275,-0.8328921794891357,1.180530071258545,92.1454620361328,-55.46174621582031,267.0879211425781
1700075870,1.05792236328125,0.497833251953125,-0.1580047607421875,-1.612860918045044,-0.9050925970077516,0.6473166942596436,91.73054504394533,-55.50163269042969,266.96661376953125
1700075870,0.8170166015625,0.2413330078125,-0.491424560546875,-1.5563795566558838,-1.1044262647628784,0.5685398578643799,91.790771484375,-55.3126220703125,267.4301147460937
1700075870,0.5777587890625,0.22406005859375,-0.7441558837890625,-1.8452739715576167,-1.3985995054244995,0.6782456040382385,91.48741149902344,-55.33253479003906,267.3271484375
1700075870,0.4397430419921875,0.1417236328125,-0.81109619140625,-2.372044563293457,-1.6758716106414795,0.6741967797279358,91.79959106445312,-55.247833251953125,267.2264404296875
1700075870,0.4055023193359375,0.025665283203125,-0.881500244140625,-2.809713840484619,-1.839037299156189,0.4412261247634887,90.90745544433594,-55.23426818847656,266.73272705078125
1700075870,0.419677734375,-0.0922698974609375,-0.9323272705078124,-2.930702447891236,-1.909861445426941,0.1117126792669296,90.99241638183594,-55.22764587402344,267.443603515625
1700075870,0.405181884765625,-0.138214111328125,-0.9235992431640624,-2.9199328422546387,-2.0090479850769043,-0.1565014570951461,90.8888702392578,-55.15301513671875,267.4345703125
1700075870,0.3308868408203125,-0.040374755859375,-0.9353179931640624,-2.9875383377075195,-2.1590232849121094,-0.3664056956768036,90.7769775390625,-55.32194519042969,267.16522216796875
1700075870,0.2360687255859375,0.1750946044921875,-0.9707489013671876,-3.0745060443878174,-2.273357629776001,-0.5323853492736816,90.3022918701172,-54.68722534179688,266.3426818847656
1700075870,0.1772003173828125,0.3532867431640625,-0.9807586669921876,-3.181068420410156,-2.2785425186157227,-0.7957019209861755,89.78269958496094,-54.20252990722656,265.59063720703125
1700075870,0.200592041015625,0.381103515625,-1.0206451416015625,-3.2323246002197266,-2.2849416732788086,-1.1203311681747437,90.04995727539062,-53.31822204589844,264.8671875
1700075870,0.242340087890625,0.3111724853515625,-1.00421142578125,-3.2354443073272705,-2.3339359760284424,-1.3435407876968384,89.23716735839844,-52.858154296875,264.44403076171875
1700075870,0.2493438720703125,0.23980712890625,-0.9754638671875,-3.195345163345337,-2.405095100402832,-1.4607731103897097,89.13087463378906,-51.78631591796875,264.03985595703125
1700075870,0.2278900146484375,0.16180419921875,-0.8876495361328125,-3.0836215019226074,-2.468791007995605,-1.527391791343689,88.56874084472656,-50.58140563964844,264.203857421875
1700075870,0.191070556640625,0.0916595458984375,-0.7757415771484375,-2.972456932067871,-2.493208169937134,-1.615039944648743,88.01321411132812,-50.114776611328125,263.4874267578125
1700075870,0.140380859375,0.057952880859375,-0.741058349609375,-2.839593410491944,-2.497710943222046,-1.7630994319915771,87.54096984863281,-48.9405517578125,262.90460205078125
1700075870,0.1150360107421875,0.0646514892578125,-0.750457763671875,-2.748509168624878,-2.514960765838623,-1.9800589084625244,86.80677795410156,-48.657073974609375,262.077880859375
1700075870,0.13629150390625,0.1180419921875,-0.7550201416015625,-2.743782520294189,-2.509059429168701,-2.252190113067627,86.24459838867188,-47.91532897949219,262.1539611816406
1700075870,0.1994171142578125,0.113525390625,-0.748931884765625,-2.750793695449829,-2.491495609283448,-2.468975782394409,85.739501953125,-47.48760986328125,261.7567749023437
1700075870,0.2315216064453125,0.07940673828125,-0.754730224609375,-2.6976919174194336,-2.4845449924468994,-2.6221749782562256,85.99250793457031,-47.30172729492188,261.716064453125
1700075870,0.237823486328125,0.0814361572265625,-0.7953948974609375,-2.663474798202514,-2.4787487983703613,-2.7630176544189453,85.35707092285156,-46.85137939453125,261.57769775390625
1700075870,0.2839202880859375,0.1146392822265625,-0.83709716796875,-2.5588979721069336,-2.427644968032837,-2.841628074645996,84.87739562988281,-47.082122802734375,261.13238525390625
1700075870,0.298583984375,0.2386932373046875,-0.8624114990234375,-2.4614500999450684,-2.326921463012696,-2.911349296569824,84.79057312011719,-46.66685485839844,260.97711181640625
1700075870,0.2994384765625,0.381256103515625,-0.8771514892578125,-2.28456449508667,-2.205897092819214,-2.9401113986968994,84.60411071777344,-46.12461853027344,260.8173217773437
1700075870,0.30303955078125,0.4915008544921875,-0.8820953369140625,-2.088130712509156,-2.0788371562957764,-2.9231646060943604,84.38035583496094,-46.035003662109375,260.5795288085937
1700075870,0.30218505859375,0.5905609130859375,-0.91937255859375,-1.892424464225769,-1.936521053314209,-2.8423304557800293,84.27346801757812,-46.15779113769531,260.6280212402344
1700075870,0.32550048828125,0.69500732421875,-0.9464111328125,-1.6840955018997192,-1.7637146711349487,-2.7068238258361816,83.97908020019531,-45.615997314453125,260.510986328125
1700075871,0.3479461669921875,0.821258544921875,-0.97442626953125,-1.4398870468139648,-1.6009821891784668,-2.513648271560669,83.91139221191406,-45.541046142578125,260.5537109375
1700075871,0.3837127685546875,0.9782257080078124,-1.0009918212890625,-1.2046403884887695,-1.4279792308807373,-2.3067820072174072,83.73213195800781,-45.476318359375,260.666015625
1700075871,0.4642181396484375,1.13372802734375,-1.0584716796875,-1.066891074180603,-1.2055506706237793,-2.1182165145874023,83.57864379882812,-45.292236328125,260.1351928710937
1700075871,0.5430450439453125,1.2722930908203125,-1.1432647705078125,-1.0451983213424685,-0.988739848136902,-1.977524876594544,84.09368896484375,-45.47291564941406,259.30224609375
1700075871,0.6019134521484375,1.3576507568359375,-1.1404571533203125,-0.967655599117279,-0.7791061997413635,-1.696244239807129,84.32028198242188,-45.476959228515625,259.6251220703125
1700075871,0.598480224609375,1.4322357177734375,-1.0322418212890625,-0.6519545912742615,-0.5523704886436462,-1.2890833616256714,84.40744018554688,-45.765167236328125,259.73980712890625
1700075871,0.567718505859375,1.4465484619140625,-0.9443817138671876,-0.3185348510742187,-0.3065511584281921,-0.8417176008224487,85.33543395996094,-45.83186340332031,259.88250732421875
1700075871,0.523681640625,1.45709228515625,-0.957550048828125,-0.1054321527481079,-0.1015138402581214,-0.4673701226711273,85.56253051757812,-46.21870422363281,259.6417236328125
1700075871,0.486572265625,1.499908447265625,-0.98431396484375,-0.0035561190452426,0.0515188500285148,-0.2288667410612106,86.37977600097656,-46.73603820800781,259.33502197265625
1700075871,0.494049072265625,1.513702392578125,-0.9487762451171876,0.1552825272083282,0.2369550168514251,-0.0978669077157974,87.35844421386719,-47.15190124511719,259.65362548828125
1700075871,0.5268707275390625,1.466400146484375,-0.875335693359375,0.3848533928394317,0.4016845822334289,0.0668250992894172,88.09149169921875,-47.55926513671875,259.72662353515625
1700075871,0.495086669921875,1.4661712646484375,-0.7979583740234375,0.542303740978241,0.4360210001468658,0.2467304170131683,89.12443542480469,-48.46867370605469,259.6430053710937
1700075871,0.48675537109375,1.4483642578125,-0.7208099365234375,0.5256989598274231,0.6053628921508789,0.2353171855211258,89.89239501953125,-48.78076171875,259.67413330078125
1700075871,0.601043701171875,1.198150634765625,-0.7978668212890625,0.4174558222293854,1.0749164819717407,-0.0270076487213373,90.8020477294922,-49.146728515625,259.82568359375
1700075871,0.7240142822265625,0.7639312744140625,-1.0712738037109375,0.8749040961265564,0.5555897355079651,0.2721151411533355,92.24554443359376,-49.62559509277344,260.596923828125
1700075871,0.8614501953125,0.7516937255859375,-0.40313720703125,0.8096513152122498,0.0094334492459893,0.4103358685970306,92.67886352539062,-49.94390869140625,260.8915405273437
1700075871,1.4985198974609375,0.48858642578125,-0.0097198486328125,0.3093895316123962,-0.2660638988018036,0.7820318937301636,93.94522094726562,-50.67111206054688,261.96221923828125
1700075871,2.139877319335937,0.4112701416015625,0.4922027587890625,0.1626070290803909,-0.2482779771089553,1.5173903703689575,94.95184326171876,-50.97482299804688,262.1707458496094
1700075871,2.67303466796875,0.4458770751953125,0.74029541015625,-0.1570945382118225,0.0941270291805267,1.3339816331863403,95.6121826171875,-51.18902587890625,262.4320678710937
1700075871,2.5136871337890625,-0.05767822265625,0.031341552734375,-0.8066368699073792,0.2567359209060669,1.1168663501739502,96.34913635253906,-51.74293518066406,262.98651123046875
1700075871,1.1117706298828125,-0.090118408203125,-0.5761566162109375,-0.4710969626903534,0.4896855354309082,1.127119064331055,97.42880249023438,-52.04515075683594,263.3436889648437
1700075871,0.0616455078125,0.09783935546875,-0.9505462646484376,0.6927318572998047,0.2189419269561767,0.8038740754127502,97.818603515625,-52.3282470703125,263.6740417480469
1700075871,0.0724639892578125,0.0933380126953125,-0.711456298828125,0.4012062847614288,-0.1693719774484634,1.0001035928726196,98.37501525878906,-52.623077392578125,263.9451904296875
1700075871,0.72357177734375,0.59234619140625,-0.197967529296875,-0.4103038907051086,0.0592753067612648,0.9002357721328735,98.7003173828125,-52.34333801269531,264.4176025390625
1700075871,1.0293426513671875,0.9390411376953124,0.01983642578125,-0.2940760850906372,0.2847206890583038,0.4608166217803955,99.24156188964844,-52.26681518554688,265.040771484375
1700075871,1.0724639892578125,0.83270263671875,-0.06573486328125,-0.2498135566711425,0.2015038281679153,0.0619086399674415,99.17424011230467,-52.04615783691406,265.587646484375
1700075871,1.1253509521484375,0.466796875,-0.368896484375,-0.2917964458465576,0.1525378823280334,-0.1595550328493118,99.38192749023438,-51.80854797363281,265.4312744140625
1700075871,1.2380523681640625,0.086090087890625,-0.3642120361328125,-0.1251515299081802,0.2511467337608337,-0.0832379013299942,99.45138549804688,-51.39566040039063,264.7326965332031
1700075871,1.2512969970703125,-0.1272735595703125,-0.2150115966796875,-0.0835036784410476,0.3045351207256317,0.187928095459938,99.4862060546875,-51.00924682617188,265.0137634277344
1700075871,1.216461181640625,-0.1987152099609375,-0.2245025634765625,-0.1178209111094474,0.3664568364620209,0.3832808136940002,99.88128662109376,-51.16270446777344,264.60308837890625
1700075871,1.1062774658203125,-0.1510772705078125,-0.3539276123046875,0.0268063135445117,0.3736732006072998,0.4590171277523041,100.1553192138672,-51.917388916015625,264.703857421875
1700075871,1.0152435302734375,0.0957183837890625,-0.34075927734375,0.0431749001145362,0.3129962682723999,0.3673132956027984,100.32630920410156,-51.572357177734375,265.0325622558594
1700075871,0.9688873291015624,0.2827301025390625,-0.3250885009765625,-0.0656594336032867,0.2814045250415802,0.1436541080474853,100.19563293457033,-51.15931701660156,265.72808837890625
1700075871,0.8752899169921875,0.389984130859375,-0.34075927734375,-0.0455227419734001,0.258295476436615,-0.1065986156463623,99.80908203125,-50.99943542480469,265.4111328125
1700075871,0.8622283935546875,0.4404296875,-0.3271026611328125,0.0192674379795789,0.2034716308116912,-0.3367684483528137,99.96170043945312,-51.23971557617188,265.4125366210937
1700075871,0.9630584716796876,0.3885498046875,-0.339019775390625,0.0575876608490943,0.1274484992027282,-0.4527991712093353,99.83366394042967,-50.75387573242188,264.5828857421875
1700075871,1.006317138671875,0.2966461181640625,-0.3682098388671875,0.0934753566980362,0.0636988207697868,-0.4924461841583252,99.7622528076172,-50.33796691894531,264.95770263671875
1700075871,1.020263671875,0.1757049560546875,-0.38189697265625,0.1069211214780807,0.0249844454228878,-0.4836388528347015,99.803466796875,-50.47846984863281,264.93084716796875
1700075871,1.0278472900390625,0.0686187744140625,-0.3937225341796875,0.1235504299402237,-0.0124952858313918,-0.4227456748485565,100.14817810058594,-50.31243896484375,264.9217834472656
1700075871,1.031280517578125,0.021484375,-0.38702392578125,0.146423265337944,-0.0399514101445674,-0.3349691927433014,100.086669921875,-50.55616760253906,264.97174072265625
1700075871,1.0467681884765625,0.0211944580078125,-0.37359619140625,0.1534542739391327,-0.0715450197458267,-0.2575556337833404,100.0121612548828,-50.1307373046875,264.5038452148437
1700075871,1.0511322021484375,0.043212890625,-0.3535003662109375,0.1188518181443214,-0.1018315553665161,-0.2165863662958145,100.03038024902344,-50.38784790039063,264.6402587890625
1700075871,1.0286407470703125,0.0637664794921875,-0.3417205810546875,0.1272045522928238,-0.1088724210858345,-0.2330918461084365,99.83854675292967,-50.36529541015625,264.99237060546875
1700075871,1.0087738037109375,0.0770111083984375,-0.3344573974609375,0.2493882626295089,-0.1020315587520599,-0.2617975175380707,99.90234375,-50.566741943359375,265.23895263671875
1700075871,0.987884521484375,0.10491943359375,-0.332366943359375,0.4739087224006653,-0.1184403598308563,-0.2873356342315674,100.14340209960938,-50.68943786621094,264.4419860839844
1700075871,0.97418212890625,0.146087646484375,-0.320648193359375,0.6648917198181152,-0.1379440128803253,-0.359428197145462,99.98867797851562,-50.49136352539063,264.9656982421875
1700075871,0.96136474609375,0.1924285888671875,-0.3121490478515625,0.7223590016365051,-0.1539229899644851,-0.4578546583652496,99.9608154296875,-51.191162109375,265.14971923828125
1700075871,0.9487152099609376,0.240692138671875,-0.291229248046875,0.6463270783424377,-0.1152962297201156,-0.5726448893547058,100.31137084960938,-51.21214294433594,265.1328125
1700075871,0.9520263671875,0.273712158203125,-0.2721405029296875,0.6079168319702148,-0.1163455173373222,-0.618661105632782,100.43475341796876,-51.446533203125,265.32208251953125
1700075871,0.952606201171875,0.2845458984375,-0.2091827392578125,0.5570824146270752,-0.1099126487970352,-0.6079288125038147,100.46199035644533,-51.580810546875,265.4222412109375
1700075871,1.0061798095703125,0.2298736572265625,-0.20635986328125,0.5264464616775513,-0.0813073739409446,-0.5486047863960266,100.737060546875,-51.972564697265625,265.2105712890625
1700075871,1.0209197998046875,0.146087646484375,-0.25848388671875,0.5427940487861633,-0.0839215293526649,-0.4973189532756805,100.96304321289062,-51.99615478515625,265.5115661621094
1700075871,0.993499755859375,0.081878662109375,-0.3207550048828125,0.5690855383872986,-0.1212598457932472,-0.4614999890327453,100.584716796875,-52.41949462890625,265.712646484375
1700075871,0.9680328369140624,0.05035400390625,-0.3345947265625,0.6449686288833618,-0.1499428898096084,-0.438925951719284,100.76243591308594,-52.40074157714844,265.775146484375
1700075871,0.9434814453125,0.0359649658203125,-0.297210693359375,0.7299247980117798,-0.1589992344379425,-0.4198798239231109,100.75749206542967,-52.880279541015625,265.8343200683594
1700075871,0.92840576171875,0.03875732421875,-0.285308837890625,0.7167168259620667,-0.1640240848064422,-0.3956426680088043,101.02926635742188,-53.20643615722656,265.875244140625
1700075871,0.9309234619140624,0.0542144775390625,-0.3134307861328125,0.5832165479660034,-0.1575526148080825,-0.3862923085689544,100.94659423828124,-53.355224609375,266.43927001953125
1700075871,0.9335479736328124,0.0600433349609375,-0.356536865234375,0.5125828981399536,-0.1656062752008438,-0.3936178684234619,101.04238891601562,-53.6243896484375,266.44500732421875
1700075871,0.89300537109375,0.05523681640625,-0.345703125,0.4638051986694336,-0.1556979864835739,-0.3884774446487427,100.97665405273438,-53.74617004394531,267.11260986328125
1700075871,0.8409576416015625,0.0359344482421875,-0.3363800048828125,0.4415643513202667,-0.1549347192049026,-0.3601198196411133,101.01750183105467,-54.28076171875,266.6606750488281
1700075871,0.8143463134765625,-0.014190673828125,-0.3269805908203125,0.4475791156291961,-0.1700830459594726,-0.2788087427616119,101.1510009765625,-54.80621337890625,267.5326538085937
1700075871,0.8177947998046875,-0.0607757568359375,-0.3303375244140625,0.406834065914154,-0.18245929479599,-0.1861400455236435,101.03890991210938,-54.90158081054688,268.27862548828125
1700075871,0.827850341796875,-0.0799713134765625,-0.3280181884765625,0.3624705970287323,-0.1765790283679962,-0.0919376462697982,100.67025756835938,-54.92431640625,267.9119873046875
1700075871,0.8448944091796875,-0.0804595947265625,-0.286529541015625,0.3306684792041778,-0.143097773194313,0.0026522420812398,100.88288879394533,-55.206298828125,268.4017333984375
1700075871,0.884246826171875,-0.065948486328125,-0.2435150146484375,0.3264252543449402,-0.1046558395028114,0.111298032104969,101.01182556152344,-55.25550842285156,268.3123779296875
1700075871,0.9490203857421876,-0.0570831298828125,-0.2039947509765625,0.3715559840202331,-0.0617917291820049,0.2210935056209564,101.3001708984375,-55.70236206054688,268.8389587402344
1700075871,1.013946533203125,-0.051788330078125,-0.153045654296875,0.3708246648311615,-0.0407876446843147,0.368910402059555,101.37171936035156,-56.167510986328125,269.29071044921875
1700075871,1.0650787353515625,-0.022064208984375,-0.1148529052734375,0.368692010641098,0.0376839973032474,0.4543414115905761,101.20335388183594,-56.497406005859375,268.9434814453125
1700075871,1.087615966796875,-0.0811767578125,-0.153076171875,0.394397109746933,0.0858339443802833,0.5266566276550293,101.36875915527344,-56.228118896484375,269.2596435546875
1700075871,1.0987701416015625,-0.1411285400390625,-0.2111968994140625,0.2879324555397033,0.075846292078495,0.6844528913497925,101.1908721923828,-56.67193603515625,268.93243408203125
1700075871,1.14208984375,-0.1442108154296875,-0.264801025390625,0.3600886762142181,0.0057782605290412,0.7354074120521545,101.52418518066406,-56.52191162109375,269.1494140625
1700075871,1.2031402587890625,-0.2005157470703125,-0.2730255126953125,0.3959411978721618,-0.0986631959676742,0.7867462635040283,101.39387512207033,-56.65054321289063,269.6791381835937
1700075871,1.2962646484375,-0.1027069091796875,-0.2573699951171875,0.434517353773117,-0.2050343751907348,0.8713652491569519,101.36824035644533,-56.44789123535156,269.4559631347656
1700075871,1.3705902099609375,0.047576904296875,-0.1653289794921875,0.4770326018333435,-0.2786428034305572,0.8493260145187378,100.982177734375,-56.415283203125,269.6680908203125
1700075871,1.46142578125,0.0536346435546875,-0.0677490234375,0.558506965637207,-0.259903222322464,0.81890869140625,100.8628387451172,-56.60169982910156,269.627685546875
1700075871,1.5164947509765625,-0.0275115966796875,0.01739501953125,0.6104447245597839,-0.2852458655834198,0.883831799030304,100.90933227539062,-56.04254150390625,269.2348022460937
1700075871,1.5510711669921875,-0.12176513671875,0.115203857421875,0.5388759970664978,-0.2917394340038299,1.051608324050903,100.80256652832033,-56.27030944824219,270.0609741210937
1700075871,1.6026611328125,-0.2190093994140625,0.15411376953125,0.4925316572189331,-0.3232832551002502,1.2170366048812866,100.89875793457033,-55.72119140625,270.0238037109375
1700075871,1.6270599365234375,-0.3780364990234375,0.2398529052734375,0.5755053758621216,-0.3053801655769348,1.3266891241073608,100.81178283691406,-55.63673400878906,269.38848876953125
1700075871,1.641876220703125,-0.571044921875,0.3248291015625,0.6602224111557007,-0.279069721698761,1.4512310028076172,100.68327331542967,-54.977142333984375,269.6742553710937
1700075871,1.5957183837890625,-0.69305419921875,0.406036376953125,0.6904751062393188,-0.2343014478683471,1.538054585456848,100.57318115234376,-54.90234375,269.8598327636719
1700075871,1.543670654296875,-0.836395263671875,0.449005126953125,0.482789009809494,-0.0446537546813488,1.5646257400512695,100.50236511230467,-54.87998962402344,269.7288818359375
1700075871,1.4878692626953125,-0.9272003173828124,0.25823974609375,-0.2596267759799957,0.6897576451301575,1.942895531654358,100.44938659667967,-54.28334045410156,269.8992919921875
1700075871,1.3628997802734375,-0.6319427490234375,-0.46710205078125,-1.556653618812561,1.3459962606430054,2.659846544265747,100.35935974121094,-54.08180236816406,269.911376953125
1700075871,1.1864471435546875,-0.2096710205078125,-1.053680419921875,-2.652672290802002,1.5037269592285156,3.3470919132232666,100.2486572265625,-53.67887878417969,269.802001953125
1700075871,1.3187103271484375,-0.0462646484375,-1.4041595458984375,-2.868680953979492,1.0961861610412598,3.5680253505706787,100.17881774902344,-53.64251708984375,269.8775329589844
1700075871,1.6500091552734375,-0.0024871826171875,-1.5486602783203125,-2.373032569885254,0.8645294904708862,3.708989381790161,100.20198059082033,-52.85491943359375,269.9617919921875
1700075871,1.729583740234375,0.241455078125,-1.26409912109375,-1.3844943046569824,0.6534899473190308,3.9824023246765137,100.2834930419922,-52.26155090332031,270.41094970703125
1700075871,1.6129608154296875,0.5925445556640625,-0.739776611328125,-0.4950089454650879,0.5123271942138672,4.19185209274292,99.78173828125,-52.284759521484375,269.8900146484375
1700075871,1.5831146240234375,0.83355712890625,-0.5506439208984375,0.1141175180673599,0.6231605410575867,4.115846633911133,99.70664978027344,-51.81524658203125,269.7247314453125
1700075871,1.6439208984375,1.036376953125,-0.5724945068359375,0.0470655113458633,0.7750893235206604,3.7477002143859854,99.49130249023438,-51.77665710449219,270.67999267578125
1700075871,1.8596649169921875,1.4001312255859375,-0.4104461669921875,0.2022843956947326,0.9014520645141602,3.108928203582764,99.15721130371094,-51.29798889160156,270.43719482421875
1700075871,1.9906768798828125,1.333770751953125,-0.2074432373046875,1.2123031616210938,1.1041178703308103,2.42881727218628,98.70542907714844,-50.836029052734375,270.6192626953125
1700075871,1.8403778076171875,0.7530364990234375,-0.2502899169921875,2.010026454925537,1.3062546253204346,2.091104030609131,98.74819946289062,-50.420440673828125,270.64617919921875
1700075871,1.525787353515625,0.5486602783203125,-0.5686187744140625,2.111738443374634,1.1923986673355105,2.1210954189300537,98.42384338378906,-49.896270751953125,271.1458740234375
1700075871,1.3014068603515625,0.5201416015625,-0.7469940185546875,1.6557072401046753,0.844606876373291,2.2393202781677246,98.4875946044922,-49.439971923828125,271.24371337890625
1700075871,1.265380859375,0.4083099365234375,-0.8197784423828125,0.8867154717445374,0.440308928489685,2.2313826084136963,98.1394500732422,-48.86112976074219,271.61834716796875
1700075871,1.289337158203125,0.2415618896484375,-0.8286590576171875,-0.1181913539767265,0.122828185558319,2.10343861579895,97.8463897705078,-48.371368408203125,271.5693664550781
1700075871,1.2575836181640625,0.0698089599609375,-0.8103485107421875,-0.9638413786888124,-0.0225926600396633,1.7990933656692505,97.4926300048828,-47.9786376953125,271.373046875
1700075871,1.118316650390625,-0.1370849609375,-0.6341400146484375,-1.508001685142517,-0.0242289062589406,1.4198485612869265,97.025390625,-48.237213134765625,272.5874938964844
1700075872,0.849700927734375,-0.3328857421875,-0.3658447265625,-1.9108638763427728,0.0137997018173336,1.1208089590072632,96.79017639160156,-47.63270568847656,273.19110107421875
1700075872,0.5251617431640625,-0.4637451171875,-0.228118896484375,-2.2454774379730225,0.0527452379465103,0.9023188948631288,96.90939331054688,-47.56971740722656,273.1210021972656
1700075872,0.2195281982421875,-0.5121612548828125,-0.2497100830078125,-2.277350187301636,-0.0345571786165237,0.7729537487030029,96.94538879394533,-47.18536376953125,273.118408203125
1700075872,0.0144195556640625,-0.4670867919921875,-0.24945068359375,-2.18660044670105,-0.1729906946420669,0.6273453831672668,96.82740783691406,-46.39024353027344,272.450439453125
1700075872,-0.046905517578125,-0.415802001953125,-0.274505615234375,-2.253910541534424,-0.2785730361938476,0.1697610765695572,96.339111328125,-45.38912963867188,271.89276123046875
1700075872,0.0279693603515625,-0.4195556640625,-0.31878662109375,-2.3063225746154785,-0.4375997185707092,-0.3621251881122589,95.8432159423828,-43.86195373535156,271.0807189941406
1700075872,0.021728515625,-0.2616119384765625,-0.306488037109375,-2.1705095767974854,-0.5801675319671631,-0.8038725256919861,95.12925720214844,-42.725921630859375,269.7480163574219
1700075872,-0.02935791015625,-0.1543121337890625,-0.1964111328125,-2.0317111015319824,-0.7303453087806702,-1.2243307828903198,94.25544738769533,-41.16432189941406,268.8174133300781
1700075872,-0.0195159912109375,-0.1820526123046875,-0.09454345703125,-1.9002379179000848,-0.895494818687439,-1.613900899887085,93.09857177734376,-39.59097290039063,268.0482177734375
1700075872,-0.0385284423828125,-0.2337493896484375,-0.114410400390625,-1.7733951807022097,-1.0426411628723145,-1.9526214599609373,91.6707000732422,-38.0548095703125,266.70428466796875
1700075872,-0.0424652099609375,-0.27349853515625,-0.1633148193359375,-1.7110167741775513,-1.1626743078231812,-2.264023303985596,90.61196899414062,-36.406646728515625,266.2928161621094
1700075872,-0.0426025390625,-0.312530517578125,-0.1844940185546875,-1.7130186557769775,-1.2581199407577517,-2.530404090881348,89.23155212402344,-35.47596740722656,264.5826416015625
1700075872,-0.069854736328125,-0.297637939453125,-0.2462615966796875,-1.8413052558898928,-1.3342149257659912,-2.744222402572632,88.1046142578125,-34.243133544921875,264.64324951171875
1700075872,-0.1162872314453125,-0.2745819091796875,-0.2666778564453125,-2.093380928039551,-1.4235235452651978,-2.9447579383850098,86.6217041015625,-33.4969482421875,264.03759765625
1700075872,-0.1219635009765625,-0.2200469970703125,-0.307952880859375,-2.292128086090088,-1.584747552871704,-3.1188459396362305,86.038818359375,-32.449951171875,263.48492431640625
1700075872,-0.0977783203125,-0.067596435546875,-0.348876953125,-1.8821704387664795,-1.7115942239761353,-3.1801202297210693,84.64547729492188,-31.329345703125,263.25982666015625
1700075872,-0.0880279541015625,0.1668853759765625,-0.283203125,-1.2169770002365112,-1.7019742727279663,-3.265895366668701,83.3642578125,-30.812225341796875,262.8470458984375
1700075872,-0.0988616943359375,0.4544219970703125,-0.3201446533203125,-0.4849709570407867,-1.5916237831115725,-3.348263740539551,81.69830322265625,-29.851333618164062,262.6253662109375
1700075872,-0.0819244384765625,0.6994476318359375,-0.5463409423828125,0.0765602886676788,-1.3460659980773926,-3.354753255844116,80.74028015136719,-29.329116821289062,262.6744079589844
1700075872,-0.0380401611328125,0.8304443359375,-0.7508392333984375,0.5772010087966919,-1.1009573936462402,-3.101383924484253,79.73171997070312,-28.765365600585938,262.3466796875
1700075872,0.0143890380859375,1.018280029296875,-0.90771484375,1.025699496269226,-0.8794271945953369,-2.7522506713867188,78.94700622558594,-27.926788330078125,262.56939697265625
1700075872,0.100311279296875,1.2122039794921875,-1.13641357421875,1.0664564371109009,-0.6358446478843689,-2.298738956451416,78.17488098144531,-27.281951904296875,262.630126953125
1700075872,0.206146240234375,1.4296722412109375,-1.3177490234375,0.6514376997947693,-0.4082303643226623,-1.6421504020690918,77.53997802734375,-27.234115600585938,262.2030639648437
1700075872,0.2556304931640625,1.7367095947265625,-1.3324127197265625,0.298985093832016,-0.1878484636545181,-0.9808374047279358,76.90962219238281,-26.697967529296875,262.5375366210937
1700075872,0.28631591796875,2.0074920654296875,-1.2413177490234375,0.1507490277290344,-0.0930846706032753,-0.5164614915847778,76.72067260742188,-26.30575561523437,261.6844787597656
1700075872,0.2898101806640625,2.262557983398437,-1.0562286376953125,-0.051129762083292,0.019765980541706,-0.365435242652893,76.61134338378906,-26.089370727539062,261.2996826171875
1700075872,0.2921295166015625,2.3347930908203125,-0.85211181640625,-0.3313576877117157,0.8593072891235352,-0.7763527035713196,76.81565856933594,-26.097915649414062,260.3885498046875
1700075872,0.2703399658203125,1.848297119140625,-1.2903900146484375,0.984322190284729,0.1197519674897193,-0.3900044858455658,76.95281982421875,-25.772720336914062,259.322509765625
1700075872,0.3846588134765625,1.4717864990234375,-0.196075439453125,0.2868943512439728,-0.7219408750534058,-0.1925569325685501,76.93728637695312,-26.216705322265625,258.34814453125
1700075872,1.526397705078125,0.9781036376953124,0.610260009765625,-0.2475525438785553,-0.3021835684776306,-1.000895857810974,77.68780517578125,-26.24371337890625,257.7923583984375
1700075872,2.09820556640625,-0.1021575927734375,0.3222503662109375,-0.2093929052352905,0.2535150945186615,-0.3687029182910919,78.26373291015625,-26.710250854492188,256.58740234375
1700075872,1.1801910400390625,0.3633880615234375,-0.3969879150390625,-0.0057670753449201,0.1196805909276008,0.6049351692199707,79.367919921875,-26.46688842773437,256.1628723144531
1700075872,1.1914825439453125,0.6265716552734375,-0.7091827392578125,-0.2291468977928161,-0.7904336452484131,0.7302118539810181,80.10194396972656,-27.14642333984375,254.703857421875
1700075872,2.413604736328125,0.2501983642578125,-0.04449462890625,-1.1791667938232422,-0.4374353885650635,0.900563657283783,81.74055480957031,-27.465057373046875,254.26394653320312
1700075872,1.7930908203125,0.2994537353515625,-0.3342132568359375,-0.6564364433288574,0.0195337533950805,0.6708036661148071,83.31517028808594,-28.11201477050781,253.00506591796875
1700075872,0.8127288818359375,0.169036865234375,-0.2361907958984375,0.0501041784882545,0.083242155611515,0.4286778569221496,84.85169982910156,-28.636260986328125,253.1096649169922
1700075872,0.5129852294921875,0.22357177734375,-0.2314300537109375,0.221643716096878,0.1953013241291046,0.3268641531467438,86.45079040527344,-29.39204406738281,252.07472229003903
1700075872,0.7183685302734375,0.39031982421875,-0.2072601318359375,0.1836079061031341,0.3244049847126007,0.1145486831665039,88.40412902832031,-30.17500305175781,251.6579132080078
1700075872,1.0098724365234375,0.464385986328125,-0.1775054931640625,0.1879983991384506,0.3402201533317566,-0.0927994474768638,90.32135009765624,-31.4510498046875,251.34930419921875
1700075872,1.0440826416015625,0.5152740478515625,-0.3636322021484375,0.1505833864212036,0.2540059089660644,-0.295388251543045,92.4851531982422,-32.790313720703125,251.13536071777344
1700075872,1.0585784912109375,0.3958740234375,-0.4792938232421875,0.1819974929094314,0.1608895510435104,-0.378067135810852,94.64199829101562,-34.22468566894531,250.73667907714844
1700075872,0.965728759765625,0.2595062255859375,-0.501800537109375,0.2168337702751159,0.075573056936264,-0.3725908696651459,96.71882629394533,-35.55804443359375,251.01124572753903
1700075872,0.87774658203125,0.15313720703125,-0.50457763671875,0.2117673754692077,-0.0007368966471403,-0.3316876590251922,98.50650024414062,-37.37278747558594,251.7317352294922
1700075872,0.86114501953125,0.08306884765625,-0.5315399169921875,0.1470064967870712,-0.0992411002516746,-0.2851587831974029,101.29623413085938,-39.5675048828125,251.5623474121093
1700075872,0.913848876953125,0.07781982421875,-0.5477752685546875,0.0152173023670911,-0.2276821583509445,-0.2326457649469375,102.67068481445312,-41.26432800292969,252.415771484375
1700075872,0.9794769287109376,0.1201171875,-0.5275726318359375,-0.0969635620713234,-0.3471829891204834,-0.2077710330486297,104.82525634765624,-43.67903137207031,253.2020874023437
1700075872,0.9777984619140624,0.1616363525390625,-0.51409912109375,-0.1016403436660766,-0.4309905469417572,-0.2341504544019699,106.6279296875,-46.17379760742188,254.1184539794922
1700075872,0.942901611328125,0.1736602783203125,-0.47601318359375,-0.0515785068273544,-0.496230810880661,-0.2525973618030548,108.54109191894533,-49.28582763671875,254.93460083007807
1700075872,0.9283599853515624,0.19586181640625,-0.4234771728515625,-0.0051601408049464,-0.5344042778015137,-0.2805144786834717,109.63468933105467,-52.24928283691406,255.653060913086
1700075872,0.975555419921875,0.1976165771484375,-0.395355224609375,0.1043117567896843,-0.5499292016029358,-0.3168834149837494,110.90103149414062,-55.37619018554688,256.2297058105469
1700075872,1.026519775390625,0.189300537109375,-0.3939971923828125,0.2038793563842773,-0.5907085537910461,-0.3143877685070038,112.00119018554688,-58.37867736816406,257.4294128417969
1700075872,1.0560150146484375,0.1952056884765625,-0.382110595703125,0.222524955868721,-0.6375844478607178,-0.3074930906295776,112.5683135986328,-61.38864135742188,259.02545166015625
1700075872,1.0506591796875,0.2136383056640625,-0.3531494140625,0.1305212527513504,-0.644652247428894,-0.332601398229599,112.4163818359375,-64.69998168945312,259.89971923828125
1700075872,0.9921112060546876,0.2253265380859375,-0.3433685302734375,0.0395231731235981,-0.5959683060646057,-0.4173772633075714,112.7113800048828,-67.3619384765625,260.86962890625
1700075872,0.93548583984375,0.2166748046875,-0.3458404541015625,0.0326660685241222,-0.5599381327629089,-0.502693772315979,112.46128845214844,-70.3594970703125,261.6259155273437
1700075872,0.89654541015625,0.2241058349609375,-0.3358001708984375,0.1023769751191139,-0.5568789839744568,-0.5481392741203308,112.35816955566406,-72.87733459472656,262.6160888671875
1700075872,0.89605712890625,0.22222900390625,-0.306488037109375,0.1551701426506042,-0.5355374813079834,-0.5777989029884338,111.93280029296876,-75.52919006347656,263.74493408203125
1700075872,0.9252777099609376,0.2032623291015625,-0.2867584228515625,0.1825271993875503,-0.516595184803009,-0.5888475775718689,111.52052307128906,-77.50982666015625,264.1505126953125
1700075872,0.947998046875,0.1746673583984375,-0.26739501953125,0.1482760161161422,-0.4441481530666351,-0.5959147810935974,110.93844604492188,-79.81852722167969,264.76434326171875
1700075872,0.9835662841796876,0.1281585693359375,-0.2991943359375,0.1616179198026657,-0.4202452301979065,-0.5778910517692566,110.14134216308594,-81.084228515625,265.18328857421875
1700075872,0.9865875244140624,0.0838470458984375,-0.3154144287109375,0.2519270479679107,-0.4378385841846466,-0.522426962852478,109.42466735839844,-82.97036743164062,265.6864624023437
1700075872,0.960693359375,0.06451416015625,-0.3028564453125,0.3064922988414764,-0.4497527778148651,-0.4820518493652344,108.799072265625,-83.43109130859375,265.643798828125
1700075872,0.9582977294921876,0.062957763671875,-0.26654052734375,0.2883202135562897,-0.4040641188621521,-0.4385419487953186,108.33389282226562,-84.209228515625,266.1058959960937
1700075872,0.9459381103515624,0.0934600830078125,-0.2479400634765625,0.2758382260799408,-0.334843248128891,-0.4114637076854706,108.39881896972656,-84.17588806152344,265.5975952148437
1700075872,0.9179840087890624,0.10107421875,-0.249969482421875,0.3509249985218048,-0.2996341288089752,-0.3858289122581482,108.10128784179688,-84.44740295410156,265.42724609375
1700075872,0.900634765625,0.0958709716796875,-0.2575225830078125,0.3937782049179077,-0.3038246035575866,-0.3565615713596344,107.74000549316406,-83.81571960449219,265.611328125
1700075872,0.9206085205078124,0.08123779296875,-0.2472076416015625,0.353903204202652,-0.2871420383453369,-0.2983688414096832,107.8413543701172,-83.05183410644531,264.9874572753906
1700075872,0.9501953125,0.0543975830078125,-0.23577880859375,0.3077884614467621,-0.2524213194847107,-0.2147823423147201,107.75724792480467,-82.21903991699219,264.090087890625
1700075872,0.9603729248046876,0.005218505859375,-0.2435760498046875,0.2957815825939178,-0.249930739402771,-0.1107992157340049,107.55398559570312,-81.47097778320312,264.4686889648437
1700075872,0.96697998046875,-0.06829833984375,-0.2721710205078125,0.211502656340599,-0.2522543370723724,-0.0381407290697097,107.94143676757812,-81.32539367675781,264.64599609375
1700075872,0.9739532470703124,-0.1454010009765625,-0.293670654296875,0.2436664551496505,-0.2357587367296219,0.0412100218236446,107.18931579589844,-82.10493469238281,265.2548828125
1700075872,0.9582977294921876,-0.1830596923828125,-0.2519073486328125,0.3187390863895416,-0.2073095142841339,0.1798118352890014,107.2444305419922,-82.14666748046875,263.7518615722656
1700075872,0.9508514404296876,-0.1304473876953125,-0.2401123046875,0.2883947789669037,-0.2022148817777633,0.3012839555740356,107.37506103515624,-80.74299621582031,263.251953125
1700075872,1.0028076171875,-0.0528411865234375,-0.2293701171875,0.2813272774219513,-0.2107883989810943,0.3845082521438598,107.64259338378906,-78.89375305175781,262.072509765625
1700075872,1.038604736328125,0.041717529296875,-0.2287445068359375,0.240810751914978,-0.2568251192569732,0.4054798483848572,107.78126525878906,-77.43911743164062,261.76123046875
1700075872,1.08984375,0.1265869140625,-0.2232513427734375,0.1950757503509521,-0.3027095198631286,0.385165274143219,107.57383728027344,-76.56205749511719,261.37652587890625
1700075872,1.18914794921875,0.1445465087890625,-0.175506591796875,0.2882016897201538,-0.2732184827327728,0.3361575007438659,107.4022979736328,-75.489013671875,260.7794189453125
1700075872,1.26580810546875,0.100006103515625,-0.177581787109375,0.4631402194499969,-0.2526394426822662,0.2924132347106933,107.32989501953124,-74.39671325683594,259.3260498046875
1700075872,1.3204345703125,0.05670166015625,-0.1926116943359375,0.4958260059356689,-0.3224089443683624,0.3051215708255768,106.952392578125,-73.53660583496094,259.6357421875
1700075872,1.3704376220703125,0.0430755615234375,-0.1185760498046875,0.4281880855560303,-0.3341431021690368,0.3605989217758178,106.93002319335938,-73.50874328613281,258.8941650390625
1700075872,1.3331451416015625,0.019561767578125,-0.054046630859375,0.2720924913883209,-0.273720771074295,0.40634486079216,106.9723663330078,-72.77035522460938,258.153564453125
1700075872,1.28179931640625,-0.04595947265625,-0.0654449462890625,0.0022168152499943,-0.198165014386177,0.4588485360145569,106.78732299804688,-72.05693054199219,258.387451171875
1700075872,1.308990478515625,-0.1507720947265625,-0.178924560546875,-0.2233981937170028,-0.1704052835702896,0.5118651390075684,107.00868225097656,-71.95584106445312,258.2777709960937
1700075872,1.37353515625,-0.273834228515625,-0.24072265625,-0.2997867166996002,-0.2718141973018646,0.5778465867042542,106.50398254394533,-71.50004577636719,257.7826538085937
1700075872,1.4391326904296875,-0.3509674072265625,-0.17449951171875,-0.3063186407089233,-0.3882553279399872,0.7158821821212769,106.52403259277344,-71.41252136230469,257.1436462402344
1700075872,1.4405059814453125,-0.3745269775390625,-0.1169586181640625,-0.1355857849121093,-0.4500273466110229,0.8346389532089233,106.61380004882812,-70.67607116699219,257.1471862792969
1700075872,1.4218292236328125,-0.4310302734375,-0.0098876953125,0.1103046685457229,-0.4551102519035339,0.9123142957687378,106.36935424804688,-70.32524108886719,256.76959228515625
1700075872,1.438018798828125,-0.484527587890625,0.1295013427734375,0.2790907621383667,-0.4273425340652466,0.9703360795974731,106.27984619140624,-70.30116271972656,256.070068359375
1700075872,1.4547119140625,-0.4955596923828125,0.2222442626953125,0.3589853346347809,-0.3995758891105652,1.0202405452728271,106.25474548339844,-69.69749450683594,256.55059814453125
1700075872,1.4183349609375,-0.5075836181640625,0.2409210205078125,0.3200778663158417,-0.2006074041128158,1.10169780254364,106.20553588867188,-69.30978393554688,255.6581573486328
1700075872,1.310211181640625,-0.4882354736328125,0.0221405029296875,0.1505277156829834,0.2388506531715393,1.4161100387573242,105.95947265625,-69.44950866699219,256.481689453125
1700075872,1.157073974609375,-0.287689208984375,-0.42889404296875,-0.2062338590621948,0.7125953435897827,1.953711748123169,106.41644287109376,-68.95735168457031,255.9395904541016
1700075872,1.02569580078125,0.0108184814453125,-0.87701416015625,-0.6465281844139099,0.8879697918891907,2.562638521194458,105.96978759765624,-68.98220825195312,255.8688507080078
1700075872,1.144195556640625,0.2767486572265625,-1.1805877685546875,-0.8663390874862671,0.6879432201385498,3.1185736656188965,105.77297973632812,-69.06935119628906,255.9235992431641
1700075872,1.4504241943359375,0.5316314697265625,-1.2053985595703125,-0.7185530662536621,0.6488386988639832,3.586979627609253,105.94831848144533,-68.16560363769531,255.5160217285156
1700075872,1.48931884765625,0.733795166015625,-1.1326446533203125,-0.3863130807876587,0.6084436178207397,4.010420322418213,105.87799072265624,-68.56170654296875,255.1976013183593
1700075872,1.5016632080078125,0.9217376708984376,-0.830078125,-0.3494232296943664,0.6855892539024353,4.22877311706543,105.96096801757812,-68.28343200683594,255.3510131835937
1700075872,1.655426025390625,1.04998779296875,-0.58984375,-0.4753409624099731,1.1946929693222046,4.155009269714356,106.20515441894533,-67.83265686035156,255.3306121826172
1700075872,1.89825439453125,1.1931915283203125,-0.4727325439453125,-0.0623536556959152,1.5400536060333252,3.7551615238189697,105.83683776855467,-67.74191284179688,256.0613098144531
1700075873,2.139190673828125,1.07928466796875,-0.3198699951171875,0.501059353351593,1.7600672245025637,3.330693244934082,105.592041015625,-67.35823059082031,254.9454040527344
1700075873,2.0902862548828125,0.7944183349609375,-0.4815216064453125,0.7348646521568298,1.7964915037155151,3.273655414581299,105.86471557617188,-67.21160888671875,254.57275390625
1700075873,1.8520050048828125,0.7603759765625,-0.658294677734375,0.7150004506111145,1.631456971168518,3.356031894683838,105.4978485107422,-67.14730834960938,254.8822021484375
1700075873,1.773895263671875,0.71343994140625,-0.70703125,0.5173344612121582,1.400857925415039,3.2381536960601807,105.5769500732422,-67.01910400390625,255.0017242431641
1700075873,1.7983551025390625,0.51702880859375,-0.694793701171875,0.1190478280186653,1.1726577281951904,2.959958076477051,105.35464477539062,-66.98265075683594,254.5855255126953
1700075873,1.786407470703125,0.328338623046875,-0.6113128662109375,-0.3452996015548706,1.0557279586791992,2.6489057540893555,105.20925903320312,-66.62400817871094,254.85400390625
1700075873,1.66693115234375,0.213470458984375,-0.541412353515625,-0.6961497664451599,0.9479529857635498,2.346956729888916,105.77474975585938,-65.97265625,254.86373901367188
1700075873,1.457672119140625,0.1019134521484375,-0.4153594970703125,-0.8719586133956909,0.8395860195159912,2.047743320465088,105.57310485839844,-65.91581726074219,254.1851501464844
1700075873,1.1938934326171875,-0.085418701171875,-0.2228240966796875,-1.0263431072235107,0.7201547026634216,1.6594526767730713,105.3055419921875,-65.39732360839844,254.79640197753903
1700075873,0.9182586669921876,-0.319610595703125,-0.0908203125,-1.2305442094802856,0.6782024502754211,1.3694932460784912,105.2030792236328,-65.26644897460938,254.02301025390625
1700075873,0.5631866455078125,-0.449981689453125,-0.095428466796875,-1.5266046524047852,0.6057314872741699,1.1264129877090454,104.86442565917967,-64.60261535644531,254.45269775390625
1700075873,0.22833251953125,-0.5346832275390625,-0.172149658203125,-1.7757896184921265,0.375676155090332,0.7488065958023071,104.82693481445312,-64.67022705078125,254.5720367431641
1700075873,-0.0048065185546875,-0.6882476806640625,-0.132965087890625,-1.8024498224258425,0.1664941757917404,0.2591109275817871,105.01229858398438,-64.00111389160156,254.00347900390625
1700075873,-0.126861572265625,-0.834259033203125,-0.0394744873046875,-1.6050983667373655,0.0797382369637489,-0.1487873494625091,104.46983337402344,-63.31935119628906,253.1532287597656
1700075873,-0.1393280029296875,-0.8257598876953125,0.055908203125,-1.6261930465698242,-0.0867639258503913,-0.4944472908973694,104.21649169921876,-63.01936340332031,253.736557006836
1700075873,-0.0602264404296875,-0.635101318359375,0.0721435546875,-1.7286181449890137,-0.2864599823951721,-0.8835481405258179,104.450927734375,-62.45011901855469,253.0769805908203
1700075873,-0.012481689453125,-0.412322998046875,-0.0039520263671875,-1.6708285808563232,-0.4651985764503479,-1.3640189170837402,104.05191040039062,-62.01385498046875,253.40106201171875
1700075873,-0.0181732177734375,-0.3859100341796875,0.0261688232421875,-1.5238258838653564,-0.6162933111190796,-1.824575901031494,103.88850402832033,-61.14175415039063,253.8780212402344
1700075873,-0.059478759765625,-0.476165771484375,0.051727294921875,-1.4978991746902466,-0.7563388347625732,-2.201334238052368,103.81588745117188,-61.14469909667969,253.5365753173828
1700075873,-0.101226806640625,-0.480133056640625,-0.039520263671875,-1.5076974630355835,-0.8851506114006042,-2.5347278118133545,103.76669311523438,-60.3365478515625,253.8026123046875
1700075873,-0.0839996337890625,-0.4209136962890625,-0.085357666015625,-1.5529006719589231,-1.0168670415878296,-2.8913395404815674,103.31744384765624,-59.771881103515625,253.7471466064453
1700075873,-0.0189361572265625,-0.3641815185546875,-0.0836334228515625,-1.5571787357330322,-1.1513715982437134,-3.148683547973633,103.24122619628906,-59.50801086425781,253.08670043945312
1700075873,-0.028594970703125,-0.24066162109375,-0.0808258056640625,-1.5247092247009275,-1.3088643550872805,-3.3541040420532227,103.05935668945312,-58.6640625,252.77151489257807
1700075873,-0.007232666015625,-0.103179931640625,-0.084747314453125,-1.3124715089797974,-1.4559438228607178,-3.474018096923828,102.91633605957033,-58.19677734375,252.8690795898437
1700075873,0.0105133056640625,0.112701416015625,-0.0941619873046875,-0.7675483226776123,-1.4665918350219729,-3.5267221927642822,102.19461059570312,-57.29901123046875,252.9286346435547
1700075873,-0.011749267578125,0.37255859375,-0.13861083984375,-0.2763868570327759,-1.3476217985153198,-3.631619691848755,101.9703369140625,-56.6912841796875,252.92369079589844
1700075873,0.003753662109375,0.58685302734375,-0.2734527587890625,0.167438268661499,-1.2299015522003174,-3.693199396133423,101.87185668945312,-56.08686828613281,252.45700073242188
1700075873,0.0388946533203125,0.7797088623046875,-0.4631500244140625,0.5399332642555237,-1.0546032190322876,-3.586949825286865,101.38372802734376,-55.401641845703125,252.8990020751953
1700075873,0.09246826171875,0.952911376953125,-0.641510009765625,0.754938542842865,-0.8502461314201355,-3.276468515396118,101.0669403076172,-54.73036193847656,252.9991912841797
1700075873,0.1558990478515625,1.128570556640625,-0.75653076171875,0.8911906480789185,-0.6910505890846252,-2.756513833999634,100.77751159667967,-54.02537536621094,253.14083862304688
1700075873,0.2100830078125,1.36962890625,-0.8677825927734375,0.9001766443252563,-0.5467206239700317,-2.1843364238739014,100.43902587890624,-53.390045166015625,252.9747314453125
1700075873,0.2960052490234375,1.6147003173828125,-0.988739013671875,0.6928578615188599,-0.4213818609714508,-1.596924066543579,99.86961364746094,-52.12773132324219,252.9586334228516
1700075873,0.3531341552734375,1.9334259033203125,-1.03643798828125,0.3713061809539795,-0.3678395450115204,-1.0803576707839966,99.4597625732422,-51.42491149902344,252.7274932861328
1700075873,0.371063232421875,2.232879638671875,-0.918182373046875,-0.0672309696674346,0.0833814442157745,-0.804858922958374,98.67337036132812,-50.06877136230469,252.76907348632807
1700075873,0.3563995361328125,2.3808746337890625,-1.1666412353515625,0.3768322169780731,0.9831831455230712,-0.5111434459686279,98.52687072753906,-48.90478515625,252.8524932861328
1700075873,0.13714599609375,2.576889038085937,-1.8911590576171875,1.7364367246627808,-0.1148701235651969,0.2340670973062515,97.5725555419922,-47.92779541015625,253.67823791503903
1700075873,0.8965911865234375,2.7326812744140625,-0.7339324951171875,0.1359927207231521,-1.0188032388687134,-0.2560261785984039,96.6750946044922,-46.896575927734375,252.5948944091797
1700075873,2.6603546142578125,1.4306793212890625,0.404388427734375,-0.0633230432868003,-0.6230047345161438,-1.19874370098114,96.12091064453124,-45.75645446777344,253.3948516845703
1700075873,2.15460205078125,-0.0872039794921875,1.1637725830078125,0.4140392541885376,0.1407416760921478,-0.7817541360855103,95.49221801757812,-45.00431823730469,253.46392822265625
1700075873,0.6824493408203125,-0.244293212890625,0.54107666015625,-0.0283829048275947,0.4724181294441223,0.1871858686208725,94.52552795410156,-43.97923278808594,253.8333435058593
1700075873,0.2560577392578125,0.1834869384765625,-1.2281494140625,0.2603010833263397,-0.1035298556089401,0.2056676745414734,93.59951782226562,-43.32154846191406,254.18258666992188
1700075873,1.387115478515625,0.000457763671875,-0.966888427734375,-0.1810840368270874,-0.7192817330360413,0.3149600625038147,92.83041381835938,-42.40081787109375,253.79660034179688
1700075873,1.9651947021484373,0.17950439453125,-0.4504241943359375,-0.6170908808708191,-0.3713200092315674,0.4296562969684601,91.17782592773438,-41.241546630859375,253.2052001953125
1700075873,0.94757080078125,0.3466339111328125,-0.35400390625,-0.2070043087005615,-0.012581305578351,0.1348438411951065,89.62742614746094,-40.46525573730469,251.41053771972656
1700075873,0.698760986328125,0.4285888671875,-0.0001983642578125,0.0035888757556676,0.0553466118872165,-0.1525647789239883,87.56446838378906,-39.72401428222656,250.44873046875
1700075873,0.89337158203125,0.569610595703125,-0.1767730712890625,-0.0686493664979934,0.0771666914224624,-0.3064398169517517,86.47799682617188,-39.81108093261719,249.34323120117188
1700075873,0.9710235595703124,0.4839630126953125,-0.2957611083984375,-0.2141477167606353,0.1073019579052925,-0.3601789474487304,85.17080688476562,-39.739837646484375,248.5614318847656
1700075873,0.9508819580078124,0.2827301025390625,-0.369110107421875,-0.350455492734909,0.0819760933518409,-0.3654722571372986,83.89651489257812,-40.02928161621094,247.5398101806641
1700075873,0.8784942626953125,0.128631591796875,-0.547210693359375,-0.2968418002128601,0.0242392923682928,-0.355726420879364,82.65827941894531,-40.43475341796875,246.38067626953125
1700075873,0.920166015625,0.0303192138671875,-0.5225982666015625,-0.1317947804927826,-0.006484530866146,-0.2860762178897857,81.44769287109375,-41.16044616699219,245.43247985839844
1700075873,0.98358154296875,0.0344390869140625,-0.4465789794921875,-0.0646809935569763,-0.0542840100824832,-0.2278928160667419,80.52890014648438,-41.72479248046875,244.54995727539065
1700075873,1.048675537109375,0.11627197265625,-0.4336700439453125,-0.0498423911631107,-0.1247973293066024,-0.2213252037763595,80.04017639160156,-42.33018493652344,243.78341674804688
1700075873,1.062835693359375,0.196807861328125,-0.445556640625,-0.0649422481656074,-0.2029704302549362,-0.2525345087051391,79.29145812988281,-43.06224060058594,243.32994079589844
1700075873,1.0290985107421875,0.232574462890625,-0.45416259765625,-0.0947938859462738,-0.2885391116142273,-0.3084012567996979,79.40655517578125,-43.7618408203125,242.6698608398437
1700075873,0.9984588623046876,0.22607421875,-0.4530029296875,-0.0810221508145332,-0.3585280478000641,-0.3487798273563385,78.89759826660156,-44.25119018554688,242.38626098632807
1700075873,0.962249755859375,0.193359375,-0.4513092041015625,-0.0368874445557594,-0.4253534376621246,-0.3650067448616028,79.03007507324219,-45.06562805175781,242.4364471435547
1700075873,0.943389892578125,0.16455078125,-0.422637939453125,-0.0052043492905795,-0.4640566110610962,-0.3744271397590637,79.100830078125,-45.8619384765625,241.5154724121093
1700075873,0.9802093505859376,0.136749267578125,-0.38641357421875,0.0410289242863655,-0.4587670564651489,-0.3731932938098907,79.27397155761719,-46.97486877441406,241.42965698242188
1700075873,0.99554443359375,0.131866455078125,-0.3727264404296875,0.074185810983181,-0.4485013484954834,-0.3620322346687317,79.30116271972656,-47.85908508300781,240.8258056640625
1700075873,0.99774169921875,0.145355224609375,-0.3595123291015625,0.1029546111822128,-0.4546998739242553,-0.3675830662250519,79.45481872558594,-49.219635009765625,241.2707061767578
1700075873,1.0047454833984375,0.17041015625,-0.34893798828125,0.1556306034326553,-0.4578815400600433,-0.3744015693664551,80.055908203125,-50.109649658203125,241.3924560546875
1700075873,0.98809814453125,0.2050323486328125,-0.3597412109375,0.1758613139390945,-0.4691693484783172,-0.4243955016136169,80.48701477050781,-51.61344909667969,240.58056640625
1700075873,0.9564056396484376,0.2309417724609375,-0.3612823486328125,0.1498203873634338,-0.4699568450450897,-0.5135623812675476,81.0062255859375,-52.942718505859375,240.83921813964844
1700075873,0.941558837890625,0.2455291748046875,-0.3450927734375,0.1289771497249603,-0.4540511071681976,-0.6010858416557312,81.56105041503906,-54.07914733886719,241.0516662597656
1700075873,0.9311676025390624,0.2495574951171875,-0.331634521484375,0.127693772315979,-0.4541219472885132,-0.6655694842338562,82.17770385742188,-54.97908020019531,241.4529266357422
1700075873,0.92193603515625,0.232147216796875,-0.34149169921875,0.1473553627729416,-0.4623724222183227,-0.69913250207901,82.74215698242188,-56.693145751953125,240.7531890869141
1700075873,0.948394775390625,0.1853790283203125,-0.3571929931640625,0.1774187237024307,-0.4845842719078064,-0.6858524084091187,83.44758605957031,-57.92921447753906,241.63755798339844
1700075873,0.96630859375,0.1313018798828125,-0.3535919189453125,0.1833897978067398,-0.4965157508850097,-0.6505282521247864,84.01467895507812,-58.97023010253906,242.0594024658203
1700075873,0.9532470703125,0.087982177734375,-0.3358917236328125,0.1490685790777206,-0.4908749163150787,-0.6256678700447083,84.40872192382812,-59.93820190429688,242.4105834960937
1700075873,0.9507598876953124,0.050994873046875,-0.307342529296875,0.1392180770635604,-0.4469761550426483,-0.6055706143379211,84.93827819824219,-61.47889709472656,242.7313842773437
1700075873,0.9606170654296876,0.0201568603515625,-0.284271240234375,0.1798496544361114,-0.4089230597019195,-0.559933602809906,85.46669006347656,-62.87254333496094,243.5316619873047
1700075873,0.9578857421875,0.0074310302734375,-0.279998779296875,0.280114471912384,-0.3937481045722961,-0.5144079327583313,86.01492309570312,-63.89862060546875,243.9795684814453
1700075873,0.968780517578125,-0.005157470703125,-0.29107666015625,0.3709399998188019,-0.3810802400112152,-0.4772144854068756,86.64743041992188,-65.25332641601562,245.06336975097656
1700075873,0.95941162109375,0.011474609375,-0.307708740234375,0.402428925037384,-0.3667316734790802,-0.4355562627315521,86.79850769042969,-66.92160034179688,245.5689697265625
1700075873,0.9221038818359376,0.0877838134765625,-0.2750701904296875,0.4402114748954773,-0.3520746827125549,-0.4205940961837768,87.27366638183594,-67.98501586914062,246.1886444091797
1700075873,0.924530029296875,0.1230621337890625,-0.1928863525390625,0.4225999712944031,-0.308466225862503,-0.4233267605304718,87.6204833984375,-68.92469787597656,246.8235778808593
1700075873,0.9567413330078124,0.0863189697265625,-0.1916351318359375,0.3981130123138428,-0.2345621734857559,-0.3490402698516845,87.85525512695312,-70.27806091308594,248.68667602539065
1700075873,0.9806060791015624,1.52587890625e-05,-0.23486328125,0.3475851416587829,-0.2044956237077713,-0.2425362020730972,87.93025207519531,-70.90162658691406,248.65350341796875
1700075873,0.99835205078125,-0.10125732421875,-0.2653961181640625,0.3276934623718261,-0.2210128009319305,-0.1433571577072143,88.15977478027344,-72.36573791503906,249.877182006836
1700075873,1.011810302734375,-0.1629638671875,-0.2670135498046875,0.2698679566383362,-0.2312561273574829,-0.0366754569113254,88.44488525390625,-72.834716796875,250.0484161376953
1700075873,0.9819183349609376,-0.1862945556640625,-0.2843475341796875,0.224282905459404,-0.2115689665079116,0.0791994780302047,88.03657531738281,-73.69036865234375,250.73001098632807
1700075873,0.920989990234375,-0.18994140625,-0.26995849609375,0.1094394102692604,-0.2022002339363098,0.2158167213201522,87.95042419433594,-74.17620849609375,251.5634307861328
1700075873,0.9186859130859376,-0.15106201171875,-0.24212646484375,0.1031442284584045,-0.1486209034919738,0.3483017981052398,87.71485900878906,-74.97293090820312,252.0084228515625
1700075873,0.9553680419921876,-0.0998687744140625,-0.2685394287109375,0.3326644897460937,-0.1381725221872329,0.4009468853473663,87.67195129394531,-75.23562622070312,252.0638122558593
1700075873,1.02911376953125,-0.0275421142578125,-0.2561798095703125,0.5103625655174255,-0.2074429392814636,0.4397358298301697,87.72322082519531,-75.57875061035156,252.5982208251953
1700075873,1.13336181640625,0.101531982421875,-0.127532958984375,0.4926413893699646,-0.2265934646129608,0.5119418501853943,87.31138610839844,-75.77590942382812,253.00753784179688
1700075873,1.158172607421875,0.172698974609375,-0.029388427734375,0.3803755640983581,-0.1106274425983429,0.5241540670394897,87.42129516601562,-75.83914184570312,254.03309631347656
1700075873,1.166534423828125,0.0652313232421875,-0.09405517578125,0.2644124925136566,-0.0898883417248725,0.6117701530456543,87.346923828125,-76.16705322265625,253.570053100586
1700075873,1.1798858642578125,-0.0579376220703125,-0.1683807373046875,0.140181079506874,-0.1598530411720276,0.753450334072113,87.32475280761719,-75.888671875,253.05905151367188
1700075873,1.2536163330078125,-0.1511383056640625,-0.1614990234375,0.09554223716259,-0.1405128985643386,0.8903003334999084,86.931884765625,-75.68997192382812,254.0342712402344
1700075873,1.3038787841796875,-0.205169677734375,-0.191741943359375,0.111818678677082,-0.1529381424188614,0.950771689414978,87.22409057617188,-75.47708129882812,253.7440643310547
1700075873,1.38232421875,-0.219879150390625,-0.1942596435546875,0.1984473168849945,-0.2098749428987503,1.0156995058059692,86.73445129394531,-74.93365478515625,253.32037353515625
1700075873,1.4840850830078125,-0.18572998046875,-0.159332275390625,0.3237756788730621,-0.2871092557907104,1.090640902519226,86.98088073730469,-74.89901733398438,253.76109313964844
1700075873,1.5888519287109375,-0.1650390625,-0.0968170166015625,0.463845431804657,-0.357030302286148,1.1412220001220703,86.85423278808594,-74.86749267578125,253.48048400878903
1700075873,1.6573333740234375,-0.1901092529296875,0.0050811767578125,0.5769296288490295,-0.3344227373600006,1.1655361652374268,86.94546508789062,-74.26400756835938,254.2257537841797
1700075873,1.6529541015625,-0.2500152587890625,0.0928802490234375,0.6352089047431946,-0.3294045329093933,1.2118070125579834,87.20045471191406,-74.51023864746094,254.1661376953125
1700075873,1.6192626953125,-0.34210205078125,0.2237548828125,0.579350471496582,-0.255936712026596,1.2519224882125854,87.17649841308594,-74.14518737792969,254.4413452148437
1700075873,1.5661163330078125,-0.49407958984375,0.249176025390625,0.3597509860992431,-0.1586852520704269,1.2820316553115845,87.32157897949219,-73.64598083496094,254.33331298828125
1700075873,1.482147216796875,-0.63714599609375,0.1865081787109375,0.0622343458235263,-0.0175017621368169,1.314297437667847,87.087646484375,-73.22613525390625,254.2689208984375
1700075873,1.4186553955078125,-0.7323760986328125,0.0640106201171875,-0.3859636783599853,0.3666773438453674,1.4974185228347778,87.07333374023438,-72.86810302734375,254.3582000732422
1700075874,1.3279266357421875,-0.6103057861328125,-0.3224334716796875,-1.1235778331756592,0.9394931793212892,1.961782932281494,86.57441711425781,-72.54669189453125,253.8833770751953
1700075874,1.140655517578125,-0.31158447265625,-0.8818206787109375,-1.805328130722046,1.147417068481445,2.4285600185394287,86.65090942382812,-72.08502197265625,253.6590270996093
1700075874,1.13140869140625,-0.1621856689453125,-1.2872772216796875,-1.8815523386001587,1.0461030006408691,2.504788637161255,86.94561767578125,-72.02818298339844,254.05079650878903
1700075874,1.4108123779296875,-0.171844482421875,-1.5258941650390625,-1.4510419368743896,1.0560389757156372,2.585608959197998,87.13890075683594,-71.64234924316406,254.4478912353516
1700075874,1.4970245361328125,-0.0001373291015625,-1.373199462890625,-0.6666171550750732,1.226085543632507,3.1691930294036865,86.85942077636719,-71.75332641601562,254.3397979736328
1700075874,1.31085205078125,0.4577484130859375,-0.985443115234375,0.4486329257488251,1.4188411235809326,3.983882188796997,86.88203430175781,-71.89955139160156,254.3162841796875
1700075874,1.25567626953125,0.8488616943359375,-0.85693359375,1.049264430999756,1.1984251737594604,4.607780933380127,86.78511047363281,-72.17654418945312,254.9802703857422
1700075874,1.42608642578125,1.20587158203125,-0.876861572265625,0.5370980501174927,0.7573010325431824,4.7874908447265625,87.11100769042969,-71.80926513671875,254.52163696289065
1700075874,1.7940216064453125,1.620697021484375,-0.9692535400390624,-0.6718902587890625,0.8214802742004395,3.981431007385254,86.87966918945312,-72.01519775390625,254.538818359375
1700075874,2.25115966796875,1.761566162109375,-0.7436370849609375,-0.1732106655836105,1.5131988525390625,2.801190137863159,87.00100708007812,-71.95484924316406,254.2937469482422
1700075874,2.2164459228515625,1.22467041015625,-0.0811004638671875,1.1219674348831177,2.0078957080841064,2.26003360748291,86.64533996582031,-71.65060424804688,253.98245239257807
1700075874,1.745269775390625,0.7546539306640625,-0.1056976318359375,1.208989143371582,1.9837199449539185,2.15162992477417,86.58135986328125,-71.796630859375,253.8284149169922
1700075874,1.484100341796875,0.6846466064453125,-0.5145111083984375,0.7610874772071838,1.625486135482788,2.080362319946289,86.55259704589844,-71.77273559570312,253.4358825683593
1700075874,1.487518310546875,0.450897216796875,-0.5638427734375,0.199721097946167,1.306307673454285,1.8414006233215328,86.25491333007812,-71.78961181640625,253.9755859375
1700075874,1.543701171875,0.1425628662109375,-0.5298919677734375,-0.3225854933261871,1.0703489780426023,1.4977833032608032,86.39353942871094,-71.99710083007812,253.52996826171875
1700075874,1.459320068359375,-0.0882110595703125,-0.4287109375,-0.7250266671180725,0.9177442193031312,1.2211432456970217,86.33734130859375,-72.32275390625,253.49099731445312
1700075874,1.161468505859375,-0.2326507568359375,-0.33380126953125,-0.9097206592559814,0.8010644912719727,1.0430587530136108,86.04043579101562,-71.95846557617188,253.0814666748047
1700075874,0.790069580078125,-0.3238983154296875,-0.2247467041015625,-0.9308695793151855,0.7016489505767822,0.8799350261688232,86.38035583496094,-72.39289855957031,253.57290649414065
1700075874,0.5028839111328125,-0.4127960205078125,-0.1195068359375,-0.781024158000946,0.5695143342018127,0.6127470135688782,86.34466552734375,-72.52926635742188,253.3046112060547
1700075874,0.2863616943359375,-0.4779205322265625,-0.013214111328125,-0.6140133738517761,0.3815449476242065,0.3222033381462097,86.38185119628906,-72.32919311523438,253.78024291992188
1700075874,0.1446380615234375,-0.4997100830078125,0.0744476318359375,-0.4767897129058838,0.2728294134140014,0.0098523646593093,86.44725036621094,-72.5169677734375,253.4358367919922
1700075874,0.1048431396484375,-0.4717864990234375,0.1165771484375,-0.5061140656471252,0.1083027720451355,-0.3473321199417114,86.56962585449219,-72.11886596679688,253.21115112304688
1700075874,0.1139373779296875,-0.3045654296875,0.1220855712890625,-0.6026240587234497,-0.1273808628320694,-0.7609016299247742,86.17266845703125,-72.36349487304688,253.38201904296875
1700075874,0.1234130859375,-0.17486572265625,0.1195526123046875,-0.6774114966392517,-0.3109474778175354,-1.1723599433898926,86.67518615722656,-72.35379028320312,253.60752868652344
1700075874,0.078338623046875,-0.1792144775390625,0.1247100830078125,-0.7543102502822876,-0.4100037813186645,-1.5386991500854492,86.46377563476562,-72.75788879394531,253.4344940185547
1700075874,0.001190185546875,-0.2816162109375,0.1373138427734375,-0.8952324986457825,-0.5381401777267456,-1.818575739860535,86.2010498046875,-72.60276794433594,253.2839508056641
1700075874,-0.0545654296875,-0.3600616455078125,0.1273040771484375,-1.0448100566864014,-0.6438479423522949,-2.010586977005005,86.458740234375,-72.75938415527344,253.537841796875
1700075874,-0.125152587890625,-0.33404541015625,0.0830078125,-1.283556342124939,-0.7275449633598328,-2.252991437911988,86.52334594726562,-73.21670532226562,253.423828125
1700075874,-0.12664794921875,-0.25970458984375,0.0346221923828125,-1.5122448205947876,-0.8364882469177246,-2.503015518188477,86.61671447753906,-73.21665954589844,253.70025634765625
1700075874,-0.1131439208984375,-0.2133026123046875,0.069915771484375,-1.6883519887924194,-0.985597550868988,-2.630090475082397,86.50616455078125,-73.49176025390625,253.33477783203125
1700075874,-0.115203857421875,-0.1313018798828125,0.076568603515625,-1.7768785953521729,-1.1608895063400269,-2.76990008354187,86.88009643554688,-73.19955444335938,252.9390563964844
1700075874,-0.09765625,0.0108642578125,-0.05169677734375,-1.692660927772522,-1.3172775506973269,-2.938944101333618,86.50199890136719,-73.22334289550781,253.3959197998047
1700075874,-0.0786590576171875,0.179718017578125,-0.1283111572265625,-1.3007546663284302,-1.3382205963134766,-3.000967025756836,86.64646911621094,-73.67367553710938,252.7347869873047
1700075874,-0.032379150390625,0.36248779296875,-0.0809478759765625,-0.7765724658966064,-1.2920384407043457,-3.037129640579224,86.65141296386719,-73.78071594238281,253.4334716796875
1700075874,0.00848388671875,0.563720703125,-0.11981201171875,-0.2052551507949829,-1.3085354566574097,-3.0280096530914307,86.71383666992188,-73.59739685058594,252.68115234375
1700075874,0.064117431640625,0.830230712890625,-0.2792205810546875,0.492944985628128,-1.244187593460083,-2.9922468662261963,86.83456420898438,-73.79328918457031,252.6514434814453
1700075874,0.108612060546875,1.02606201171875,-0.412689208984375,0.9222015738487244,-1.132405161857605,-2.795658826828003,86.69065856933594,-73.72621154785156,253.41354370117188
1700075874,0.1087188720703125,1.24261474609375,-0.5409393310546875,1.0613162517547607,-1.017569661140442,-2.479062080383301,86.65605163574219,-73.65995788574219,253.10842895507807
1700075874,0.132232666015625,1.392578125,-0.6563568115234375,1.149231195449829,-0.9485149383544922,-2.0732595920562744,86.91213989257812,-73.67781066894531,253.153076171875
1700075874,0.1734771728515625,1.458282470703125,-0.7447662353515625,1.264449954032898,-0.821440577507019,-1.685871720314026,87.00184631347656,-74.07220458984375,253.46533203125
1700075874,0.2187347412109375,1.4821319580078125,-0.8719940185546875,1.1056872606277466,-0.6682068109512329,-1.1550114154815674,87.10406494140625,-73.70051574707031,252.7095947265625
1700075874,0.162139892578125,1.6961669921875,-0.9728240966796876,0.685301661491394,-0.6110156774520874,-0.6742681860923767,86.99052429199219,-73.95768737792969,253.11363220214844
1700075874,0.1305999755859375,1.9350128173828125,-0.9494171142578124,0.3119445741176605,-0.4987109899520874,-0.455961674451828,87.10687255859375,-74.02200317382812,253.13229370117188
1700075874,0.16961669921875,1.9947052001953125,-0.9405364990234376,0.1193431690335273,0.7016377449035645,-0.3997428715229034,87.18403625488281,-73.83050537109375,253.756103515625
1700075874,0.0477294921875,2.0443878173828125,-1.95794677734375,0.6740103960037231,1.0180071592330933,0.0502687618136405,86.95512390136719,-73.64508056640625,253.4307556152344
1700075874,0.33355712890625,2.1923065185546875,-2.111679077148437,0.2545337378978729,-0.4772717654705047,-0.2272720336914062,87.08338928222656,-73.75039672851562,253.3441162109375
1700075874,2.5347442626953125,0.9839019775390624,-0.3900604248046875,-0.4555099904537201,-1.2286120653152466,-1.4911949634552002,87.07220458984375,-73.5634765625,253.10467529296875
1700075874,3.15185546875,-0.3695831298828125,0.276702880859375,-0.409782737493515,-0.4890365302562713,-0.979770839214325,87.20468139648438,-73.27738952636719,253.1095733642578
1700075874,1.36639404296875,-0.6748504638671875,0.809967041015625,0.0719833821058273,0.3538603484630584,0.4655250906944275,87.02619934082031,-72.97172546386719,253.2655029296875
1700075874,0.2299346923828125,-0.4056396484375,-0.1013031005859375,0.7344473600387573,0.2707500159740448,1.075708508491516,87.27656555175781,-72.85833740234375,253.3222045898437
1700075874,0.7098846435546875,0.06842041015625,-0.8753814697265625,0.2305993884801864,-0.7598882913589478,0.9675368070602416,87.11026000976562,-72.39643859863281,253.60787963867188
1700075874,1.892608642578125,0.4532318115234375,-0.204803466796875,-0.9629647135734558,-0.3211894631385803,0.7314448952674866,87.07821655273438,-72.14544677734375,253.3203887939453
1700075874,1.4412078857421875,0.8600921630859375,-0.382049560546875,-0.4849275350570678,-0.0268910024315118,0.2383555769920349,87.17332458496094,-71.60789489746094,253.07774353027344
