timestamp,acc-x,acc-y,acc-z,gyr-x,gyr-y,gyr-z,mag-x,mag-y,mag-z
1700075707,1.0366363525390625,0.1772613525390625,-0.1985626220703125,-0.0351651795208454,0.2793829143047333,0.8840411305427551,80.31266784667969,-53.218109130859375,256.10809326171875
1700075707,1.0322265625,0.28582763671875,-0.13623046875,0.172524094581604,0.3131395280361175,0.8092070817947388,79.43223571777344,-52.87887573242188,255.27395629882807
1700075707,1.0096893310546875,0.254669189453125,-0.1416015625,0.2853585183620453,0.288856029510498,0.7975831627845764,78.58843994140625,-52.46870422363281,254.3570098876953
1700075707,0.9962310791015624,0.132598876953125,-0.1872406005859375,0.2410275340080261,0.2813808023929596,0.8505561351776123,77.97544860839844,-51.95939636230469,253.3360290527344
1700075707,0.981964111328125,-0.0254058837890625,-0.183807373046875,0.1005708128213882,0.3176684975624084,0.9242796301841736,77.16925048828125,-51.21646118164063,252.6059417724609
1700075707,0.9651031494140624,-0.136627197265625,-0.198272705078125,-0.024836640805006,0.3232486248016357,1.0228877067565918,76.64979553222656,-50.7059326171875,251.9746856689453
1700075707,0.9650115966796876,-0.1493682861328125,-0.231658935546875,-0.0150716276839375,0.3057228922843933,1.1273627281188965,75.88925170898438,-50.01536560058594,251.25352478027344
1700075707,1.001220703125,-0.079193115234375,-0.2317352294921875,0.0029827402904629,0.2891521751880646,1.1538883447647097,75.22744750976562,-48.850616455078125,250.95936584472656
1700075707,1.06988525390625,0.053375244140625,-0.2164306640625,0.0807150825858116,0.2603916525840759,1.1535931825637815,74.76374816894531,-48.08570861816406,250.1346893310547
1700075707,1.1083831787109375,0.1621856689453125,-0.1700592041015625,0.1615364253520965,0.2531521022319793,1.1389235258102417,74.16023254394531,-47.01966857910156,249.29640197753903
1700075707,1.1382904052734375,0.1749420166015625,-0.100616455078125,0.1429006904363632,0.2760145366191864,1.1742801666259766,73.68925476074219,-46.16447448730469,248.67623901367188
1700075707,1.1075286865234375,0.1705474853515625,-0.0983428955078125,0.1447486579418182,0.2696298658847809,1.2247430086135864,73.43893432617188,-45.04896545410156,248.4721221923828
1700075707,1.129364013671875,0.14556884765625,-0.1271514892578125,0.1027524769306182,0.2205089330673217,1.2858266830444336,73.29257202148438,-44.35783386230469,247.96603393554688
1700075707,1.18035888671875,0.1208953857421875,-0.1372833251953125,0.0854635015130043,0.1971556842327118,1.3541563749313354,73.26339721679688,-43.47309875488281,247.5658569335937
1700075707,1.1984710693359375,0.0872650146484375,-0.1416168212890625,0.1509269326925277,0.1696960926055908,1.4034472703933716,73.24606323242188,-42.80043029785156,247.6466217041016
1700075707,1.2270050048828125,0.0607757568359375,-0.181915283203125,0.1897283941507339,0.1119758039712905,1.4347032308578491,73.71098327636719,-42.24899291992188,246.37782287597656
1700075707,1.292572021484375,0.0370330810546875,-0.1784820556640625,0.3646570444107055,0.0932282134890556,1.4513652324676514,74.20599365234375,-41.8359375,246.1236267089844
1700075707,1.3627471923828125,0.0139312744140625,-0.1721954345703125,0.4505272209644317,0.0037790255155414,1.499433159828186,74.60911560058594,-41.47845458984375,245.5062255859375
1700075707,1.4642333984375,0.0321502685546875,-0.1391754150390625,0.4226436614990234,-0.06305992603302,1.5712019205093384,75.36935424804688,-41.280792236328125,244.80555725097656
1700075707,1.5736541748046875,-0.0259857177734375,0.0059967041015625,0.2965938448905945,-0.0901408120989799,1.690112829208374,75.9268798828125,-41.07925415039063,244.50489807128903
1700075707,1.6151123046875,-0.1013641357421875,0.101776123046875,0.0657340064644813,-0.1134874150156974,1.7838574647903442,77.1029052734375,-40.80709838867188,243.8556060791016
1700075707,1.6641693115234375,-0.1956329345703125,0.1230621337890625,-0.0752137973904609,-0.1427180022001266,1.8274915218353271,78.3936767578125,-41.11880493164063,244.3578948974609
1700075707,1.733673095703125,-0.3105316162109375,0.122467041015625,-0.0737969949841499,-0.2293754070997238,1.8719974756240845,79.45370483398438,-40.84828186035156,243.96646118164065
1700075707,1.8206634521484373,-0.4074859619140625,0.177154541015625,0.0542581789195537,-0.2741170525550842,1.8140169382095337,81.14251708984375,-40.75558471679688,244.2269287109375
1700075707,1.8954925537109373,-0.5592041015625,0.2262115478515625,0.2669347524642944,-0.2829102575778961,1.6882984638214111,82.39421081542969,-41.42973327636719,244.3944549560547
1700075707,1.874237060546875,-0.7457275390625,0.253509521484375,0.3910718858242035,-0.2179091572761535,1.5980854034423828,84.13636779785156,-41.312744140625,244.2155303955078
1700075707,1.777618408203125,-0.8596649169921875,0.131805419921875,0.1833969950675964,-0.0367140732705593,1.6477891206741333,85.9051513671875,-41.84135437011719,244.54493713378903
1700075707,1.5887603759765625,-0.8106536865234375,-0.2660369873046875,-0.2249739915132522,0.1880705654621124,2.007150173187256,87.91531372070312,-42.08697509765625,245.3204498291016
1700075707,1.34820556640625,-0.5058135986328125,-0.8147125244140625,-0.6632349491119385,0.2266949266195297,2.657819986343384,89.78976440429688,-42.87788391113281,245.60208129882807
1700075707,1.2328948974609375,-0.076904296875,-1.247772216796875,-1.5223912000656128,0.4371048808097839,3.07560396194458,91.64088439941406,-43.50337219238281,246.50694274902344
1700075707,1.3656463623046875,0.0378875732421875,-1.727264404296875,-2.389495611190796,0.3977039456367492,3.040443420410156,93.50149536132812,-44.2581787109375,246.8196563720703
1700075707,1.5244140625,-0.0219573974609375,-1.4596405029296875,-3.043311357498169,0.3616668581962585,3.140761375427246,95.72071838378906,-45.314208984375,247.5625
1700075707,1.3601226806640625,0.163116455078125,-1.041259765625,-2.92818284034729,0.5697726607322693,3.358802556991577,97.33024597167967,-46.571075439453125,248.18069458007807
1700075707,1.1596832275390625,0.357391357421875,-0.9558868408203124,-2.5269970893859863,0.560225248336792,3.441971778869629,99.355224609375,-47.72663879394531,248.9944000244141
1700075707,1.1591339111328125,0.498260498046875,-0.794921875,-2.3358163833618164,0.3934671282768249,3.474501132965088,101.06838989257812,-48.87565612792969,249.69435119628903
1700075707,1.2278594970703125,0.7470550537109375,-0.587615966796875,-2.136756420135498,0.5035073757171631,3.486122131347656,102.88314819335938,-50.49908447265625,251.0993194580078
1700075707,1.370849609375,1.0593719482421875,-0.494964599609375,-1.8872133493423464,0.5174804329872131,3.026761054992676,104.72111511230467,-51.87959289550781,251.59622192382807
1700075707,1.60595703125,1.0847625732421875,-0.305877685546875,-1.1914918422698977,0.4826446771621704,2.274381399154663,106.29045104980467,-53.35002136230469,252.5724639892578
1700075707,1.70867919921875,0.769805908203125,-0.1692657470703125,-0.242992416024208,0.550513505935669,1.847612977027893,107.99325561523438,-54.90960693359375,253.20144653320312
1700075707,1.4152374267578125,0.4719085693359375,-0.3505096435546875,0.2383467853069305,0.5247918963432312,1.823619246482849,109.0481414794922,-56.75440979003906,254.28713989257807
1700075707,1.1292724609375,0.425537109375,-0.609283447265625,0.2465898096561432,0.4292421638965606,1.8762859106063845,110.96412658691406,-58.3031005859375,255.1102905273437
1700075707,1.013092041015625,0.3628387451171875,-0.7644805908203125,-0.0525609441101551,0.3200342059135437,1.806669235229492,111.99720764160156,-59.9722900390625,255.79054260253903
1700075707,0.998199462890625,0.284454345703125,-0.8294525146484375,-0.5144012570381165,0.2184796035289764,1.5242173671722412,113.00753784179688,-61.47880554199219,256.7313842773437
1700075707,1.0465240478515625,0.1988372802734375,-0.7750091552734375,-0.8628000020980835,0.1240308657288551,1.1844401359558103,113.8568878173828,-62.75129699707031,257.5687866210937
1700075707,0.98828125,0.1470794677734375,-0.6475372314453125,-1.1631265878677368,0.0563269220292568,0.9216084480285645,114.512451171875,-64.33955383300781,258.57525634765625
1700075707,0.8428497314453125,0.1826324462890625,-0.5751953125,-1.4075956344604492,-0.0431144461035728,0.6758854985237122,115.22389221191406,-65.52517700195312,259.4826965332031
1700075707,0.66400146484375,0.21337890625,-0.44818115234375,-1.5868240594863892,-0.1448413431644439,0.3545178771018982,115.51252746582033,-66.14372253417969,260.543701171875
1700075707,0.522125244140625,0.1620330810546875,-0.357086181640625,-1.715079426765442,-0.2432312965393066,0.060205016285181,116.35061645507812,-67.45774841308594,260.6077575683594
1700075707,0.3541107177734375,0.0850372314453125,-0.32305908203125,-1.818182349205017,-0.3126255571842193,-0.1470885127782821,116.4678192138672,-67.89889526367188,261.51336669921875
1700075707,0.2085113525390625,0.02545166015625,-0.2980194091796875,-1.9100185632705688,-0.4211123585700989,-0.3140814900398254,116.90097045898438,-68.22441101074219,262.0701904296875
1700075707,0.1580657958984375,0.005859375,-0.2620391845703125,-2.04797101020813,-0.5744414329528809,-0.5155965089797974,117.4578094482422,-68.71806335449219,263.15789794921875
1700075707,0.1822357177734375,0.021148681640625,-0.2534027099609375,-2.175057888031006,-0.7448901534080505,-0.7912927865982056,117.55252075195312,-68.57289123535156,263.0222473144531
1700075707,0.2126922607421875,0.0245819091796875,-0.2226715087890625,-2.256648540496826,-0.8827654719352722,-1.113500952720642,117.95108032226562,-68.08145141601562,263.49627685546875
1700075707,0.199737548828125,0.0025634765625,-0.1788330078125,-2.224776268005371,-1.0199882984161377,-1.3983588218688965,118.01417541503906,-67.55189514160156,263.521240234375
1700075707,0.1522064208984375,-0.0253448486328125,-0.12738037109375,-2.130946159362793,-1.1940948963165283,-1.5951924324035645,118.3166046142578,-66.85215759277344,262.430419921875
1700075707,0.0873870849609375,-0.0111236572265625,-0.1048431396484375,-1.9575845003128047,-1.3352676630020142,-1.8053427934646609,118.22483825683594,-66.0340576171875,262.7751770019531
1700075707,0.0737457275390625,-0.0235443115234375,-0.111236572265625,-1.8196903467178345,-1.4855035543441772,-2.093749046325684,118.31446838378906,-65.89572143554688,263.64990234375
1700075707,0.0933837890625,-0.04620361328125,-0.123565673828125,-1.7119377851486206,-1.601488709449768,-2.365617513656616,118.2790069580078,-65.50360107421875,263.8484802246094
1700075707,0.089141845703125,-0.0344696044921875,-0.14703369140625,-1.6612695455551147,-1.7208316326141355,-2.5935211181640625,117.38607788085938,-64.60868835449219,263.50732421875
1700075707,0.08233642578125,0.012359619140625,-0.16650390625,-1.6888489723205566,-1.8122334480285645,-2.7781965732574463,117.71548461914062,-64.16001892089844,264.0956420898437
1700075707,0.0674285888671875,0.0146331787109375,-0.1848297119140625,-1.8021365404129028,-1.8755106925964355,-2.920132637023926,117.98658752441406,-63.75648498535156,263.9532470703125
1700075707,0.072479248046875,0.017242431640625,-0.19189453125,-2.0157387256622314,-1.9322210550308228,-2.9451982975006104,118.14794921875,-63.35682678222656,263.99176025390625
1700075707,0.0882568359375,0.0987701416015625,-0.205230712890625,-2.1926064491271973,-2.0086429119110107,-2.942577600479126,118.25125122070312,-62.91947937011719,263.76324462890625
1700075707,0.1428375244140625,0.2518157958984375,-0.2896881103515625,-2.141172409057617,-2.149099588394165,-2.928617477416992,118.00372314453124,-62.20307922363281,263.70489501953125
1700075707,0.186737060546875,0.4312896728515625,-0.355560302734375,-1.881242036819458,-2.1882688999176025,-2.887510299682617,117.9615478515625,-61.55503845214844,264.3955078125
1700075707,0.1974029541015625,0.544830322265625,-0.4446563720703125,-1.5631849765777588,-2.162247896194458,-2.742937564849853,117.84283447265624,-61.24188232421875,264.05340576171875
1700075707,0.2118072509765625,0.6660919189453125,-0.574951171875,-1.163426160812378,-2.0657312870025635,-2.489224910736084,118.10076904296876,-61.18446350097656,264.20709228515625
1700075707,0.261688232421875,0.8139495849609375,-0.7835235595703125,-0.7543065547943115,-1.893409013748169,-2.1580817699432373,117.71900939941406,-61.066802978515625,264.26287841796875
1700075707,0.2976837158203125,1.030609130859375,-1.0387725830078125,-0.4008715152740478,-1.6631065607070925,-1.870932698249817,117.56631469726562,-61.10444641113281,264.205078125
1700075707,0.3362579345703125,1.246185302734375,-1.26177978515625,-0.1538004875183105,-1.3550349473953247,-1.687962293624878,117.76231384277344,-60.596923828125,264.1608581542969
1700075707,0.3503875732421875,1.4124908447265625,-1.4080657958984375,0.068037636578083,-1.0153567790985107,-1.4209799766540527,117.7432861328125,-60.27439880371094,263.52227783203125
1700075707,0.2731781005859375,1.69329833984375,-1.4922332763671875,0.0602894388139247,-0.8086196184158325,-0.9956291317939758,117.32183837890624,-60.05706787109375,263.8247985839844
1700075707,0.246917724609375,2.0287017822265625,-1.3706512451171875,-0.0532640218734741,-0.5280502438545227,-0.544620156288147,117.42398071289062,-59.88815307617188,263.5775451660156
1700075707,0.2706298828125,2.1341552734375,-1.21697998046875,0.184718444943428,-0.1465233862400055,-0.2464483976364135,117.78707885742188,-59.787353515625,264.2691650390625
1700075707,0.2603759765625,1.9766845703125,-1.1496429443359375,0.4519791901111603,0.1268615424633026,0.011217501014471,117.66773986816406,-59.745513916015625,263.4403076171875
1700075707,0.246673583984375,1.7509765625,-1.103118896484375,0.2219723463058471,0.6867112517356873,0.0587967373430728,117.56336975097656,-59.64126586914063,263.8442077636719
1700075707,0.2523956298828125,1.386932373046875,-1.433837890625,0.5911219120025635,0.4716788530349731,0.381693035364151,117.59217834472656,-59.93199157714844,263.68585205078125
1700075707,0.3266448974609375,1.2192535400390625,-1.0768890380859375,0.752864420413971,-0.5116028189659119,0.5912678241729736,117.99888610839844,-59.79145812988281,263.623046875
1700075707,1.44537353515625,0.8582611083984375,0.14483642578125,0.3764737844467163,-0.4138389825820923,-0.1117726042866706,117.8641357421875,-59.62184143066406,264.2730712890625
1700075707,2.295623779296875,-0.0291595458984375,0.3934173583984375,0.36839559674263,-0.003957191016525,0.111811488866806,117.53543090820312,-59.768157958984375,263.3831481933594
1700075707,1.7794647216796875,-0.0344696044921875,0.1295013427734375,0.1072944998741149,0.1946227401494979,0.985518217086792,117.39634704589844,-59.272552490234375,264.2225341796875
1700075707,1.114654541015625,0.3628082275390625,-0.6573638916015625,0.1776994168758392,-0.1900921761989593,1.282517433166504,117.1944580078125,-59.80299377441406,263.45098876953125
1700075707,1.0782318115234375,0.38116455078125,-0.62847900390625,-0.4758530855178833,-0.3622700572013855,0.9584873914718628,117.15423583984376,-59.53596496582031,263.41021728515625
1700075707,1.173858642578125,0.3918914794921875,-0.11456298828125,-0.7176896929740906,0.2129040211439132,0.6032608151435852,117.53440856933594,-59.73321533203125,264.113037109375
1700075707,0.626678466796875,0.501953125,0.0709228515625,-0.1503085494041443,0.2542628943920135,0.3687189221382141,117.21597290039062,-59.40020751953125,263.9432983398437
1700075707,0.416961669921875,0.5709686279296875,-0.226470947265625,0.0059641492553055,0.094615988433361,0.2190191596746444,117.36260986328124,-59.69117736816406,264.432373046875
1700075707,0.649993896484375,0.623443603515625,-0.3594970703125,-0.0757083445787429,0.149545282125473,0.0019068233668804,117.27952575683594,-59.70484924316406,264.59619140625
1700075707,0.88116455078125,0.5432891845703125,-0.319793701171875,-0.1738855093717575,0.2083532065153122,-0.2486678659915924,117.65940856933594,-59.87657165527344,264.6866149902344
1700075707,1.1689910888671875,0.30419921875,-0.2564239501953125,-0.2819336950778961,0.2589862942695617,-0.2963102161884308,117.68881225585938,-59.94061279296875,264.6840515136719
1700075707,1.3641815185546875,0.1464691162109375,-0.3173828125,-0.2807001173496246,0.2104493826627731,-0.2412890493869781,117.48974609375,-59.71388244628906,265.4350891113281
1700075707,1.4691314697265625,0.0330963134765625,-0.34454345703125,-0.2470531910657882,0.2175738662481308,-0.1011995896697044,117.21136474609376,-59.82438659667969,265.1283874511719
1700075707,1.30450439453125,-0.0849761962890625,-0.3962249755859375,-0.1490576565265655,0.2182873338460922,0.0073471288196742,117.41567993164062,-60.09339904785156,265.168212890625
1700075707,1.0861053466796875,-0.0901031494140625,-0.3979644775390625,-0.0830389633774757,0.1608716994524002,0.0501326769590377,117.6575164794922,-60.3365478515625,265.36981201171875
1700075707,1.0762176513671875,0.108428955078125,-0.3845977783203125,-0.1210497245192527,0.109190933406353,-0.0005408879951573,117.22906494140624,-59.91661071777344,265.52703857421875
1700075708,1.0421905517578125,0.242034912109375,-0.3423004150390625,-0.1214175075292587,0.1017668396234512,-0.1059735715389251,117.2272491455078,-60.038604736328125,265.5244140625
1700075708,0.9715423583984376,0.308868408203125,-0.2993927001953125,-0.0628146454691886,0.1007162258028984,-0.2462758272886276,117.3895263671875,-59.97378540039063,265.9506530761719
1700075708,0.962677001953125,0.2990570068359375,-0.321868896484375,0.0187859386205673,0.0700070485472679,-0.3570180535316467,117.16287231445312,-59.94175720214844,266.07977294921875
1700075708,0.969818115234375,0.24908447265625,-0.3598785400390625,0.081806980073452,0.0088856369256973,-0.3896231353282928,117.20716857910156,-60.01690673828125,265.9446105957031
1700075708,0.9581451416015624,0.190643310546875,-0.3689727783203125,0.105055846273899,-0.0504959300160408,-0.3630120158195495,117.31732177734376,-60.00213623046875,266.4764404296875
1700075708,0.89959716796875,0.147430419921875,-0.3972930908203125,0.0748801007866859,-0.1174283623695373,-0.3330977857112884,117.44113159179688,-59.87193298339844,266.1145324707031
1700075708,0.8829498291015625,0.1152801513671875,-0.40277099609375,0.0326237231492996,-0.1676686257123947,-0.3235402405261993,117.29475402832033,-60.17279052734375,265.9741516113281
1700075708,0.90869140625,0.10687255859375,-0.399688720703125,0.0008314388687722,-0.2060495764017105,-0.3011611700057983,117.49722290039062,-60.235382080078125,266.3519287109375
1700075708,0.9356536865234376,0.131744384765625,-0.3692626953125,-0.0466697663068771,-0.2428025305271148,-0.2916403710842132,117.3599853515625,-59.98883056640625,266.8607177734375
1700075708,0.98687744140625,0.1558074951171875,-0.3271942138671875,-0.0739551857113838,-0.253405898809433,-0.3066733777523041,117.45675659179688,-60.1400146484375,266.775634765625
1700075708,1.0155792236328125,0.168487548828125,-0.33612060546875,-0.0415365248918533,-0.2706639766693115,-0.3361178338527679,117.46754455566406,-59.79904174804688,266.3479309082031
1700075708,1.0168914794921875,0.168914794921875,-0.33734130859375,0.045791458338499,-0.2883953154087066,-0.3620599508285522,117.54661560058594,-59.73907470703125,266.9112548828125
1700075708,0.9821014404296876,0.17919921875,-0.3271484375,0.1020374149084091,-0.2932132482528686,-0.3841330111026764,117.60818481445312,-59.923248291015625,266.7225341796875
1700075708,0.930908203125,0.1883697509765625,-0.3047332763671875,0.1000277996063232,-0.290533572435379,-0.4090223908424377,117.26324462890624,-59.27192687988281,266.4646911621094
1700075708,0.8968505859375,0.194488525390625,-0.2776947021484375,0.0479086712002754,-0.287660002708435,-0.4470004141330719,117.43914794921876,-59.1807861328125,266.6479797363281
1700075708,0.9178924560546876,0.166473388671875,-0.27252197265625,-0.0258648861199617,-0.2700749039649963,-0.4603279232978821,117.32546997070312,-58.64190673828125,266.947021484375
1700075708,0.9627838134765624,0.12335205078125,-0.302032470703125,-0.1003785356879234,-0.2646654844284057,-0.4433593153953552,117.11766052246094,-58.39823913574219,266.65234375
1700075708,0.979217529296875,0.1021728515625,-0.3238372802734375,-0.1365479975938797,-0.2741647064685821,-0.4190745055675506,117.40853881835938,-58.01658630371094,267.27557373046875
1700075708,0.9626312255859376,0.0991058349609375,-0.31787109375,-0.111878328025341,-0.2655696272850036,-0.4187756776809692,116.7630615234375,-57.765380859375,267.1793212890625
1700075708,0.935699462890625,0.1043701171875,-0.292938232421875,-0.0407431684434413,-0.2470207065343856,-0.4297953248023987,116.89627075195312,-57.68965148925781,267.4679870605469
1700075708,0.92071533203125,0.12188720703125,-0.2474212646484375,0.0581714287400245,-0.2452158778905868,-0.4218188822269439,116.74909973144533,-56.893096923828125,267.19482421875
1700075708,0.9284820556640624,0.1334228515625,-0.234466552734375,0.0912958234548568,-0.2256914526224136,-0.4089874923229217,116.41864013671876,-56.19902038574219,267.4701538085937
1700075708,0.9703826904296876,0.1173553466796875,-0.291473388671875,0.1155095547437667,-0.2287548780441284,-0.3809604048728943,116.04997253417967,-56.05409240722656,267.53125
1700075708,0.99591064453125,0.0836944580078125,-0.33148193359375,0.1202920526266098,-0.2356415539979934,-0.3317217528820038,116.4727783203125,-55.301788330078125,267.33807373046875
1700075708,1.0009307861328125,0.0523223876953125,-0.3330841064453125,0.1603617072105407,-0.2220812737941742,-0.2967107594013214,116.19020080566406,-54.92633056640625,267.4498291015625
1700075708,0.982940673828125,0.015838623046875,-0.2707061767578125,0.202551782131195,-0.1868841350078582,-0.277392715215683,116.05003356933594,-54.21136474609375,267.55596923828125
1700075708,0.9478912353515624,-0.00445556640625,-0.203857421875,0.1671067029237747,-0.152457982301712,-0.226632609963417,115.48141479492188,-53.72898864746094,267.9580383300781
1700075708,0.914581298828125,-0.0063323974609375,-0.2198486328125,0.0675465539097786,-0.1223525404930114,-0.1595025807619094,115.556884765625,-52.93309020996094,267.85064697265625
1700075708,0.9267578125,-0.023406982421875,-0.246734619140625,-0.0941850915551185,-0.121134415268898,-0.092036448419094,115.45249938964844,-52.23057556152344,267.9647216796875
1700075708,0.961517333984375,-0.055572509765625,-0.26904296875,-0.1660241186618805,-0.1107954904437065,-0.0144002446904778,115.1190185546875,-51.86968994140625,267.9063720703125
1700075708,0.9322662353515624,-0.063873291015625,-0.30767822265625,-0.0993324443697929,-0.103908821940422,0.0307709611952304,114.91455078125,-51.023468017578125,268.0321655273437
1700075708,0.90386962890625,-0.0254058837890625,-0.2879180908203125,-0.0212099477648735,-0.0870784446597099,0.042202316224575,114.50648498535156,-50.366729736328125,268.35894775390625
1700075708,0.887847900390625,0.045166015625,-0.24658203125,0.0660631731152534,-0.0628466084599495,0.0484634079039096,114.41273498535156,-49.69847106933594,269.22515869140625
1700075708,0.887359619140625,0.0798797607421875,-0.221527099609375,0.1737214624881744,-0.0456604287028312,0.0618476532399654,114.25285339355467,-49.324981689453125,269.45196533203125
1700075708,0.9395904541015624,0.0729217529296875,-0.2169952392578125,0.2133471667766571,-0.0372115522623062,0.1072162017226219,114.00723266601562,-48.57307434082031,268.9671630859375
1700075708,1.0078125,0.0630645751953125,-0.22088623046875,0.2070128321647644,-0.0028085696976631,0.1506259888410568,113.01754760742188,-47.7352294921875,269.07159423828125
1700075708,1.035186767578125,0.0189361572265625,-0.2205657958984375,0.177543893456459,0.0284782461822032,0.2365494221448898,112.66558837890624,-46.938568115234375,270.1003723144531
1700075708,1.010589599609375,-0.0069580078125,-0.2144317626953125,0.1444093734025955,0.0273980684578418,0.3134633898735046,112.23635864257812,-46.02622985839844,270.18609619140625
1700075708,0.9994354248046876,-0.0570831298828125,-0.203125,0.0832205861806869,0.0689870566129684,0.3927629888057709,111.79344177246094,-44.66207885742188,270.8083190917969
1700075708,0.9888458251953124,-0.0859375,-0.204559326171875,0.0745922103524208,0.0998285934329032,0.512562096118927,110.95866394042967,-43.56451416015625,271.4076538085937
1700075708,0.997711181640625,-0.0574188232421875,-0.2098541259765625,0.0695098340511322,0.1095291599631309,0.5920947194099426,109.96189880371094,-42.59933471679688,271.3509826660156
1700075708,1.0696868896484375,-0.0238494873046875,-0.2607879638671875,0.1917768865823745,0.1271307915449142,0.5707415342330933,109.3862762451172,-41.8736572265625,272.11083984375
1700075708,1.155487060546875,-0.0277099609375,-0.279754638671875,0.4125582575798034,0.1081658825278282,0.5581511855125427,107.8905792236328,-40.851654052734375,272.5279541015625
1700075708,1.1901702880859375,0.083892822265625,-0.291473388671875,0.4911034107208252,-0.0041007352992892,0.5064986348152161,106.86985778808594,-39.65982055664063,272.9505615234375
1700075708,1.246612548828125,0.219573974609375,-0.2534942626953125,0.5086187720298767,-0.066969446837902,0.4493511617183685,106.247802734375,-38.92835998535156,273.96246337890625
1700075708,1.24737548828125,0.3088836669921875,-0.199127197265625,0.5156862735748291,-0.1082657501101493,0.3724451959133148,104.59878540039062,-37.92304992675781,274.4684143066406
1700075708,1.2568817138671875,0.309783935546875,-0.136383056640625,0.5993449091911316,-0.1074827834963798,0.3531519472599029,103.44613647460938,-36.36129760742188,274.2492980957031
1700075708,1.3043670654296875,0.1998291015625,-0.1048126220703125,0.5883719325065613,-0.1335234344005584,0.4033562541007995,102.20950317382812,-35.143218994140625,273.73492431640625
1700075708,1.3453826904296875,0.0188446044921875,-0.1333465576171875,0.5087686777114868,-0.1624040901660919,0.5091234445571899,101.00038146972656,-34.18989562988281,274.3129272460937
1700075708,1.391204833984375,-0.1327972412109375,-0.2110443115234375,0.510321855545044,-0.2406781166791916,0.585483193397522,99.33558654785156,-32.99952697753906,272.9608154296875
1700075708,1.4608001708984375,-0.2070159912109375,-0.229461669921875,0.5564150214195251,-0.3372198343276977,0.6384976506233215,97.79356384277344,-32.11309814453125,272.1791381835937
1700075708,1.525360107421875,-0.17120361328125,-0.1569976806640625,0.5347763299942017,-0.4226092994213104,0.7073782086372375,96.45579528808594,-30.93690490722656,271.7852783203125
1700075708,1.52392578125,-0.1024932861328125,-0.0362091064453125,0.522045373916626,-0.3969803750514984,0.8004764318466187,94.99334716796876,-29.735122680664062,271.1224670410156
1700075708,1.5174407958984375,-0.14300537109375,0.010772705078125,0.5552797317504883,-0.385354608297348,0.8887469172477722,93.6307373046875,-29.450103759765625,270.2830505371094
1700075708,1.540740966796875,-0.3141021728515625,0.031097412109375,0.6593483686447144,-0.360440194606781,0.9548628330230712,92.19088745117188,-28.84515380859375,269.1415100097656
1700075708,1.5615081787109375,-0.5343017578125,0.0767822265625,0.7670748233795166,-0.3304503560066223,1.0160199403762815,91.02259826660156,-28.32525634765625,268.35906982421875
1700075708,1.53765869140625,-0.673431396484375,0.1435089111328125,0.771757960319519,-0.2943930029869079,1.102020025253296,90.26025390625,-28.053512573242188,267.51251220703125
1700075708,1.475799560546875,-0.7595367431640625,0.1911468505859375,0.6540675759315491,-0.2289045602083206,1.186802864074707,89.19638061523438,-27.905441284179688,266.2169494628906
1700075708,1.367218017578125,-0.8036041259765625,0.152130126953125,0.2473216503858566,0.1445542573928833,1.4452855587005615,88.52694702148438,-28.16729736328125,265.7890930175781
1700075708,1.2293548583984375,-0.60992431640625,-0.2988433837890625,-0.6414457559585571,0.7496875524520874,2.0525825023651123,88.05615234375,-28.167694091796875,264.72564697265625
1700075708,1.0962371826171875,-0.1559906005859375,-1.024139404296875,-1.6092324256896973,0.9751180410385132,2.5332372188568115,87.92628479003906,-28.304367065429688,264.089111328125
1700075708,1.1427001953125,0.0205841064453125,-1.363067626953125,-2.103035449981689,0.9896538257598876,2.8097856044769287,87.48544311523438,-28.82183837890625,263.5965576171875
1700075708,1.418426513671875,0.0921783447265625,-1.4516143798828125,-1.869000792503357,0.9535378813743592,3.079445600509644,86.89149475097656,-29.353515625,262.9853210449219
1700075708,1.4534149169921875,0.3053436279296875,-1.29388427734375,-1.0134315490722656,0.9568428993225098,3.408757209777832,87.17840576171875,-29.893569946289062,262.10406494140625
1700075708,1.3888397216796875,0.57672119140625,-0.903656005859375,-0.1835136413574218,0.7671762704849243,3.8013157844543457,87.35945129394531,-30.528533935546875,260.59259033203125
1700075708,1.463409423828125,0.85748291015625,-0.4979705810546875,0.1730008125305175,0.8694466948509216,3.924095869064331,87.60377502441406,-31.09242248535156,259.60260009765625
1700075708,1.570953369140625,1.03826904296875,-0.516815185546875,0.2930824756622314,1.1658458709716797,3.5204782485961914,87.55244445800781,-32.30320739746094,259.46783447265625
1700075708,1.7089996337890625,1.2075653076171875,-0.4972381591796875,0.5332828164100647,1.4831827878952026,2.861026763916016,88.29193115234375,-33.28373718261719,258.46490478515625
1700075708,1.7663421630859375,1.235260009765625,-0.4809112548828125,1.0118060111999512,1.636022686958313,2.3616154193878174,88.81353759765625,-34.47004699707031,257.3690185546875
1700075708,1.625335693359375,0.9860687255859376,-0.5456390380859375,1.323713302612305,1.570560097694397,1.9984347820281985,89.3707275390625,-36.02888488769531,256.9295959472656
1700075708,1.4892578125,0.6118011474609375,-0.5882720947265625,1.2959802150726318,1.4293603897094729,1.804357886314392,90.19767761230467,-37.054290771484375,255.77037048339844
1700075708,1.3849639892578125,0.32965087890625,-0.5631561279296875,0.9977956414222716,1.2745108604431152,1.784844994544983,90.8314971923828,-39.12939453125,256.0389404296875
1700075708,1.270751953125,0.1337890625,-0.5009307861328125,0.6016730666160583,1.1559767723083496,1.813392996788025,91.84381103515624,-40.58763122558594,255.310791015625
1700075708,1.1627197265625,-0.022735595703125,-0.4430084228515625,0.1895678043365478,1.106661677360535,1.789869785308838,92.78434753417967,-42.71987915039063,254.6356811523437
1700075708,1.024658203125,-0.1197509765625,-0.41912841796875,-0.1616328358650207,1.0034823417663574,1.6531902551651,93.76959228515624,-44.80778503417969,254.3040313720703
1700075708,0.88446044921875,-0.171112060546875,-0.3762054443359375,-0.4831711947917938,0.8553426265716553,1.4158706665039062,94.4459991455078,-46.82356262207031,254.6568756103516
1700075708,0.7709503173828125,-0.189727783203125,-0.3142852783203125,-0.8734443783760071,0.7699140310287476,1.1182501316070557,95.22879028320312,-48.6695556640625,254.82774353027344
1700075708,0.656463623046875,-0.189727783203125,-0.255340576171875,-1.175684690475464,0.69023197889328,0.8788428902626038,95.33802795410156,-50.774017333984375,254.0795440673828
1700075708,0.5008087158203125,-0.1384429931640625,-0.1624908447265625,-1.292976140975952,0.5844435095787048,0.6751329302787781,96.27420043945312,-52.98931884765625,253.73602294921875
1700075708,0.3349609375,-0.0653228759765625,-0.114990234375,-1.240310788154602,0.4572415947914123,0.3725525438785553,96.90745544433594,-55.48922729492188,253.9171142578125
1700075708,0.25677490234375,-0.0483551025390625,-0.0789031982421875,-1.1462557315826416,0.3633947074413299,-0.0374208763241767,97.3744659423828,-57.62312316894531,253.8433990478516
1700075708,0.2529144287109375,-0.07977294921875,-0.0318145751953125,-1.0666083097457886,0.28272545337677,-0.4300669431686401,97.63775634765624,-59.903656005859375,253.3910522460937
1700075708,0.2407684326171875,-0.1001739501953125,0.0016326904296875,-0.9790951609611512,0.1286754161119461,-0.7260046005249023,97.8218231201172,-61.94630432128906,253.45005798339844
1700075708,0.2124481201171875,-0.0884552001953125,-0.0067138671875,-0.9684284329414368,-0.0406283847987651,-0.9806203842163086,98.08869934082033,-64.51802062988281,253.6471405029297
1700075708,0.1881256103515625,-0.08612060546875,-0.0441741943359375,-0.9745243787765504,-0.1941449791193008,-1.2968875169754028,97.71592712402344,-66.92292785644531,253.66702270507807
1700075708,0.2037353515625,-0.1398162841796875,-0.014617919921875,-1.088695764541626,-0.3135861456394195,-1.596479892730713,97.40290832519533,-69.45913696289062,253.7499389648437
1700075708,0.192718505859375,-0.1617279052734375,-0.0200958251953125,-1.2571145296096802,-0.4188691675662994,-1.820406436920166,97.43156433105467,-71.87408447265625,254.2553100585937
1700075708,0.1454925537109375,-0.167724609375,-0.065399169921875,-1.3684232234954834,-0.5437791347503662,-1.993678331375122,97.59315490722656,-73.73103332519531,254.58995056152344
1700075708,0.1163482666015625,-0.184417724609375,-0.0676116943359375,-1.5537707805633545,-0.6362555623054504,-2.1775734424591064,96.4506378173828,-76.22323608398438,254.5827789306641
1700075708,0.111175537109375,-0.1803436279296875,-0.1123199462890625,-1.852791786193848,-0.75786292552948,-2.383021116256714,95.76197814941406,-77.71226501464844,255.2480010986328
1700075708,0.1228790283203125,-0.1297607421875,-0.1287384033203125,-2.091503620147705,-0.8868552446365356,-2.542018175125122,95.48187255859376,-79.65379333496094,255.7095184326172
1700075708,0.112091064453125,-0.0275726318359375,-0.1259307861328125,-2.07558822631836,-1.055232048034668,-2.617424726486206,94.68147277832033,-81.4066162109375,255.5589141845703
1700075708,0.1295623779296875,0.1537322998046875,-0.0879058837890625,-1.7720242738723757,-1.1577813625335691,-2.688640117645264,93.81877136230467,-82.73188781738281,255.41229248046875
1700075708,0.18865966796875,0.3243865966796875,-0.044189453125,-1.4482829570770264,-1.218268632888794,-2.765209913253784,92.8647918701172,-84.40629577636719,254.989974975586
1700075708,0.16339111328125,0.4981689453125,-0.129730224609375,-0.998525857925415,-1.2627527713775637,-2.8456454277038574,91.82325744628906,-85.24140930175781,254.56512451171875
1700075708,0.1494293212890625,0.6672210693359375,-0.261566162109375,-0.3863911032676697,-1.27775776386261,-2.8547005653381348,91.21852111816406,-85.9598388671875,254.79959106445312
1700075708,0.1864166259765625,0.8651885986328125,-0.34051513671875,0.2389430701732635,-1.1725128889083862,-2.7790722846984863,90.4415283203125,-86.71781921386719,254.87112426757807
1700075708,0.2214813232421875,1.0684051513671875,-0.457427978515625,0.7269515991210938,-1.0235990285873413,-2.59387731552124,89.49014282226562,-87.14979553222656,254.0113067626953
1700075708,0.2536468505859375,1.2842559814453125,-0.6334991455078125,1.0685118436813354,-0.9074897170066832,-2.318248748779297,89.51646423339844,-87.66665649414062,253.8867645263672
1700075708,0.3160400390625,1.4325408935546875,-0.734527587890625,1.2885491847991943,-0.7583510875701904,-1.933938264846801,88.87614440917969,-87.85470581054688,254.10894775390625
1700075709,0.334197998046875,1.4777374267578125,-0.7795257568359375,1.3370873928070068,-0.6242191195487976,-1.4585118293762207,88.57319641113281,-87.69943237304688,253.7660675048828
1700075709,0.29864501953125,1.4976654052734375,-0.8027801513671875,1.3229204416275024,-0.4999376535415649,-1.0822343826293943,87.96720886230469,-88.058349609375,252.9513092041016
1700075709,0.308868408203125,1.4817352294921875,-0.8178253173828125,1.1988723278045654,-0.3875637054443359,-0.6796155571937561,87.33457946777344,-87.75819396972656,253.0966796875
1700075709,0.2378387451171875,1.5869598388671875,-0.8357086181640625,0.6500512361526489,-0.2192620486021042,-0.4590562582015991,87.06718444824219,-87.62007141113281,253.5331420898437
1700075709,0.21929931640625,1.6077423095703125,-0.848236083984375,0.3276551067829132,0.5069910287857056,-0.3088603615760803,86.96632385253906,-87.97000122070312,253.0933990478516
1700075709,0.0826568603515625,1.55926513671875,-1.4164581298828125,0.8568539619445801,0.5088046193122864,0.1362433284521103,87.03312683105469,-88.09040832519531,253.22364807128903
1700075709,0.183013916015625,1.6494598388671875,-1.35906982421875,0.3942202627658844,-0.0543231591582298,-0.0916207283735275,86.58404541015625,-87.95538330078125,253.6214904785156
1700075709,1.562255859375,0.991180419921875,-0.57135009765625,-0.1140954121947288,-0.560377299785614,-0.4793817698955536,85.893310546875,-88.35928344726562,253.4630126953125
1700075709,2.1066131591796875,0.2810821533203125,0.317626953125,0.1193317174911499,-0.3098984658718109,-0.4316901564598083,85.34254455566406,-88.92147827148438,253.9086456298828
1700075709,1.494171142578125,-0.150054931640625,0.583221435546875,0.0003225088003091,0.0414478406310081,0.2918169498443603,85.34468078613281,-88.74394226074219,253.6550750732422
1700075709,0.8695220947265625,-0.1031494140625,-0.215240478515625,0.1359865963459015,0.0562486238777637,0.9529951214790344,84.97132873535156,-88.10198974609375,252.7886657714844
1700075709,0.956634521484375,0.2516632080078125,-0.8931427001953125,-0.0021198762115091,-0.4806893765926361,0.8991873264312744,85.12870788574219,-87.35569763183594,253.0998687744141
1700075709,1.644287109375,0.4658203125,-0.406707763671875,-0.7522668242454529,-0.3116305768489837,0.6825516819953918,84.86178588867188,-87.44613647460938,252.7523651123047
1700075709,1.4710845947265625,0.65032958984375,-0.1360015869140625,-0.5892835259437561,0.0021148161031305,0.3988501727581024,84.23403930664062,-86.97013854980469,252.7117462158203
1700075709,0.712371826171875,0.4878082275390625,-0.2371673583984375,-0.2234139144420623,-0.0281983483582735,0.2348338216543197,84.08348083496094,-86.76466369628906,252.3968963623047
1700075709,0.56951904296875,0.3511962890625,-0.417266845703125,-0.0921397805213928,0.0011968245962634,0.1708569675683975,84.37507629394531,-86.98391723632812,252.7027587890625
1700075709,0.6835784912109375,0.3098297119140625,-0.397369384765625,-0.1480738818645477,0.0856461971998214,0.0932971909642219,84.29695129394531,-86.87539672851562,252.25816345214844
1700075709,0.741180419921875,0.3309173583984375,-0.2838287353515625,-0.3241421282291412,0.0511569269001483,0.0325693935155868,83.77294921875,-86.74554443359375,251.61480712890625
1700075709,0.9390411376953124,0.3919219970703125,-0.3067626953125,-0.42705038189888,0.0346309468150138,-0.0375305972993373,83.88676452636719,-86.5675048828125,252.14938354492188
1700075709,1.1416015625,0.3826141357421875,-0.4029388427734375,-0.3566063344478607,0.0386627055704593,-0.1125561073422432,83.6708984375,-86.17172241210938,251.7293395996093
1700075709,1.14556884765625,0.274017333984375,-0.3965911865234375,-0.2209281176328659,0.0436177849769592,-0.150343969464302,83.37429809570312,-86.01651000976562,251.317626953125
1700075709,1.0626678466796875,0.2058868408203125,-0.4224395751953125,-0.1451364159584045,-0.0103927198797464,-0.1552375257015228,83.46080017089844,-85.79946899414062,250.97509765625
1700075709,1.041778564453125,0.2187957763671875,-0.4297332763671875,-0.1025713831186294,-0.0671691820025444,-0.1626245975494384,83.53826904296875,-85.31446838378906,250.7850799560547
1700075709,1.0443878173828125,0.28125,-0.4117431640625,-0.0786548629403114,-0.1141489446163177,-0.2371390461921692,83.57275390625,-85.18696594238281,250.7666015625
1700075709,1.0482635498046875,0.31146240234375,-0.3900909423828125,-0.0463376715779304,-0.1512792706489563,-0.3434391319751739,83.5113525390625,-85.48818969726562,250.3829803466797
1700075709,1.0289459228515625,0.3001861572265625,-0.3938751220703125,0.0151592455804348,-0.1910048425197601,-0.4245030879974365,83.150634765625,-85.09275817871094,250.526123046875
1700075709,0.9791259765625,0.273406982421875,-0.412017822265625,0.0579021833837032,-0.2368998974561691,-0.4739976525306701,83.10459899902344,-84.82669067382812,250.39547729492188
1700075709,0.9218597412109376,0.2328338623046875,-0.432220458984375,0.0802016258239746,-0.2780963480472564,-0.4897590577602386,82.63812255859375,-84.5096435546875,250.399169921875
1700075709,0.878875732421875,0.207977294921875,-0.425201416015625,0.0415604934096336,-0.3185004889965057,-0.4885827302932739,82.77926635742188,-84.685302734375,250.2386016845703
1700075709,0.8917236328125,0.2091827392578125,-0.423614501953125,-0.0054501593112945,-0.3671287298202514,-0.5033156275749207,82.79115295410156,-84.582763671875,250.19021606445312
1700075709,0.9366607666015624,0.211669921875,-0.4153900146484375,-0.028805548325181,-0.4086455404758453,-0.5221500396728516,82.64070129394531,-84.43223571777344,250.5206756591797
1700075709,0.9631500244140624,0.216278076171875,-0.40948486328125,-0.0335832610726356,-0.4429835677146911,-0.5289291143417358,82.51301574707031,-84.76712036132812,250.0918731689453
1700075709,0.981658935546875,0.214630126953125,-0.405609130859375,-0.0518762469291687,-0.4796363711357116,-0.5382277965545654,83.12236022949219,-84.61567687988281,250.337158203125
1700075709,1.001434326171875,0.205291748046875,-0.3829193115234375,-0.0476892255246639,-0.4940062463283539,-0.5445615649223328,82.79801940917969,-84.28300476074219,250.2172393798828
1700075709,1.014495849609375,0.1910400390625,-0.330413818359375,-0.0175837874412536,-0.4696178138256073,-0.5462793111801147,82.8289794921875,-83.84672546386719,250.01589965820312
1700075709,1.004547119140625,0.177154541015625,-0.312957763671875,0.0411583557724952,-0.4516537487506866,-0.5448918342590332,83.26008605957031,-83.82070922851562,249.4817657470703
1700075709,0.9993896484375,0.15496826171875,-0.3200836181640625,0.0798144042491912,-0.4609708189964294,-0.5482535362243652,82.76922607421875,-83.97698974609375,250.3502197265625
1700075709,1.0112152099609375,0.11602783203125,-0.3320770263671875,0.049191515892744,-0.4557619392871856,-0.5197760462760925,83.00189208984375,-83.89732360839844,250.10577392578125
1700075709,0.986297607421875,0.08740234375,-0.374603271484375,0.0010825749486684,-0.4667994081974029,-0.4578999280929565,82.73112487792969,-83.92422485351562,250.1197509765625
1700075709,0.912567138671875,0.1049652099609375,-0.396270751953125,-0.0177875198423862,-0.4745846092700958,-0.4363338947296142,82.75747680664062,-83.71151733398438,250.60060119628903
1700075709,0.8701019287109375,0.1421051025390625,-0.3509521484375,-0.0019595539197325,-0.4649005830287933,-0.4834862351417541,82.89105224609375,-83.50349426269531,250.25982666015625
1700075709,0.8737640380859375,0.176910400390625,-0.269683837890625,0.0245719216763973,-0.4133495092391968,-0.5202338695526123,82.70310974121094,-83.02381896972656,249.64219665527344
1700075709,0.900299072265625,0.2050628662109375,-0.2572174072265625,0.0637906938791275,-0.3646818399429321,-0.5559729337692261,82.42552185058594,-82.88467407226562,250.13075256347656
1700075709,0.9658966064453124,0.1883087158203125,-0.282989501953125,0.1319210082292556,-0.3655833005905151,-0.5533816814422607,82.5037841796875,-82.6416015625,250.1668395996093
1700075709,0.985626220703125,0.1767425537109375,-0.2923431396484375,0.1263808459043502,-0.3774013519287109,-0.5215577483177185,82.54682922363281,-82.67308044433594,249.6484832763672
1700075709,0.9593505859375,0.1585235595703125,-0.2986907958984375,0.0966636911034584,-0.3701594173908233,-0.4798457026481628,82.83758544921875,-82.67556762695312,249.7437896728516
1700075709,0.9266815185546876,0.1153717041015625,-0.305511474609375,0.1352081596851349,-0.3253482580184936,-0.4479413032531738,82.59963989257812,-82.39236450195312,249.5833740234375
1700075709,0.9285736083984376,0.0528564453125,-0.2794036865234375,0.2888829410076141,-0.2970212996006012,-0.3817755877971649,82.14878845214844,-81.95329284667969,249.5723114013672
1700075709,0.9373321533203124,0.0121612548828125,-0.2440643310546875,0.3916785418987274,-0.2924529016017914,-0.3174069821834564,82.23709106445312,-81.60220336914062,250.22674560546875
1700075709,0.92327880859375,0.0057525634765625,-0.2670440673828125,0.3810504078865051,-0.2793240547180176,-0.3026376366615295,82.30552673339844,-81.36329650878906,249.5788116455078
1700075709,0.895843505859375,0.009979248046875,-0.284271240234375,0.2731404602527618,-0.2760869860649109,-0.296814352273941,82.14891052246094,-81.21232604980469,249.6521911621093
1700075709,0.86712646484375,0.049713134765625,-0.3062591552734375,0.1192275881767273,-0.2925703525543213,-0.2631053924560547,82.03164672851562,-81.12890625,249.6060791015625
1700075709,0.887725830078125,0.0766754150390625,-0.2878875732421875,0.0275221709161996,-0.2824766933917999,-0.2022023648023605,82.28515625,-80.99063110351562,249.22683715820312
1700075709,0.92266845703125,0.0663299560546875,-0.267578125,0.0559476874768734,-0.2552994191646576,-0.1637156903743744,81.86561584472656,-80.52999877929688,248.7701568603516
1700075709,0.9539642333984376,0.0283355712890625,-0.214996337890625,0.1518329381942749,-0.2194402068853378,-0.1040430441498756,81.888916015625,-80.48724365234375,249.41607666015625
1700075709,0.9513702392578124,0.016357421875,-0.2016448974609375,0.1850127279758453,-0.1995402723550796,-0.0072067803703248,81.78672790527344,-80.29310607910156,249.20391845703125
1700075709,0.9418792724609376,0.0106658935546875,-0.2269134521484375,0.1821495592594146,-0.1929271072149276,0.0731109604239463,81.5728759765625,-79.87309265136719,249.1123504638672
1700075709,0.96270751953125,-0.0290985107421875,-0.2390289306640625,0.2009703963994979,-0.1802693754434585,0.1365748941898346,81.63323974609375,-79.83930969238281,248.62075805664065
1700075709,1.02008056640625,-0.0741729736328125,-0.2381439208984375,0.2008412331342697,-0.1634648293256759,0.2267548441886901,81.43240356445312,-79.46963500976562,248.71327209472656
1700075709,1.07159423828125,-0.069488525390625,-0.2513885498046875,0.2766140103340149,-0.175339862704277,0.3085029721260071,81.26950073242188,-78.99540710449219,248.77731323242188
1700075709,1.1356201171875,-0.0250701904296875,-0.21533203125,0.3422028720378876,-0.2037118524312973,0.3571648001670837,81.53584289550781,-78.68260192871094,249.04934692382807
1700075709,1.1991424560546875,0.042694091796875,-0.164520263671875,0.3541705906391144,-0.2031331360340118,0.3931065499782562,81.19581604003906,-78.66879272460938,248.9432983398437
1700075709,1.22900390625,0.0763092041015625,-0.1233978271484375,0.4561821818351745,-0.1863946467638015,0.4382740259170532,81.09954833984375,-78.07760620117188,249.07212829589844
1700075709,1.24639892578125,0.0602569580078125,-0.1364593505859375,0.5343323945999146,-0.2094813138246536,0.4906845092773437,81.00688171386719,-77.69544982910156,248.70193481445312
1700075709,1.3086700439453125,0.0238800048828125,-0.0922698974609375,0.5748475790023804,-0.2085971534252166,0.5911197662353516,80.99075317382812,-77.73997497558594,248.6369171142578
1700075709,1.3426513671875,-0.0117645263671875,-0.067413330078125,0.5788745284080505,-0.1984435766935348,0.663574755191803,80.61671447753906,-77.03536987304688,248.17286682128903
1700075709,1.372589111328125,-0.0522308349609375,-0.0914764404296875,0.5416880249977112,-0.2288355827331543,0.7256727814674377,80.55386352539062,-76.46455383300781,247.88455200195312
1700075709,1.4305267333984375,-0.079742431640625,-0.0793914794921875,0.4744274914264679,-0.2749088108539581,0.799776554107666,80.33432006835938,-76.29255676269531,247.97879028320312
1700075709,1.4867706298828125,-0.1056976318359375,-0.0510101318359375,0.4367419183254242,-0.282731831073761,0.8659931421279907,80.50250244140625,-75.72409057617188,247.930892944336
1700075709,1.528167724609375,-0.161834716796875,-0.01812744140625,0.496604710817337,-0.3259344398975372,0.9264860153198242,80.41484069824219,-75.24295043945312,248.30349731445312
1700075709,1.550994873046875,-0.258697509765625,0.0718536376953125,0.5726193189620972,-0.3423450887203216,1.0098378658294678,80.31211853027344,-74.43402099609375,248.00759887695312
1700075709,1.5964813232421875,-0.3671875,0.1385345458984375,0.5326125025749207,-0.3619741797447204,1.0974361896514893,80.23516845703125,-74.1900634765625,247.9624481201172
1700075709,1.635955810546875,-0.472625732421875,0.147613525390625,0.3802176415920257,-0.3499654531478882,1.1529077291488647,79.63632202148438,-73.60450744628906,248.10690307617188
1700075709,1.6300201416015625,-0.592010498046875,0.095245361328125,0.2272749692201614,-0.3378962874412536,1.1583658456802368,79.12440490722656,-72.67234802246094,248.2960662841797
1700075709,1.5623321533203125,-0.69921875,0.0625,0.0648029670119285,-0.296621024608612,1.1437336206436155,79.59226989746094,-72.43075561523438,247.63829040527344
1700075709,1.460601806640625,-0.7285919189453125,-0.0638885498046875,-0.375642865896225,0.1611758321523666,1.3607631921768188,78.75819396972656,-71.63360595703125,248.0233612060547
1700075709,1.293670654296875,-0.484954833984375,-0.6322479248046875,-1.2201749086380005,0.5590347647666931,1.807656526565552,78.49862670898438,-70.87568664550781,247.4619903564453
1700075709,1.0540771484375,-0.1516571044921875,-1.2108917236328125,-1.951097011566162,0.5869471430778503,2.198347568511963,78.15708923339844,-70.11199951171875,247.5705718994141
1700075709,1.0419464111328125,-0.0207977294921875,-1.4893035888671875,-2.0075271129608154,0.547380805015564,2.43204665184021,77.50978088378906,-69.62684631347656,247.52731323242188
1700075709,1.2535552978515625,0.06646728515625,-1.5316162109375,-1.5492314100265503,0.5191651582717896,2.765718698501587,76.32966613769531,-69.03140258789062,247.4130401611328
1700075709,1.25970458984375,0.2987823486328125,-1.2040252685546875,-0.82195645570755,0.5294619798660278,3.238919973373413,76.00990295410156,-68.51811218261719,246.5278778076172
1700075709,1.2529754638671875,0.587615966796875,-0.7710113525390625,-0.2905870974063873,0.2916187942028045,3.641915798187256,75.11520385742188,-68.02139282226562,246.4973297119141
1700075709,1.345855712890625,0.81890869140625,-0.39605712890625,-0.236349418759346,0.4494560956954956,3.753195762634277,74.5458984375,-67.42875671386719,246.7525634765625
1700075709,1.452728271484375,1.0264892578125,-0.455078125,-0.3006732761859894,0.8262297511100769,3.51531720161438,73.5152587890625,-66.99851989746094,246.4844512939453
1700075709,1.629852294921875,1.23785400390625,-0.408660888671875,-0.1549706757068634,1.0890872478485107,3.093593120574951,72.73574829101562,-66.64450073242188,246.05245971679688
1700075709,1.7438507080078125,1.22686767578125,-0.3469390869140625,0.369699478149414,1.2850950956344604,2.686284065246582,71.96379089355469,-65.87782287597656,245.50729370117188
1700075709,1.670166015625,0.867706298828125,-0.4775848388671875,0.8122326731681824,1.3324079513549805,2.479060173034668,71.81541442871094,-65.30368041992188,245.6371307373047
1700075709,1.501556396484375,0.61138916015625,-0.6148529052734375,0.837797999382019,1.2461659908294678,2.437969207763672,70.9697265625,-64.66307067871094,245.02232360839844
1700075709,1.406707763671875,0.483642578125,-0.646942138671875,0.4788933396339416,1.103271484375,2.4387192726135254,70.34878540039062,-63.7918701171875,245.1233825683593
1700075709,1.3629302978515625,0.339599609375,-0.623443603515625,-0.0109184281900525,1.0436382293701172,2.2847542762756348,69.91038513183594,-63.14979553222656,244.92257690429688
1700075709,1.3453216552734375,0.1425018310546875,-0.5867919921875,-0.4137135446071625,1.0566104650497437,2.012772560119629,69.25991821289062,-61.81022644042969,244.2228240966797
1700075709,1.2645721435546875,-0.0014190673828125,-0.5005950927734375,-0.6750836372375488,1.09605610370636,1.7664790153503418,68.30979919433594,-61.1553955078125,244.2013092041016
1700075709,1.115264892578125,-0.06005859375,-0.4049224853515625,-0.8145102262496948,1.0358034372329712,1.5817195177078247,68.15106201171875,-60.7542724609375,243.7644958496093
1700075709,0.9503173828125,-0.064117431640625,-0.2822723388671875,-0.932026743888855,0.9387744069099426,1.3802945613861084,67.59335327148438,-60.01242065429688,242.90635681152344
1700075709,0.80078125,-0.0583953857421875,-0.1966094970703125,-1.0610723495483398,0.8664666414260864,1.0665112733840942,67.33139038085938,-59.62399291992188,243.03924560546875
1700075709,0.67669677734375,-0.0873870849609375,-0.1428680419921875,-1.1586265563964844,0.7908624410629272,0.6909723281860352,67.13252258300781,-59.41392517089844,242.7225799560547
1700075709,0.5217132568359375,-0.151702880859375,-0.109649658203125,-1.16998553276062,0.6993740797042847,0.3231181502342224,66.86569213867188,-58.74418640136719,242.25428771972656
1700075709,0.3571319580078125,-0.225189208984375,-0.0577392578125,-1.0620992183685305,0.551554262638092,0.047468714416027,66.35813903808594,-58.78074645996094,242.03721618652344
1700075709,0.224334716796875,-0.2409515380859375,0.0106658935546875,-0.9037256240844728,0.397602766752243,-0.1472539007663726,66.10734558105469,-58.98800659179688,241.71017456054688
1700075710,0.1429901123046875,-0.1974334716796875,0.05731201171875,-0.8592752814292908,0.2439242452383041,-0.4649908542633056,66.03688049316406,-58.79136657714844,241.05416870117188
1700075710,0.1734619140625,-0.1539459228515625,0.04534912109375,-0.8990738391876221,0.0546632446348667,-0.843563973903656,66.10598754882812,-58.42022705078125,240.5269927978516
1700075710,0.20849609375,-0.0794525146484375,0.0056610107421875,-0.9137734174728394,-0.0417833998799324,-1.203262209892273,66.17054748535156,-58.545654296875,239.8954925537109
1700075710,0.196990966796875,-0.1276702880859375,-0.001190185546875,-1.0383899211883545,-0.1520337462425232,-1.5088940858840942,66.29193115234375,-58.72413635253906,239.57940673828125
1700075710,0.146820068359375,-0.1866455078125,-0.026458740234375,-1.1991397142410278,-0.2868655920028686,-1.7330632209777832,66.75898742675781,-58.86824035644531,238.8261566162109
1700075710,0.090850830078125,-0.1779937744140625,-0.05859375,-1.284026026725769,-0.4020094871520996,-1.9474070072174072,67.02734375,-58.775421142578125,238.319091796875
1700075710,0.08038330078125,-0.1927947998046875,-0.028839111328125,-1.3689920902252195,-0.5014777779579163,-2.127993583679199,67.58026123046875,-59.21295166015625,238.41775512695312
1700075710,0.0448150634765625,-0.1597442626953125,-0.0376129150390625,-1.5371880531311035,-0.591915488243103,-2.3332300186157227,67.85487365722656,-59.30026245117188,238.25833129882807
1700075710,0.0272216796875,-0.0583343505859375,-0.0853424072265625,-1.709770679473877,-0.7384548783302307,-2.561455011367798,68.58407592773438,-59.56669616699219,237.43038940429688
1700075710,0.054412841796875,0.0061798095703125,-0.0585479736328125,-1.797232151031494,-0.8789102435112,-2.741276979446411,68.9410400390625,-59.802520751953125,237.32369995117188
1700075710,0.0811309814453125,0.048980712890625,-0.0622711181640625,-1.5531859397888184,-1.050761342048645,-2.789928674697876,69.79008483886719,-59.965911865234375,236.76220703125
1700075710,0.0831298828125,0.1800384521484375,-0.0223541259765625,-1.1713799238204956,-1.1037191152572632,-2.834851026535034,70.57078552246094,-60.54774475097656,237.5478973388672
1700075710,0.0904083251953125,0.335235595703125,-0.027130126953125,-0.7633557319641113,-1.177112698554993,-2.891805648803711,71.01266479492188,-61.31343078613281,237.14944458007807
1700075710,0.12103271484375,0.53497314453125,-0.1500701904296875,-0.2542474567890167,-1.216314435005188,-2.9169692993164062,71.96737670898438,-61.62480163574219,236.5614624023437
1700075710,0.16729736328125,0.7364654541015625,-0.302154541015625,0.1574237048625946,-1.1773706674575806,-2.9192941188812256,72.71186828613281,-61.938568115234375,236.6839904785156
1700075710,0.2020721435546875,0.906494140625,-0.4179840087890625,0.5506641864776611,-1.0733168125152588,-2.817277431488037,73.08467102050781,-62.641693115234375,236.3550567626953
1700075710,0.2388763427734375,1.069732666015625,-0.5792083740234375,0.755686342716217,-0.8789305090904236,-2.5372443199157715,74.23129272460938,-62.79527282714844,236.6756286621093
1700075710,0.2635498046875,1.2254180908203125,-0.748626708984375,0.8076028227806091,-0.7562706470489502,-2.094006299972534,75.47572326660156,-62.93844604492188,236.2447509765625
1700075710,0.304901123046875,1.384368896484375,-0.7666778564453125,0.9825083017349244,-0.6650840044021606,-1.6388051509857178,75.59315490722656,-63.17121887207031,236.5494537353516
1700075710,0.38311767578125,1.4710540771484375,-0.7620849609375,1.0781956911087036,-0.5038743615150452,-1.1218560934066772,76.82225036621094,-63.16169738769531,236.6419677734375
1700075710,0.3817291259765625,1.599090576171875,-0.84564208984375,0.8984892964363098,-0.4845829308032989,-0.5888283848762512,76.85426330566406,-62.88153076171875,236.6473083496093
1700075710,0.353363037109375,1.8192291259765625,-0.8122406005859375,0.2421343326568603,0.0722014904022216,-0.291848361492157,77.52902221679688,-62.87872314453125,236.74891662597656
1700075710,0.3294677734375,1.942535400390625,-1.2405548095703125,0.4970771372318268,1.097136616706848,-0.0538200885057449,77.81643676757812,-62.4815673828125,236.7537841796875
1700075710,0.178802490234375,2.2077789306640625,-2.065093994140625,1.715885043144226,0.0427815504372119,0.5818160176277161,77.91731262207031,-62.62373352050781,236.88124084472656
1700075710,1.2160491943359375,2.3708038330078125,-0.846221923828125,0.3734646737575531,-0.7631304264068604,-0.0820751637220382,78.24057006835938,-62.75090026855469,237.0211639404297
1700075710,2.682861328125,1.05865478515625,0.0158233642578125,-0.1036494299769401,-0.8844866752624512,-0.7805112600326538,78.01495361328125,-62.22329711914063,236.66531372070312
1700075710,2.0329742431640625,-0.136505126953125,0.8717193603515625,-0.1403184980154037,-0.040642499923706,0.0526317842304706,77.91482543945312,-61.970123291015625,236.77316284179688
1700075710,0.404632568359375,-0.19189453125,0.3735198974609375,-0.3095037937164306,-0.1624448299407959,0.5312255024909973,77.2196044921875,-61.597930908203125,236.626693725586
1700075710,0.0126495361328125,-0.1419677734375,-0.66436767578125,-0.410680204629898,-0.1641561836004257,0.3471923172473907,77.79942321777344,-61.51951599121094,236.37185668945312
1700075710,0.135650634765625,-0.153900146484375,-1.1430206298828125,-0.4330507516860962,-0.3283517956733703,0.2872035503387451,77.82633972167969,-61.2080078125,237.1455993652344
1700075710,0.4906463623046875,0.06597900390625,-0.726165771484375,-0.4947569966316223,-0.1746064275503158,0.0771943852305412,77.65000915527344,-61.50308227539063,236.7752685546875
1700075710,0.7659759521484375,0.3082733154296875,-0.34881591796875,0.0541777499020099,-0.0162833649665117,-0.0056027583777904,77.32284545898438,-61.261016845703125,236.9685974121093
1700075710,0.9698028564453124,0.757110595703125,0.0574951171875,-0.0088717881590127,-0.2191904038190841,0.0761978328227996,77.52262878417969,-60.793304443359375,237.1719512939453
1700075710,1.8069000244140625,0.999908447265625,0.2026214599609375,-0.5345566272735596,-0.1305803805589676,-0.1458589285612106,77.39016723632812,-60.85833740234375,236.7845764160156
1700075710,2.025726318359375,0.719268798828125,-0.2068634033203125,-0.5720728039741516,0.0384802818298339,-0.4219184815883636,77.25161743164062,-60.8115234375,236.790771484375
1700075710,1.2577972412109375,0.208282470703125,-0.6301727294921875,-0.3029042184352875,-0.023902403190732,-0.4256061613559723,76.94085693359375,-61.06156921386719,236.3916473388672
1700075710,0.8153228759765625,-0.1554107666015625,-0.5703277587890625,-0.0528714694082737,-0.0416760742664337,-0.0588244348764419,76.774169921875,-60.71258544921875,236.18927001953125
1700075710,0.9037933349609376,-0.2132568359375,-0.3788299560546875,-0.0702531263232231,-0.0276808962225914,0.2547625005245209,76.79049682617188,-61.2244873046875,236.908920288086
1700075710,0.960205078125,0.03753662109375,-0.229827880859375,-0.1745824515819549,0.0364253856241703,0.1828507781028747,77.02993774414062,-60.70011901855469,236.34585571289065
1700075710,0.959869384765625,0.406097412109375,-0.2839202880859375,-0.1247856095433235,0.0617786794900894,-0.1656297147274017,76.59524536132812,-61.1856689453125,236.2013702392578
1700075710,0.983612060546875,0.524505615234375,-0.366180419921875,0.0469443388283252,0.0154774934053421,-0.4659543931484222,76.69485473632812,-61.01792907714844,236.5647125244141
1700075710,0.9950408935546876,0.47955322265625,-0.401214599609375,0.1138410791754722,-0.0855567157268524,-0.5918553471565247,76.62471008300781,-60.940704345703125,236.48731994628903
1700075710,0.944366455078125,0.3513031005859375,-0.425506591796875,0.0993476286530494,-0.1744977682828903,-0.5929405689239502,76.25091552734375,-61.02134704589844,236.25894165039065
1700075710,0.85845947265625,0.2208709716796875,-0.4762420654296875,0.0734513103961944,-0.2615192234516144,-0.5653488636016846,76.39523315429688,-61.11959838867188,236.3695526123047
1700075710,0.862091064453125,0.1540069580078125,-0.47906494140625,0.0278468113392591,-0.3395945727825165,-0.5409228801727295,76.42916870117188,-61.07989501953125,236.3982086181641
1700075710,0.94378662109375,0.15960693359375,-0.448394775390625,-0.0393599234521389,-0.4182422459125519,-0.53266841173172,76.36570739746094,-61.30702209472656,236.30242919921875
1700075710,1.03118896484375,0.1783905029296875,-0.417694091796875,-0.0804479718208313,-0.47430020570755,-0.5308710932731628,76.33842468261719,-61.35031127929688,236.48345947265625
1700075710,1.075897216796875,0.1649322509765625,-0.3945770263671875,-0.0842842534184455,-0.5088707208633423,-0.4989812970161438,76.29457092285156,-61.319183349609375,236.52540588378903
1700075710,1.0567626953125,0.15106201171875,-0.3756866455078125,-0.0880757942795753,-0.5326239466667175,-0.4435699880123138,76.44575500488281,-61.466156005859375,236.37600708007807
1700075710,1.0107879638671875,0.148712158203125,-0.364288330078125,-0.1199692785739898,-0.544608473777771,-0.4264711439609527,76.51969909667969,-61.62364196777344,236.65689086914065
1700075710,0.9751434326171876,0.151123046875,-0.352813720703125,-0.1118668764829635,-0.5504591464996338,-0.4383083879947662,76.45610046386719,-61.65010070800781,236.2071685791016
1700075710,0.95977783203125,0.1807708740234375,-0.33056640625,-0.0828272402286529,-0.5433969497680664,-0.4773540496826172,76.90589904785156,-61.38862609863281,236.6513671875
1700075710,0.955047607421875,0.2158660888671875,-0.3345947265625,-0.0502125695347785,-0.5435509085655212,-0.5452715754508972,76.8612060546875,-61.809112548828125,236.47886657714844
1700075710,0.96258544921875,0.2392120361328125,-0.3218231201171875,-0.0209803823381662,-0.5399455428123474,-0.618817150592804,76.76116943359375,-62.048431396484375,236.67706298828125
1700075710,0.97076416015625,0.2487945556640625,-0.3106536865234375,0.001841043238528,-0.5445538759231567,-0.685674786567688,77.18516540527344,-61.6729736328125,236.86412048339844
1700075710,0.9742584228515624,0.2225799560546875,-0.2979736328125,0.0157379508018493,-0.5323472619056702,-0.7276160717010498,77.35795593261719,-61.827667236328125,236.36813354492188
1700075710,0.9744873046875,0.165863037109375,-0.296844482421875,0.0573887228965759,-0.523480236530304,-0.7100051045417786,77.50148010253906,-61.96788024902344,236.7102813720703
1700075710,0.9587554931640624,0.1185302734375,-0.300567626953125,0.0364879705011844,-0.5103591084480286,-0.6510286331176758,77.22653198242188,-62.11952209472656,236.65457153320312
1700075710,0.970245361328125,0.078887939453125,-0.300048828125,0.0140590937808156,-0.4864737689495086,-0.5832469463348389,77.47747802734375,-62.195831298828125,236.66650390625
1700075710,0.9755706787109376,0.0517578125,-0.2833251953125,0.034255176782608,-0.4527144730091095,-0.5147493481636047,77.55265808105469,-62.108001708984375,236.5896148681641
1700075710,0.968719482421875,0.0443115234375,-0.2700958251953125,0.0428830198943614,-0.4372108876705169,-0.4645769894123077,77.79808044433594,-62.36666870117188,236.8549346923828
1700075710,0.9864959716796876,0.046356201171875,-0.266571044921875,0.0691756084561348,-0.4227333962917328,-0.4460105001926422,77.80006408691406,-62.55751037597656,236.4558258056641
1700075710,0.984588623046875,0.0428009033203125,-0.258453369140625,0.181390568614006,-0.3742572069168091,-0.4177676737308502,77.96018981933594,-62.51593017578125,236.84088134765625
1700075710,0.9495391845703124,0.050079345703125,-0.2527923583984375,0.3122566938400268,-0.3487036526203155,-0.4008065462112427,78.169921875,-63.01875305175781,237.0914764404297
1700075710,0.9273681640625,0.0579833984375,-0.2483367919921875,0.3284465968608856,-0.3546994924545288,-0.3926916122436523,78.22164916992188,-63.345794677734375,237.5120849609375
1700075710,0.910369873046875,0.0786590576171875,-0.2806396484375,0.3182195127010345,-0.3405794203281402,-0.3739743828773498,78.39582824707031,-63.40499877929688,236.7646942138672
1700075710,0.884613037109375,0.0965118408203125,-0.2689208984375,0.290909081697464,-0.3228172063827514,-0.3549250662326813,78.6854248046875,-63.463226318359375,237.00192260742188
1700075710,0.8900909423828125,0.0655670166015625,-0.2296142578125,0.2110371440649032,-0.2949171364307403,-0.3034315109252929,78.42173767089844,-63.15718078613281,237.5471649169922
1700075710,0.9008636474609376,0.0145263671875,-0.2234344482421875,0.1537884920835495,-0.2728640139102936,-0.1952049136161804,78.74638366699219,-63.33590698242188,237.47023010253903
1700075710,0.9075164794921876,-0.0518341064453125,-0.2442779541015625,0.1475513726472854,-0.2617453336715698,-0.0822759643197059,78.67831420898438,-63.15884399414063,237.5061187744141
1700075710,0.9010772705078124,-0.1075592041015625,-0.273406982421875,0.1887137293815612,-0.2673209309577942,-0.0243511460721492,78.80644226074219,-63.29679870605469,237.5415496826172
1700075710,0.8979949951171875,-0.13104248046875,-0.2719268798828125,0.1794539093971252,-0.2593074738979339,0.0470732375979423,79.09359741210938,-63.24644470214844,237.81561279296875
1700075710,0.9149627685546876,-0.0714874267578125,-0.2429962158203125,0.1334139853715896,-0.2319091260433197,0.1346041560173034,79.34478759765625,-63.31040954589844,238.20358276367188
1700075710,0.9617462158203124,-0.0235595703125,-0.214080810546875,0.1295771598815918,-0.1865403205156326,0.207859992980957,79.27667236328125,-63.62220764160156,238.00732421875
1700075710,1.0062103271484375,-0.02880859375,-0.1665802001953125,0.2205853760242462,-0.1340699195861816,0.2843110859394073,78.84605407714844,-63.55180358886719,237.639892578125
1700075710,1.0439300537109375,-0.06292724609375,-0.1288909912109375,0.3572886288166046,-0.0836118087172508,0.3724524080753326,79.15107727050781,-63.38780212402344,237.3087158203125
1700075710,1.054443359375,-0.0577850341796875,-0.1729736328125,0.3831058442592621,-0.0880526304244995,0.4525403082370758,79.34989929199219,-63.88911437988281,237.3733673095703
1700075710,1.1001434326171875,0.0008087158203125,-0.17913818359375,0.3960187137126922,-0.0757245868444442,0.5048141479492188,79.11123657226562,-63.6090087890625,237.7261962890625
1700075710,1.1292572021484375,0.0751800537109375,-0.17266845703125,0.4109558463096618,-0.0874427631497383,0.4900828897953033,79.32899475097656,-63.307220458984375,237.39634704589844
1700075710,1.16253662109375,0.103912353515625,-0.16015625,0.4659426808357239,-0.0965361297130584,0.4961346685886383,79.0843505859375,-63.190216064453125,237.4320373535156
1700075710,1.1564788818359375,0.1522216796875,-0.19482421875,0.5423820614814758,-0.1580301076173782,0.4861446022987366,79.27317810058594,-62.94950866699219,237.0601043701172
1700075710,1.1858978271484375,0.19207763671875,-0.156097412109375,0.5834618210792542,-0.2327847778797149,0.4830343127250671,79.13201904296875,-63.407318115234375,237.2679443359375
1700075710,1.2438507080078125,0.2342376708984375,-0.07611083984375,0.5429689884185791,-0.2384000569581985,0.4490012228488922,78.92674255371094,-62.851593017578125,237.3829803466797
1700075710,1.264984130859375,0.2136688232421875,-0.0940399169921875,0.4748051464557647,-0.3095333576202392,0.4327926933765411,79.16790771484375,-62.89945983886719,237.6468963623047
1700075710,1.28436279296875,0.1461944580078125,-0.148681640625,0.3590351343154907,-0.4225879907608032,0.4733763337135315,79.20523071289062,-62.72074890136719,237.16189575195312
1700075710,1.3632965087890625,0.0507354736328125,-0.19378662109375,0.272903710603714,-0.5049957633018494,0.5359872579574585,79.19856262207031,-62.62815856933594,237.6069183349609
1700075710,1.4745025634765625,-0.083282470703125,-0.200103759765625,0.2590968012809753,-0.5691388249397278,0.591532289981842,79.19328308105469,-62.222198486328125,237.7792358398437
1700075710,1.59576416015625,-0.226470947265625,-0.09637451171875,0.4591963589191437,-0.572481632232666,0.6677674055099487,78.95013427734375,-62.2640380859375,237.3786163330078
1700075710,1.64990234375,-0.3392486572265625,0.0185394287109375,0.6442562341690063,-0.5950111746788025,0.7922366261482239,79.2613525390625,-61.66828918457031,238.1143035888672
1700075710,1.666748046875,-0.3692626953125,0.0937957763671875,0.759736180305481,-0.6383416056632996,0.9376076459884644,79.41658020019531,-61.68663024902344,237.5537109375
1700075710,1.6761627197265625,-0.3924407958984375,0.16827392578125,0.77234947681427,-0.6443725824356079,1.0490140914916992,79.27383422851562,-61.42962646484375,237.6180419921875
1700075710,1.5974273681640625,-0.4595489501953125,0.2477264404296875,0.779603898525238,-0.6152852773666382,1.1151102781295776,78.57447814941406,-61.417816162109375,237.3428955078125
1700075710,1.4561767578125,-0.58648681640625,0.3217620849609375,0.5900121331214905,-0.3833244740962982,1.2063384056091309,78.60404968261719,-61.39564514160156,237.5997467041016
1700075710,1.306549072265625,-0.6684722900390625,0.112640380859375,0.1775508224964141,-0.0268997903913259,1.3056663274765017,79.41751098632812,-60.86358642578125,237.3749389648437
1700075710,1.19390869140625,-0.695220947265625,-0.229248046875,-0.6593504548072815,0.4232516586780548,1.656930923461914,79.41371154785156,-60.81071472167969,237.7924194335937
1700075710,1.0790252685546875,-0.4708251953125,-0.6828765869140625,-2.1136960983276367,0.8138963580131531,2.39508056640625,79.59880065917969,-60.1878662109375,238.1471099853516
1700075710,0.9202423095703124,-0.138519287109375,-1.2637939453125,-3.039850234985352,0.8897914290428162,3.0824086666107178,79.53450012207031,-60.12493896484375,238.4097442626953
1700075710,1.100799560546875,-0.06903076171875,-1.4554290771484375,-2.9615867137908936,0.8140268921852112,3.3440420627593994,80.04792785644531,-59.794921875,238.3074645996093
1700075710,1.48077392578125,-0.108489990234375,-1.2793731689453125,-2.355527400970459,0.656697154045105,3.5846710205078125,80.04505920410156,-59.26692199707031,238.0493927001953
1700075710,1.5592803955078125,0.1593170166015625,-0.8702392578125,-1.5585169792175293,0.5111996531486511,3.8728883266448975,80.31663513183594,-59.00045776367188,238.5098114013672
1700075711,1.478271484375,0.4938812255859375,-0.533416748046875,-0.8852837681770325,0.4677214026451111,4.1547369956970215,80.65286254882812,-58.58515930175781,238.1769561767578
1700075711,1.4066619873046875,0.773651123046875,-0.4632720947265625,-0.7377781867980957,0.601699948310852,4.209549903869629,80.252685546875,-58.18846130371094,238.5539093017578
1700075711,1.4588775634765625,1.0037384033203125,-0.5622711181640625,-0.9554742574691772,0.8405346274375916,3.9618868827819824,80.71075439453125,-57.17182922363281,238.83984375
1700075711,1.5664825439453125,1.197967529296875,-0.621551513671875,-1.0794519186019895,1.1561490297317505,3.5572824478149414,80.49334716796875,-56.65705871582031,238.8457946777344
1700075711,1.5625,1.2500152587890625,-0.6530609130859375,-0.7154523730278015,1.32055401802063,3.242677927017212,80.38833618164062,-56.23500061035156,238.3793182373047
1700075711,1.477874755859375,1.05157470703125,-0.6262664794921875,-0.2625181674957275,1.2784802913665771,2.959178686141968,80.26759338378906,-55.84846496582031,238.45123291015625
1700075711,1.4347076416015625,0.73797607421875,-0.5893402099609375,-0.0604739971458911,1.2047784328460691,2.76575779914856,79.69587707519531,-55.35566711425781,237.5315399169922
1700075711,1.3751220703125,0.5596160888671875,-0.5868988037109375,-0.0655350685119628,1.1196690797805786,2.641155958175659,79.49067687988281,-55.7320556640625,236.55255126953125
1700075711,1.290802001953125,0.4522552490234375,-0.5387725830078125,-0.1087427288293838,1.0647408962249756,2.454761981964112,78.4947509765625,-54.92567443847656,236.0068359375
1700075711,1.2115936279296875,0.3226776123046875,-0.4841766357421875,-0.106806606054306,1.018104076385498,2.2141449451446533,77.69349670410156,-54.01873779296875,235.7945709228516
1700075711,1.097137451171875,0.212982177734375,-0.45941162109375,-0.1493135839700698,0.9355586171150208,1.985273122787476,77.21235656738281,-53.17451477050781,235.8627777099609
1700075711,0.977630615234375,0.143768310546875,-0.4551544189453125,-0.2897138297557831,0.853730320930481,1.7553086280822754,76.38728332519531,-52.357666015625,236.1443634033203
1700075711,0.8983001708984375,0.0843505859375,-0.4319000244140625,-0.5023834705352783,0.7578309774398804,1.4872686862945557,75.77064514160156,-51.95405578613281,235.58253479003903
1700075711,0.8126678466796875,0.0111846923828125,-0.372406005859375,-0.665885329246521,0.654375433921814,1.1706302165985107,74.84617614746094,-51.198028564453125,235.8568572998047
1700075711,0.7140350341796875,-0.0703887939453125,-0.295379638671875,-0.807163655757904,0.5715436339378357,0.8556757569313049,74.380126953125,-49.980377197265625,235.182846069336
1700075711,0.5586700439453125,-0.119537353515625,-0.2706298828125,-0.8826802372932434,0.5251279473304749,0.5672064423561096,73.84007263183594,-49.32115173339844,235.81890869140625
1700075711,0.40179443359375,-0.15301513671875,-0.220703125,-0.7954156398773193,0.4308983981609344,0.2406086176633834,73.49464416503906,-48.68782043457031,235.7071533203125
1700075711,0.3255767822265625,-0.19793701171875,-0.11187744140625,-0.6124290227890015,0.3072414398193359,-0.0910231173038482,73.09326171875,-48.30165100097656,235.60983276367188
1700075711,0.296295166015625,-0.222412109375,-0.0447235107421875,-0.4304099678993225,0.222277283668518,-0.330879658460617,72.32125854492188,-47.59562683105469,235.981674194336
1700075711,0.2569732666015625,-0.1786956787109375,-0.0481414794921875,-0.3493396341800689,0.0935784205794334,-0.5455056428909302,71.64761352539062,-47.09347534179688,235.4569854736328
1700075711,0.2599334716796875,-0.1254730224609375,-0.0770263671875,-0.4234372973442077,-0.0369665399193763,-0.854404628276825,71.34733581542969,-47.02793884277344,235.001693725586
1700075711,0.2946319580078125,-0.1125640869140625,-0.1153106689453125,-0.5836285352706909,-0.1661756634712219,-1.2307980060577393,70.97065734863281,-46.967071533203125,234.6143035888672
1700075711,0.2722320556640625,-0.132659912109375,-0.1219329833984375,-0.7607404589653015,-0.2888842523097992,-1.5345168113708496,70.65272521972656,-47.00016784667969,234.5746917724609
1700075711,0.207672119140625,-0.1558990478515625,-0.0960235595703125,-0.988210380077362,-0.3790642321109772,-1.7514156103134155,70.57559204101562,-47.105743408203125,234.6241455078125
1700075711,0.1459197998046875,-0.204071044921875,-0.1132049560546875,-1.2269164323806765,-0.4688018262386322,-1.905295968055725,70.41543579101562,-47.17584228515625,234.12277221679688
1700075711,0.087890625,-0.22772216796875,-0.1571502685546875,-1.525650978088379,-0.5105506181716919,-2.11306095123291,70.34349060058594,-47.53948974609375,233.58729553222656
1700075711,0.0682220458984375,-0.2757415771484375,-0.210540771484375,-1.8363834619522093,-0.5845433473587036,-2.3107383251190186,70.19781494140625,-47.79731750488281,233.09266662597656
1700075711,0.051239013671875,-0.2610931396484375,-0.2085723876953125,-2.145566463470459,-0.6716846227645874,-2.5012366771698,70.138916015625,-48.02604675292969,232.6282196044922
1700075711,0.0394287109375,-0.1608734130859375,-0.2144012451171875,-2.330432415008545,-0.7971336245536804,-2.699474811553955,70.82621765136719,-48.21211242675781,233.07041931152344
1700075711,0.050445556640625,-0.0068511962890625,-0.2090301513671875,-2.186903715133667,-0.8879221081733704,-2.8427720069885254,71.35563659667969,-48.46856689453125,232.8652801513672
1700075711,0.0720977783203125,0.12640380859375,-0.1435394287109375,-1.950960636138916,-0.8813507556915283,-2.9683377742767334,71.57301330566406,-49.07150268554688,232.46856689453125
1700075711,0.106964111328125,0.198577880859375,-0.0886688232421875,-1.5736565589904783,-0.9609553217887878,-3.0534427165985107,72.21868896484375,-49.26908874511719,232.2611389160156
1700075711,0.1048583984375,0.4044189453125,-0.214996337890625,-0.9551291465759276,-0.9776405692100524,-3.114504098892212,72.7386474609375,-49.8514404296875,232.1470642089844
1700075711,0.1180267333984375,0.6287841796875,-0.3322296142578125,-0.5078227519989014,-0.8687990307807922,-3.1081817150115967,73.35804748535156,-50.40602111816406,232.0225830078125
1700075711,0.1410369873046875,0.808258056640625,-0.4040985107421875,-0.0938271582126617,-0.7551366686820984,-2.996278047561645,73.87753295898438,-51.195892333984375,231.35662841796875
1700075711,0.1673736572265625,0.9942626953125,-0.5732269287109375,0.1091776192188263,-0.658345639705658,-2.7790098190307617,74.69624328613281,-52.022491455078125,231.55401611328125
1700075711,0.1994781494140625,1.1950531005859375,-0.7967376708984375,0.059447880834341,-0.5867202281951904,-2.462387561798096,75.78729248046875,-52.80841064453125,231.78857421875
1700075711,0.285003662109375,1.35833740234375,-0.8872833251953125,0.1367416083812713,-0.5183731317520142,-1.994133472442627,76.740966796875,-53.6553955078125,230.91354370117188
1700075711,0.346649169921875,1.50299072265625,-0.8425140380859375,0.3876039087772369,-0.3642629086971283,-1.5010709762573242,77.10682678222656,-54.15016174316406,230.91798400878903
1700075711,0.325958251953125,1.60888671875,-0.8446197509765625,0.5212794542312622,-0.235394150018692,-1.0089739561080933,78.34222412109375,-55.05122375488281,230.7904357910156
1700075711,0.253662109375,1.804840087890625,-0.86065673828125,0.5657217502593994,-0.1199101582169532,-0.7018561363220215,79.26126098632812,-55.55108642578125,231.3907623291016
1700075711,0.2420806884765625,1.9128875732421875,-0.781829833984375,0.5700376629829407,0.0458055697381496,-0.5682535767555237,80.23521423339844,-56.04765319824219,231.30828857421875
1700075711,0.2957763671875,1.79052734375,-0.65509033203125,0.4910964965820312,0.8270518779754639,-0.6428769826889038,80.93318176269531,-56.41999816894531,231.6639404296875
1700075711,0.26190185546875,1.4221649169921875,-1.2256622314453125,1.3063409328460691,0.2791767716407776,-0.3237796723842621,81.88882446289062,-55.76502990722656,232.34181213378903
1700075711,0.5668182373046875,1.311065673828125,-0.5604400634765625,0.3735416233539581,-0.2645823955535888,-0.2656077146530151,81.97850036621094,-55.613311767578125,232.2879943847656
1700075711,1.3606414794921875,0.9376678466796876,0.0123138427734375,-0.3725104629993438,-0.3500959575176239,-0.4730855226516723,82.41961669921875,-55.29817199707031,232.7167510986328
1700075711,1.6110687255859375,0.339813232421875,0.2750701904296875,0.0835500210523605,-0.2582781612873077,-0.2997901737689972,82.84637451171875,-55.189239501953125,233.2958831787109
1700075711,1.392303466796875,0.2942657470703125,0.0782623291015625,-0.1695594638586044,-0.2200442105531692,-0.0041521345265209,83.01881408691406,-54.58955383300781,233.3401336669922
1700075711,1.1742401123046875,0.267791748046875,-0.59716796875,-0.0755874365568161,-0.3658208549022674,0.4401827156543731,83.1455078125,-54.80464172363281,233.74734497070312
1700075711,1.3419342041015625,0.3516693115234375,-0.5515594482421875,-0.0570616871118545,-0.5778361558914185,0.6098870635032654,83.36312866210938,-54.31149291992188,233.1987762451172
1700075711,2.1338653564453125,0.321563720703125,-0.2398529052734375,-0.5186024308204651,-0.5295125842094421,0.7013304233551025,83.18545532226562,-54.14131164550781,233.66246032714844
1700075711,1.967315673828125,0.3643035888671875,-0.1796112060546875,-0.4470137059688568,-0.3656541407108307,0.7209962606430054,82.95867919921875,-54.05879211425781,233.2930450439453
1700075711,0.985198974609375,0.371734619140625,-0.3903656005859375,-0.2741356790065765,-0.3644618391990661,0.5444462895393372,83.16444396972656,-54.05491638183594,234.15142822265625
1700075711,0.5052642822265625,0.337615966796875,-0.4732208251953125,-0.276300311088562,-0.308429479598999,0.3225215971469879,83.76716613769531,-54.31861877441406,233.734619140625
1700075711,0.4834136962890625,0.4307098388671875,-0.4025421142578125,-0.2552118003368377,-0.1402463167905807,0.0540826767683029,83.408447265625,-54.080413818359375,234.2486572265625
1700075711,0.75787353515625,0.4324493408203125,-0.2589111328125,-0.16850645840168,-0.048001080751419,-0.0908572003245353,83.39768981933594,-53.60285949707031,234.4408569335937
1700075711,0.9791259765625,0.3986663818359375,-0.2437591552734375,-0.0260331984609365,-0.0026202842127531,-0.1606115102767944,83.35089111328125,-53.463897705078125,233.9720001220703
1700075711,1.074676513671875,0.31640625,-0.3359222412109375,0.09514781832695,-0.0016636766958981,-0.1928426921367645,83.2298583984375,-53.75807189941406,233.67727661132807
1700075711,1.0644683837890625,0.24237060546875,-0.3907623291015625,0.1646462082862854,-0.0409714020788669,-0.2049230486154556,83.37062072753906,-53.60597229003906,233.79335021972656
1700075711,1.00054931640625,0.2191925048828125,-0.474365234375,0.2051606029272079,-0.1303098052740097,-0.2338652163743972,83.26161193847656,-53.581573486328125,233.67459106445312
1700075711,0.955841064453125,0.228515625,-0.516387939453125,0.1940262019634246,-0.237725481390953,-0.266631156206131,83.36679077148438,-53.53465270996094,234.09048461914065
1700075711,0.9721221923828124,0.2863006591796875,-0.4732208251953125,0.1183804422616958,-0.3196203410625458,-0.3217407464981079,83.35035705566406,-53.5166015625,234.3851776123047
1700075711,1.001617431640625,0.329681396484375,-0.4275665283203125,0.1006195545196533,-0.3721008598804474,-0.3985835909843445,83.28009033203125,-53.42991638183594,233.7284240722656
1700075711,0.9928436279296876,0.308624267578125,-0.4235076904296875,0.1361242830753326,-0.4372982382774353,-0.4447945058345794,83.26715087890625,-53.62075805664063,233.6195678710937
1700075711,0.9661865234375,0.2678680419921875,-0.453033447265625,0.1436530351638794,-0.5239034295082092,-0.4767686724662781,82.8035888671875,-53.975677490234375,233.79541015625
1700075711,0.9835968017578124,0.210235595703125,-0.442535400390625,0.1652358323335647,-0.5774428248405457,-0.4666588008403778,82.73329162597656,-53.80006408691406,233.75247192382807
1700075711,0.9748382568359376,0.1806488037109375,-0.4218292236328125,0.1778485625982284,-0.6151918172836304,-0.4382130205631256,83.31103515625,-53.977874755859375,233.5791015625
1700075711,0.9652557373046876,0.1854095458984375,-0.3933563232421875,0.1310256570577621,-0.6380259990692139,-0.4243672490119934,83.3614501953125,-54.24766540527344,233.83563232421875
1700075711,0.9796600341796876,0.189697265625,-0.3796234130859375,0.1064521372318267,-0.6352089047431946,-0.4206124544143677,82.87139892578125,-54.36842346191406,234.05242919921875
1700075711,0.9774932861328124,0.19805908203125,-0.3821563720703125,0.1266231834888458,-0.6586750745773315,-0.4234993457794189,83.37098693847656,-54.00880432128906,233.54248046875
1700075711,0.9809112548828124,0.207763671875,-0.358612060546875,0.123795710504055,-0.6662821769714355,-0.4541379511356354,83.44660949707031,-54.51530456542969,233.71961975097656
1700075711,0.9947967529296876,0.2063446044921875,-0.34405517578125,0.1410013288259506,-0.6380183100700378,-0.4793157279491424,83.47911071777344,-54.60023498535156,233.561752319336
1700075711,0.9746856689453124,0.21368408203125,-0.325592041015625,0.1813471466302871,-0.6119464635848999,-0.5087575316429138,83.49769592285156,-54.86961364746094,233.98448181152344
1700075711,0.9570159912109376,0.2184295654296875,-0.2694091796875,0.227007582783699,-0.5802205204963684,-0.5387055277824402,84.00218200683594,-54.600006103515625,234.01109313964844
1700075711,0.9375152587890624,0.2166290283203125,-0.259765625,0.2213968336582183,-0.5552059412002563,-0.5563822984695435,83.97537231445312,-54.98406982421875,233.5382843017578
1700075711,0.930023193359375,0.209716796875,-0.2993316650390625,0.2299738079309463,-0.5635550022125244,-0.5490000247955322,84.21261596679688,-55.27778625488281,234.1228942871093
1700075711,0.9265899658203124,0.19830322265625,-0.33380126953125,0.2074751555919647,-0.5530136227607727,-0.5429983139038086,84.25440979003906,-55.48667907714844,234.2201232910156
1700075711,0.924530029296875,0.175140380859375,-0.335693359375,0.2012185901403427,-0.5311669707298279,-0.5502319931983948,84.20314025878906,-55.51884460449219,233.9943389892578
1700075711,0.9239654541015624,0.1373291015625,-0.2638702392578125,0.2369590103626251,-0.4895164370536804,-0.5088842511177063,85.10519409179688,-56.09930419921875,234.4418792724609
1700075711,0.9478912353515624,0.0933380126953125,-0.243743896484375,0.3022671937942505,-0.4432453513145447,-0.4316549897193908,85.53865051269531,-56.05305480957031,234.8458404541016
1700075711,0.985870361328125,0.053497314453125,-0.2709808349609375,0.3891378939151764,-0.4080050587654114,-0.3533969521522522,85.38800048828125,-56.18791198730469,235.1053771972656
1700075711,0.9622802734375,0.045745849609375,-0.2836761474609375,0.3989143669605255,-0.390962690114975,-0.3132489919662475,85.67878723144531,-56.334503173828125,234.95172119140625
1700075711,0.924072265625,0.08978271484375,-0.267547607421875,0.2863420248031616,-0.3767278492450714,-0.3048075735569,85.55319213867188,-56.51850891113281,234.3822021484375
1700075711,0.8899078369140625,0.138885498046875,-0.2275543212890625,0.2257827967405319,-0.3330927491188049,-0.2602097392082214,86.04458618164062,-56.3770751953125,234.9781494140625
1700075711,0.855987548828125,0.132781982421875,-0.1771240234375,0.2881271243095398,-0.2682351768016815,-0.1508699357509613,86.40414428710938,-56.57249450683594,235.3751983642578
1700075711,0.86322021484375,0.0588531494140625,-0.2347259521484375,0.3562246859073639,-0.2362271845340728,-0.0303078386932611,86.19369506835938,-56.34892272949219,235.2919921875
1700075711,0.9338836669921876,-0.0412139892578125,-0.31524658203125,0.3918913304805755,-0.2623272240161896,0.0628697723150253,86.87399291992188,-56.71714782714844,235.34169006347656
1700075711,0.976226806640625,-0.100189208984375,-0.309478759765625,0.3124577701091766,-0.2703489363193512,0.1241291388869285,86.87818908691406,-56.7474365234375,235.996810913086
1700075711,0.95263671875,-0.088897705078125,-0.3015594482421875,0.1329772174358368,-0.2321232557296753,0.1964763104915619,87.01605224609375,-57.08056640625,235.28749084472656
1700075711,0.8911285400390625,-0.04241943359375,-0.310211181640625,0.0855332762002945,-0.1807221174240112,0.2806527018547058,87.30451965332031,-57.31828308105469,235.6770477294922
1700075711,0.8340911865234375,-0.0075225830078125,-0.253448486328125,0.0750918239355087,-0.1427006870508194,0.3925603330135345,87.36434936523438,-57.39189147949219,235.4316864013672
1700075711,0.834014892578125,0.0309295654296875,-0.1653594970703125,0.0519548095762729,-0.1186922937631607,0.5197134613990784,87.9267578125,-57.43775939941406,235.8221740722656
1700075711,0.861358642578125,0.077667236328125,-0.1796875,0.0485957637429237,-0.0878385081887245,0.591392993927002,87.76077270507812,-57.53788757324219,235.9729156494141
1700075711,0.888671875,0.0872955322265625,-0.254119873046875,-0.002051965566352,-0.0829177871346473,0.6190747022628784,87.80560302734375,-57.33192443847656,236.0345153808593
1700075711,0.89923095703125,0.1074981689453125,-0.273651123046875,-0.1051855385303497,-0.0745277628302574,0.6566055417060852,88.12994384765625,-57.57098388671875,236.6790008544922
1700075711,0.9076690673828124,0.125579833984375,-0.2235260009765625,-0.0451664142310619,-0.0471629835665226,0.7011562585830688,88.1197509765625,-57.632904052734375,236.5252990722656
1700075711,0.8996734619140625,0.1200408935546875,-0.1931610107421875,0.020446952432394,-0.0340642258524894,0.739260196685791,88.24867248535156,-57.56040954589844,236.5859375
1700075711,0.92791748046875,0.121063232421875,-0.199127197265625,0.0064493771642446,-0.0393636524677276,0.794995903968811,88.60008239746094,-57.7197265625,236.5578765869141
1700075711,0.995758056640625,0.119537353515625,-0.1830596923828125,-0.1032531484961509,-0.0597560070455074,0.8559610247612,88.52018737792969,-57.593048095703125,236.6433258056641
1700075712,1.055511474609375,0.0990447998046875,-0.2376861572265625,-0.1275859177112579,-0.0841665416955947,0.8754380345344543,88.69282531738281,-57.86268615722656,236.7395477294922
1700075712,1.0547637939453125,0.125244140625,-0.34136962890625,-0.1037756651639938,-0.1227325797080993,0.813296914100647,88.78173828125,-57.48329162597656,236.4910430908203
1700075712,1.0500030517578125,0.2196502685546875,-0.275299072265625,-0.0492956452071666,-0.1289113759994506,0.7291966676712036,88.51229858398438,-57.51261901855469,236.20440673828125
1700075712,1.04833984375,0.375213623046875,-0.1636810302734375,0.0019531622529029,-0.1300096660852432,0.6279699206352234,88.75242614746094,-57.585479736328125,236.06092834472656
1700075712,1.0429840087890625,0.4725189208984375,-0.14959716796875,0.0798953622579574,-0.1491522043943405,0.5525928735733032,88.73103332519531,-57.310455322265625,236.28533935546875
1700075712,1.061065673828125,0.4474029541015625,-0.112335205078125,0.0118436096236109,-0.2047427594661712,0.5719447135925293,88.72354125976562,-57.16987609863281,236.61883544921875
1700075712,1.0868072509765625,0.350067138671875,-0.0928192138671875,-0.113482616841793,-0.2485277950763702,0.6245152950286865,88.79829406738281,-56.82292175292969,236.3420562744141
1700075712,1.134765625,0.221160888671875,-0.186859130859375,-0.15617735683918,-0.3067860305309295,0.6619079113006592,88.81770324707031,-56.787689208984375,236.935775756836
1700075712,1.2082061767578125,0.123443603515625,-0.298370361328125,-0.1307465583086013,-0.3861860632896423,0.6689647436141968,89.18501281738281,-56.71372985839844,237.1763458251953
1700075712,1.30841064453125,0.06976318359375,-0.296295166015625,-0.0700890719890594,-0.4532543122768402,0.69158935546875,88.95291137695312,-55.78111267089844,237.31158447265625
1700075712,1.38848876953125,0.11187744140625,-0.2641143798828125,0.0194796919822692,-0.5220099091529846,0.6906756162643433,88.73190307617188,-55.98240661621094,237.4242401123047
1700075712,1.458648681640625,0.14166259765625,-0.1968231201171875,0.1256740391254425,-0.5736312866210938,0.7109146118164062,88.61393737792969,-55.3807373046875,237.38243103027344
1700075712,1.513824462890625,0.129852294921875,-0.1161346435546875,0.1274034976959228,-0.654376745223999,0.7579249739646912,88.90837097167969,-54.8858642578125,237.8883056640625
1700075712,1.59649658203125,0.0471954345703125,-0.013214111328125,0.0019089538836851,-0.6599363684654236,0.8256505131721497,88.43368530273438,-54.544921875,237.800521850586
1700075712,1.6704864501953125,-0.0982666015625,-0.0102691650390625,-0.2210990935564041,-0.6779752969741821,0.9377685189247132,88.78286743164062,-54.53950500488281,238.4577178955078
1700075712,1.656005859375,-0.1640167236328125,0.0148468017578125,-0.2383081763982772,-0.737392008304596,0.9821639657020568,88.67681884765625,-54.43731689453125,239.13604736328125
1700075712,1.579315185546875,-0.20184326171875,0.0160980224609375,-0.0768039673566818,-0.7826308608055115,0.9295167326927184,88.65255737304688,-53.63595581054688,238.94500732421875
1700075712,1.5603485107421875,-0.2726287841796875,0.062042236328125,0.18509341776371,-0.7998743057250977,0.8408704996109009,89.00584411621094,-52.88276672363281,238.8267974853516
1700075712,1.592254638671875,-0.3067626953125,0.16632080078125,0.342726469039917,-0.807317316532135,0.7153444886207581,88.42828369140625,-52.66357421875,238.5952606201172
1700075712,1.6142730712890625,-0.31158447265625,0.20135498046875,0.355503499507904,-0.7750712037086487,0.5888555645942688,88.62908935546875,-52.17362976074219,239.06500244140625
1700075712,1.5889434814453125,-0.36187744140625,0.14349365234375,0.2603559494018554,-0.6388697028160095,0.4959178864955902,88.29959106445312,-51.64915466308594,239.91180419921875
1700075712,1.5230560302734375,-0.419830322265625,-0.088226318359375,0.1841549277305603,-0.4450246095657348,0.5866062045097351,88.39308166503906,-51.42366027832031,239.81138610839844
1700075712,1.430633544921875,-0.3121185302734375,-0.496490478515625,-0.2145426571369171,-0.3678808212280273,1.0700184106826782,87.65432739257812,-51.11737060546875,239.3245086669922
1700075712,1.147613525390625,0.0220184326171875,-0.937652587890625,-1.245255708694458,-0.2803384363651275,1.7781559228897097,87.67506408691406,-50.705474853515625,238.89703369140625
1700075712,0.8343963623046875,0.217315673828125,-1.2260589599609375,-2.320040225982666,-0.022594790905714,2.2966232299804688,87.06761169433594,-50.3006591796875,239.0633087158203
1700075712,0.8012847900390625,0.1062164306640625,-1.1784515380859375,-2.803907871246338,0.341301679611206,2.732428550720215,86.61581420898438,-50.11665344238281,237.7630920410156
1700075712,0.9680938720703124,0.119720458984375,-0.9790191650390624,-2.94006085395813,0.5488902926445007,3.3521993160247803,85.74272155761719,-49.538818359375,237.3599853515625
1700075712,1.058837890625,0.529632568359375,-0.897918701171875,-2.643324136734009,0.5418677926063538,3.952069044113159,85.00889587402344,-48.74293518066406,237.4724884033203
1700075712,1.1472320556640625,0.9150238037109376,-0.7054595947265625,-2.086764097213745,0.4721361100673675,4.361513137817383,84.05859375,-47.9405517578125,237.05667114257807
1700075712,1.324859619140625,1.2678680419921875,-0.41943359375,-1.493813395500183,0.8347281813621521,4.256046295166016,83.14012145996094,-47.00485229492188,236.6831970214844
1700075712,1.52362060546875,1.4238433837890625,-0.4397125244140625,-0.9312072992324828,1.061650276184082,4.033085346221924,82.16203308105469,-46.34046936035156,236.2545623779297
1700075712,1.6342926025390625,1.332427978515625,-0.4459686279296875,-0.5460614562034607,0.980890452861786,3.7962028980255127,81.02618408203125,-45.26509094238281,236.28433227539065
1700075712,1.7006988525390625,0.786346435546875,-0.4028778076171875,-0.2114576548337936,0.9502976536750792,3.565934896469116,79.86569213867188,-44.59190368652344,236.0556182861328
1700075712,1.6506195068359375,0.2494659423828125,-0.462188720703125,-0.0422430597245693,0.9534324407577516,3.4882423877716064,79.42193603515625,-43.82777404785156,235.8979339599609
1700075712,1.467315673828125,0.083587646484375,-0.524658203125,0.0559506155550479,0.8909922242164612,3.620551586151123,78.09088134765625,-42.92523193359375,236.0380859375
1700075712,1.27886962890625,0.0853271484375,-0.5227508544921875,0.2098887860774994,0.7650824785232544,3.718609809875488,76.75013732910156,-42.696868896484375,235.7481231689453
1700075712,1.17474365234375,0.0831298828125,-0.4893951416015625,0.3462935090065002,0.599236786365509,3.631126880645752,76.70759582519531,-42.203887939453125,235.59336853027344
1700075712,1.0960845947265625,0.1061859130859375,-0.4271392822265625,0.3634317517280578,0.4299242198467254,3.3725786209106445,75.66387939453125,-41.60104370117188,235.23223876953125
1700075712,1.030059814453125,0.1426849365234375,-0.3220367431640625,0.3561988472938537,0.2781173586845398,3.0505237579345703,74.62391662597656,-41.64189147949219,234.610107421875
1700075712,0.9734954833984376,0.09967041015625,-0.1869354248046875,0.3960863649845123,0.1119041666388511,2.689270496368408,73.9791259765625,-41.58575439453125,234.562255859375
1700075712,0.8951873779296875,-0.0270843505859375,-0.1140289306640625,0.4305452704429626,-0.1233578845858573,2.3806018829345703,73.34394836425781,-41.62542724609375,234.25341796875
1700075712,0.7768402099609375,-0.132354736328125,-0.1296539306640625,0.2633602619171142,-0.3719208240509033,2.1030352115631104,73.06649780273438,-41.86982727050781,233.4846649169922
1700075712,0.6603546142578125,-0.2156829833984375,-0.20849609375,-0.1012113094329834,-0.6124820113182068,1.8394323587417605,72.66529846191406,-42.22947692871094,233.2147521972656
1700075712,0.530853271484375,-0.2899932861328125,-0.2275238037109375,-0.617541491985321,-0.8754212856292725,1.5822415351867676,72.657470703125,-42.16253662109375,232.61184692382807
1700075712,0.393218994140625,-0.3560943603515625,-0.214141845703125,-1.207512140274048,-1.1173750162124634,1.2853264808654783,72.39421081542969,-41.92486572265625,232.6123504638672
1700075712,0.2847137451171875,-0.428924560546875,-0.2331085205078125,-1.788878321647644,-1.304556131362915,0.959156095981598,72.35287475585938,-42.779876708984375,232.7275238037109
1700075712,0.211639404296875,-0.492919921875,-0.286224365234375,-2.213125467300415,-1.417000651359558,0.6316000819206238,71.81330871582031,-42.76118469238281,232.3941345214844
1700075712,0.1700439453125,-0.5443115234375,-0.3213348388671875,-2.426957130432129,-1.497261643409729,0.3172014057636261,72.63328552246094,-42.85554504394531,232.3260192871093
1700075712,0.1775665283203125,-0.56195068359375,-0.3445892333984375,-2.522773027420044,-1.6300151348114014,0.0106244143098592,72.45646667480469,-43.04179382324219,232.15887451171875
1700075712,0.23577880859375,-0.523040771484375,-0.38134765625,-2.654227495193481,-1.820392608642578,-0.3502682745456695,73.47834777832031,-43.38990783691406,231.573486328125
1700075712,0.301361083984375,-0.429718017578125,-0.41375732421875,-2.7905542850494385,-2.006204605102539,-0.704058825969696,74.10047912597656,-43.46353149414063,231.32965087890625
1700075712,0.31231689453125,-0.335723876953125,-0.423095703125,-2.8730456829071045,-2.169209718704224,-1.0177128314971924,74.85873413085938,-44.59112548828125,230.7364196777344
1700075712,0.29864501953125,-0.2708740234375,-0.433929443359375,-2.916465282440185,-2.308661937713623,-1.2894586324691772,75.57736206054688,-45.20123291015625,230.5718536376953
1700075712,0.2872161865234375,-0.2172698974609375,-0.449951171875,-2.920939683914185,-2.4584875106811523,-1.5571918487548828,76.0826416015625,-45.82623291015625,230.3503875732422
1700075712,0.324493408203125,-0.1670074462890625,-0.4373779296875,-2.8696846961975098,-2.651887893676758,-1.814295768737793,77.16896057128906,-46.41207885742188,229.7870941162109
1700075712,0.3924407958984375,-0.1227874755859375,-0.400146484375,-2.756894588470459,-2.807868003845215,-2.0234389305114746,78.48568725585938,-47.14073181152344,229.6102600097656
1700075712,0.446197509765625,-0.0944366455078125,-0.381988525390625,-2.683114528656006,-2.906113147735596,-2.246216297149658,79.15618896484375,-47.69923400878906,229.9127197265625
1700075712,0.5069580078125,-0.0798797607421875,-0.404541015625,-2.6775264739990234,-2.9960639476776123,-2.493926763534546,80.23980712890625,-48.21070861816406,230.03439331054688
1700075712,0.59417724609375,-0.0586090087890625,-0.459686279296875,-2.57822322845459,-3.0930497646331787,-2.7418811321258545,81.51741027832031,-48.67010498046875,229.6712951660156
1700075712,0.672760009765625,-0.0328826904296875,-0.500885009765625,-2.404787302017212,-3.179013729095459,-2.936323881149292,82.58267211914062,-49.0582275390625,230.1509552001953
1700075712,0.7205352783203125,0.004547119140625,-0.5177001953125,-2.3074100017547607,-3.254638671875,-3.1986262798309326,83.41154479980469,-49.039642333984375,230.33956909179688
1700075712,0.7967071533203125,0.011383056640625,-0.5269622802734375,-2.107543706893921,-3.332467794418335,-3.461090564727783,84.30393981933594,-49.43397521972656,230.95230102539065
1700075712,0.8609619140625,-0.0059051513671875,-0.4866790771484375,-1.7966991662979126,-3.3205320835113525,-3.697220802307129,85.18235778808594,-49.104522705078125,231.776123046875
1700075712,0.894317626953125,0.0175323486328125,-0.5417022705078125,-1.6046054363250732,-3.2079896926879883,-3.90508246421814,85.61123657226562,-49.07684326171875,232.784408569336
1700075712,0.9297943115234376,0.0830841064453125,-0.681976318359375,-1.6175854206085205,-3.118856430053711,-4.123136520385742,86.21209716796875,-48.92839050292969,232.57579040527344
1700075712,1.0129547119140625,0.1405792236328125,-0.7781829833984375,-1.7960262298583984,-3.066884994506836,-4.36407470703125,86.19296264648438,-48.17326354980469,232.75791931152344
1700075712,1.1230621337890625,0.148101806640625,-0.8033447265625,-1.98301899433136,-3.049113512039185,-4.544027805328369,86.49856567382812,-48.29280090332031,233.1191253662109
1700075712,1.194854736328125,0.129547119140625,-0.7635650634765625,-2.075993776321411,-2.993414878845215,-4.626133441925049,86.40782165527344,-47.95916748046875,232.9766082763672
1700075712,1.2060089111328125,0.1384124755859375,-0.7242431640625,-2.134014368057251,-2.913151502609253,-4.694272041320801,85.63983154296875,-47.56906127929688,232.6741180419922
1700075712,1.2390899658203125,0.1878814697265625,-0.7204437255859375,-2.175781488418579,-2.8184261322021484,-4.827897548675537,85.92288208007812,-47.31294250488281,233.70968627929688
1700075712,1.3411102294921875,0.2366180419921875,-0.72747802734375,-2.2204270362854004,-2.7201106548309326,-4.961933612823486,86.66278076171875,-47.65776062011719,233.5487823486328
1700075712,1.481201171875,0.273712158203125,-0.7041168212890625,-2.256799936294556,-2.6005449295043945,-4.9768385887146,86.57083129882812,-48.01983642578125,233.0449981689453
1700075712,1.586181640625,0.3219451904296875,-0.6886749267578125,-2.1781132221221924,-2.4432713985443115,-4.840390205383301,86.5821533203125,-47.64306640625,233.5333404541016
1700075712,1.668731689453125,0.39178466796875,-0.7163238525390625,-2.194447755813598,-2.3297135829925537,-4.661907196044922,86.56842041015625,-47.4267578125,233.34971618652344
1700075712,1.7624359130859375,0.4846649169921875,-0.7950286865234375,-2.273756265640259,-2.282142400741577,-4.52280855178833,86.32466125488281,-47.31782531738281,232.93609619140625
1700075712,1.8526458740234373,0.6027069091796875,-0.843902587890625,-2.303675413131714,-2.2564613819122314,-4.357569217681885,86.59939575195312,-47.65423583984375,233.8480834960937
1700075712,1.8890838623046875,0.72076416015625,-0.771759033203125,-2.338068723678589,-2.1717708110809326,-4.1178741455078125,86.53305053710938,-47.54345703125,233.27818298339844
1700075712,1.817138671875,0.7919158935546875,-0.67681884765625,-2.286665201187134,-2.0165047645568848,-3.8174290657043457,86.5899658203125,-47.35899353027344,233.55615234375
1700075712,1.6700897216796875,0.810760498046875,-0.662994384765625,-2.216534376144409,-1.860679030418396,-3.442072629928589,86.05990600585938,-47.49917602539063,233.42044067382807
1700075712,1.480499267578125,0.8183135986328125,-0.73760986328125,-2.1669013500213623,-1.59284245967865,-3.040843963623047,86.5299072265625,-48.02131652832031,233.1379547119141
1700075712,1.2467498779296875,0.8318634033203125,-0.852569580078125,-2.105738401412964,-1.2075494527816772,-2.678769826889038,86.50741577148438,-48.38343811035156,232.9363555908203
1700075712,0.982696533203125,0.84051513671875,-0.9167633056640624,-1.84595274925232,-0.7853813767433167,-2.2695066928863525,86.52296447753906,-48.33454895019531,233.25616455078125
1700075712,0.7401885986328125,0.9223175048828124,-0.8906097412109375,-1.457792043685913,-0.3976919651031494,-1.7401810884475708,86.97691345214844,-48.26499938964844,233.22244262695312
1700075712,0.6463623046875,1.1063079833984375,-0.8199462890625,-1.0561617612838743,-0.0896127074956893,-1.0833585262298584,86.24630737304688,-48.31060791015625,233.7455291748047
1700075712,0.67877197265625,1.2908172607421875,-0.744415283203125,-0.7555044293403625,0.2320476174354553,-0.415198266506195,86.66342163085938,-48.346527099609375,232.89602661132807
1700075712,0.7236328125,1.347564697265625,-0.7763519287109375,-0.6351394057273865,0.5141858458518982,0.200576514005661,86.946044921875,-48.55314636230469,233.389877319336
1700075712,0.75408935546875,1.2457275390625,-0.8134002685546875,-0.7451756596565247,0.7090434432029724,0.9044044613838196,87.3223876953125,-48.74630737304688,232.6807861328125
1700075712,0.7716217041015625,1.14276123046875,-0.7464141845703125,-1.061355471611023,1.0205034017562866,1.68771493434906,87.05375671386719,-48.94218444824219,232.51223754882807
1700075712,0.572357177734375,1.268157958984375,-0.9326934814453124,-1.339696764945984,1.1337175369262695,2.036323070526123,87.37237548828125,-48.83819580078125,232.71743774414065
1700075712,0.7713165283203125,0.968841552734375,-0.748626708984375,-1.3602553606033323,0.5950420498847961,1.726933240890503,87.58561706542969,-48.83561706542969,232.71157836914065
1700075712,1.485565185546875,-0.0301666259765625,0.457794189453125,-0.738878607749939,-0.0818514600396156,0.1427994966506958,87.80882263183594,-48.89743041992188,232.9794921875
1700075712,2.3507537841796875,-1.7986907958984375,1.7971038818359375,-1.076833724975586,1.3844722509384155,-0.7173905968666077,88.10716247558594,-49.5504150390625,233.09811401367188
1700075712,1.922607421875,-1.8931884765625,0.5081634521484375,-1.9983175992965696,1.7998687028884888,1.162843942642212,88.24859619140625,-49.43232727050781,233.7813720703125
1700075712,1.0976409912109375,-0.17889404296875,-0.5030059814453125,-1.41214919090271,1.5341389179229736,3.251760244369507,88.4815673828125,-49.70884704589844,233.1680603027344
1700075712,1.17535400390625,0.330718994140625,-0.1557159423828125,-0.2245012819766998,1.1130119562149048,3.1813535690307617,88.65321350097656,-49.7662353515625,233.7206268310547
1700075712,1.3694000244140625,-0.2032623291015625,0.010894775390625,0.0241285059601068,0.8052738904953003,2.284980535507202,89.04179382324219,-50.31257629394531,233.7308349609375
1700075712,1.1370086669921875,0.0406341552734375,-0.236480712890625,-0.4659653007984161,0.7815293669700623,1.6581858396530151,89.16998291015625,-50.17436218261719,233.98033142089844
1700075712,0.9449310302734376,0.583221435546875,0.043670654296875,-0.3654264509677887,1.325050950050354,1.2861400842666626,89.62045288085938,-50.33981323242188,234.02120971679688
1700075712,0.8768157958984375,0.8043365478515625,0.1001739501953125,0.3897810578346252,1.6752548217773438,1.060693860054016,89.81509399414062,-50.52110290527344,234.3809356689453
1700075712,0.9281005859375,0.67645263671875,-0.1845245361328125,0.7711425423622131,1.6269035339355469,0.9014464616775512,89.83761596679688,-51.14283752441406,234.1099090576172
1700075713,1.1280670166015625,0.49700927734375,-0.4006805419921875,0.7432986497879028,1.324285864830017,0.6899155974388123,90.27174377441406,-51.39936828613281,234.62820434570312
1700075713,1.315887451171875,0.2744293212890625,-0.5141448974609375,0.3352469801902771,0.9026009440422058,0.5614808797836304,90.98020935058594,-51.19357299804688,234.55213928222656
1700075713,1.304168701171875,0.0979766845703125,-0.513214111328125,-0.0185971204191446,0.5898518562316895,0.6148014068603516,91.16737365722656,-51.98652648925781,234.7967224121093
1700075713,1.1689605712890625,-0.0676422119140625,-0.3345184326171875,-0.1248244866728782,0.519662082195282,0.6920087933540344,91.1289520263672,-52.14445495605469,234.6588134765625
1700075713,1.0349578857421875,-0.2244720458984375,-0.1699981689453125,-0.1129494532942771,0.5364360213279724,0.8004927039146423,91.47454833984376,-51.8638916015625,234.6209716796875
1700075713,0.93353271484375,-0.2453460693359375,-0.063262939453125,-0.2079337537288665,0.5509915351867676,0.8873615264892578,91.78207397460938,-52.565277099609375,234.8850555419922
1700075713,0.9453887939453124,-0.131072998046875,-0.0020294189453125,-0.3735741078853607,0.5910323858261108,0.8073865175247192,92.11018371582033,-52.46427917480469,234.95620727539065
1700075713,1.0146636962890625,-0.023406982421875,0.0260009765625,-0.5245766639709473,0.6264862418174744,0.6882920861244202,91.9360809326172,-52.536041259765625,235.2571716308593
1700075713,1.0368499755859375,0.0727386474609375,0.0401153564453125,-0.6855242848396301,0.6441534161567688,0.6237211227416992,92.519287109375,-52.93632507324219,235.231689453125
1700075713,1.03826904296875,0.11663818359375,-0.0130157470703125,-0.6345670819282532,0.6299627423286438,0.5710786581039429,92.72785949707033,-52.951446533203125,235.1770935058593
1700075713,1.0524139404296875,0.0872344970703125,-0.0981597900390625,-0.4922515153884887,0.5431618094444275,0.4934435188770294,93.115234375,-52.688720703125,235.8922882080078
1700075713,1.083740234375,0.0698394775390625,-0.183135986328125,-0.3136319518089294,0.4252570271492004,0.4498470425605774,92.93125915527344,-52.783599853515625,235.5162048339844
1700075713,1.082000732421875,0.0912322998046875,-0.1905059814453125,-0.1251097172498703,0.3508195281028747,0.400256335735321,93.33244323730467,-53.35990905761719,235.9545135498047
1700075713,1.0714263916015625,0.0746307373046875,-0.1230010986328125,0.0244310405105352,0.3644834160804748,0.3670198023319244,93.47972106933594,-53.449554443359375,236.2587890625
1700075713,1.0252227783203125,0.02825927734375,-0.056060791015625,0.1236111521720886,0.3743059635162353,0.3718222975730896,93.5084991455078,-52.92951965332031,236.77655029296875
1700075713,0.9753265380859376,-0.00390625,-0.0758056640625,0.1354406476020813,0.3455323576927185,0.3608407378196716,93.58694458007812,-52.67779541015625,236.43017578125
1700075713,0.9970245361328124,-0.06817626953125,-0.10736083984375,0.0774798765778541,0.3193886578083038,0.3880955278873443,93.72769165039062,-53.05029296875,236.5024871826172
1700075713,1.0040130615234375,-0.1043701171875,-0.15380859375,-0.0091618066653609,0.2621932625770569,0.4437555968761444,93.53927612304688,-52.85563659667969,236.1990203857422
1700075713,1.0154571533203125,-0.0695037841796875,-0.188140869140625,-0.1308613419532776,0.2136502265930175,0.4428557157516479,93.40631103515624,-53.00238037109375,236.9025421142578
1700075713,1.0530853271484375,-0.032501220703125,-0.1453857421875,-0.1625974327325821,0.2186963856220245,0.4106631577014923,93.5529327392578,-52.63560485839844,236.88250732421875
1700075713,1.037506103515625,-0.0054473876953125,-0.06890869140625,-0.0505883432924747,0.2432350218296051,0.3735147416591644,93.72003173828124,-52.00694274902344,237.3134307861328
1700075713,1.00079345703125,0.01068115234375,-0.0342864990234375,0.0266973916441202,0.2761322557926178,0.3321907222270965,93.332275390625,-51.9442138671875,237.0323181152344
1700075713,0.9882354736328124,-0.0250244140625,-0.0496063232421875,0.0510237701237201,0.2981278300285339,0.3522331416606903,93.8016357421875,-51.89958190917969,236.7278747558593
1700075713,0.9691925048828124,-0.060089111328125,-0.1121826171875,0.059337094426155,0.2710256278514862,0.4192071259021759,93.62655639648438,-51.5947265625,236.98159790039065
1700075713,0.969085693359375,-0.05535888671875,-0.1598052978515625,0.0580345392227172,0.2382114976644516,0.4696268737316131,93.37469482421876,-51.16412353515625,237.5975036621093
1700075713,0.9853363037109376,-0.0306549072265625,-0.1459808349609375,0.0890643596649169,0.2375342547893524,0.4627740383148193,93.33438110351562,-51.15132141113281,237.54852294921875
1700075713,0.994354248046875,-0.0242156982421875,-0.141937255859375,0.1488113105297088,0.2486950308084488,0.4611665606498718,93.729736328125,-50.643890380859375,237.5273284912109
1700075713,0.9942779541015624,-0.04241943359375,-0.1428070068359375,0.1837802231311798,0.2409090250730514,0.5052701234817505,93.52073669433594,-50.17411804199219,237.5687255859375
1700075713,0.9854888916015624,-0.0539398193359375,-0.1307373046875,0.1796014457941055,0.2545254826545715,0.5690091252326965,93.5563507080078,-50.48670959472656,237.4345092773437
1700075713,0.9689788818359376,-0.053497314453125,-0.1333465576171875,0.155744582414627,0.258929044008255,0.6199244856834412,93.45887756347656,-49.75502014160156,238.30274963378903
1700075713,0.94873046875,-0.0373077392578125,-0.130523681640625,0.1058073863387107,0.2678090631961822,0.6585749387741089,93.67660522460938,-49.78726196289063,237.99229431152344
1700075713,0.9347686767578124,-0.03204345703125,-0.1336822509765625,0.0768377929925918,0.2879628241062164,0.6895437836647034,93.3193359375,-49.17457580566406,238.71218872070312
1700075713,0.93914794921875,-0.0492401123046875,-0.141082763671875,0.075351744890213,0.288853645324707,0.7503957152366638,93.93716430664062,-48.90547180175781,239.75115966796875
1700075713,0.9662933349609376,-0.0337677001953125,-0.1573944091796875,0.04695525765419,0.2518160045146942,0.7987014651298523,93.64801025390624,-48.35578918457031,239.1695556640625
1700075713,1.0173797607421875,0.00341796875,-0.1972198486328125,0.0755027458071708,0.2100813239812851,0.8064283132553101,93.6131591796875,-47.97715759277344,239.42596435546875
1700075713,1.0493927001953125,0.0235137939453125,-0.21405029296875,0.1796105057001114,0.1578855067491531,0.814123272895813,93.47373962402344,-47.53318786621094,239.9494171142578
1700075713,1.03955078125,0.0600738525390625,-0.227325439453125,0.2662599086761474,0.1150102093815803,0.8233503103256226,93.4816436767578,-46.80210876464844,240.86471557617188
1700075713,1.033416748046875,0.08331298828125,-0.193450927734375,0.3004170954227447,0.1180954799056053,0.8338298797607422,93.66188049316406,-45.96440124511719,241.3756866455078
1700075713,0.995697021484375,0.0711822509765625,-0.13720703125,0.268343836069107,0.1612330973148346,0.8757845163345337,93.33766174316406,-45.27458190917969,241.63661193847656
1700075713,0.9349212646484376,0.0512847900390625,-0.1051025390625,0.1176209077239036,0.1920855492353439,0.940230906009674,93.1386260986328,-44.9342041015625,241.07049560546875
1700075713,0.912628173828125,0.023895263671875,-0.1110992431640625,-0.055627841502428,0.2189882695674896,1.002792477607727,92.57406616210938,-43.89762878417969,240.4017028808593
1700075713,0.9262542724609376,-0.0067901611328125,-0.1773529052734375,-0.1256817579269409,0.193794772028923,1.0627999305725098,91.6565399169922,-43.84855651855469,239.9004364013672
1700075713,0.9776763916015624,0.016998291015625,-0.19091796875,-0.1454567909240722,0.1430887132883072,1.1081738471984863,90.42709350585938,-43.29464721679688,239.1548614501953
1700075713,1.0337677001953125,0.0992431640625,-0.17938232421875,-0.1171537861227989,0.1204004436731338,1.1032395362854004,89.348876953125,-42.17387390136719,238.13104248046875
1700075713,1.0343017578125,0.1712188720703125,-0.1661376953125,-0.0462394021451473,0.1115073561668396,1.1115679740905762,88.16615295410156,-41.66419982910156,237.50038146972656
1700075713,0.9927215576171876,0.2144012451171875,-0.1667633056640625,-0.0114526581019163,0.0830733180046081,1.1192909479141235,86.96250915527344,-40.31329345703125,237.2948608398437
1700075713,0.975067138671875,0.2100677490234375,-0.16619873046875,-0.0241410229355096,0.0865306332707405,1.1343185901641846,85.94486999511719,-38.82200622558594,236.8879547119141
1700075713,0.9598541259765624,0.1590576171875,-0.173583984375,-0.0800671353936195,0.0954050794243812,1.1678179502487185,84.9373779296875,-37.73094177246094,236.12319946289065
1700075713,0.9307708740234376,0.1111297607421875,-0.1902618408203125,-0.1088226214051246,0.099994771182537,1.1911448240280151,83.55587768554688,-36.73651123046875,235.7290802001953
1700075713,0.9290771484375,0.0725555419921875,-0.1802520751953125,-0.11263919621706,0.1182115972042083,1.2226769924163818,82.09686279296875,-35.523834228515625,235.53839111328125
1700075713,0.9349822998046876,0.09075927734375,-0.200927734375,-0.1311026215553283,0.081570491194725,1.2574162483215332,80.82797241210938,-34.703216552734375,234.77127075195312
1700075713,0.97576904296875,0.1620330810546875,-0.2285614013671875,-0.0923901200294494,0.0200533363968133,1.2645010948181152,79.67091369628906,-33.882293701171875,234.6739959716797
1700075713,1.043304443359375,0.2263031005859375,-0.1654052734375,0.0402651317417621,0.0033427998423576,1.2770613431930542,78.58197021484375,-33.37641906738281,234.7050170898437
1700075713,1.0569610595703125,0.3099517822265625,-0.1021575927734375,0.154684379696846,-0.0110949957743287,1.2722386121749878,77.41069030761719,-32.13165283203125,234.6123504638672
1700075713,1.0577239990234375,0.362335205078125,-0.115936279296875,0.1953194290399551,-0.0330032221972942,1.257642388343811,76.42620849609375,-31.144561767578125,234.13134765625
1700075713,1.09423828125,0.3124542236328125,-0.124542236328125,0.2130217254161834,-0.0621906705200672,1.2884674072265625,75.42913818359375,-30.756423950195312,234.091049194336
1700075713,1.1206512451171875,0.2321929931640625,-0.1385498046875,0.2037973403930664,-0.1071171313524246,1.3601666688919067,74.80282592773438,-29.96981811523437,232.9686584472656
1700075713,1.16064453125,0.194183349609375,-0.1331939697265625,0.2049161344766616,-0.1587768644094467,1.473498821258545,74.26155090332031,-29.051239013671875,233.9190216064453
1700075713,1.21832275390625,0.1876678466796875,-0.0896148681640625,0.1327588409185409,-0.209988385438919,1.6069316864013672,73.4410400390625,-28.65156555175781,233.5655975341797
1700075713,1.2597198486328125,0.1958770751953125,-0.044464111328125,0.0908398926258087,-0.2279245108366012,1.7535560131072998,73.421630859375,-28.148162841796875,233.4408569335937
1700075713,1.2864990234375,0.1885986328125,-0.0219879150390625,0.1038164123892784,-0.2223158925771713,1.87903380393982,72.96754455566406,-27.54071044921875,232.5325469970703
1700075713,1.31585693359375,0.1425323486328125,-0.01708984375,0.1121726110577583,-0.220976322889328,2.006340503692627,72.9036865234375,-27.029266357421875,232.2797088623047
1700075713,1.363128662109375,0.0791473388671875,-0.0150299072265625,0.1076790615916252,-0.2436169236898422,2.1668460369110107,73.48640441894531,-26.82020568847656,232.1364898681641
1700075713,1.4254608154296875,0.022705078125,-0.0270538330078125,0.1633031666278839,-0.2770638167858124,2.350128412246704,73.82313537597656,-26.37518310546875,231.86802673339844
1700075713,1.50537109375,-0.0438995361328125,-0.0117034912109375,0.1848942190408706,-0.2996141314506531,2.529536247253418,73.75486755371094,-25.793045043945312,231.085189819336
1700075713,1.584381103515625,-0.136749267578125,0.041107177734375,0.2047725915908813,-0.3618745803833008,2.725691080093384,74.30499267578125,-25.338409423828125,231.1309509277344
1700075713,1.697998046875,-0.2418670654296875,0.149078369140625,0.1593590378761291,-0.5405881404876709,2.877420425415039,75.00715637207031,-24.84368896484375,230.699935913086
1700075713,1.9515838623046875,-0.374298095703125,0.2106475830078125,0.0674253776669502,-0.7022417783737183,2.9050562381744385,75.99575805664062,-24.64857482910156,230.8549346923828
1700075713,2.3019256591796875,-0.58843994140625,0.163177490234375,0.1339159905910492,-0.6091578602790833,2.7887959480285645,76.93060302734375,-24.6005859375,230.58950805664065
1700075713,2.599945068359375,-0.90252685546875,0.1121826171875,0.4856042563915252,-0.4613239467144012,2.593451976776123,78.46492004394531,-24.233139038085938,230.1501922607422
1700075713,2.569808959960937,-1.18096923828125,0.001312255859375,0.2295082956552505,-0.3160644769668579,2.882496118545532,79.76153564453125,-24.26405334472656,229.9146728515625
1700075713,2.08941650390625,-1.0521240234375,-0.6320648193359375,-0.7963647842407227,0.0866057351231575,3.69953179359436,81.29579162597656,-24.155746459960938,228.0284881591797
1700075713,1.5880279541015625,-0.7123260498046875,-1.43389892578125,-1.6433813571929932,0.276564210653305,4.441095352172852,82.83122253417969,-24.261245727539062,228.13980102539065
1700075713,1.3098602294921875,-0.4771575927734375,-1.570953369140625,-1.9622831344604488,-0.2471181750297546,4.246199607849121,84.48478698730469,-24.66880798339844,226.838623046875
1700075713,1.3288116455078125,-0.503814697265625,-1.497467041015625,-2.82068395614624,-0.3999173045158386,3.598358631134033,86.666748046875,-25.06895446777344,225.9105224609375
1700075713,1.59478759765625,-0.414581298828125,-1.6535186767578125,-3.589808464050293,-0.4407374560832977,3.2526838779449463,88.61207580566406,-25.52255249023437,224.5565643310547
1700075713,1.410888671875,-0.141754150390625,-1.42706298828125,-3.421149253845215,-0.5460353493690491,3.249983549118042,90.41148376464844,-25.717269897460938,223.492431640625
1700075713,0.9331512451171876,0.1238250732421875,-1.03338623046875,-3.13477087020874,-0.5127975344657898,3.1109840869903564,92.99485778808594,-25.938690185546875,223.2257537841797
