timestamp,acc-x,acc-y,acc-z,gyr-x,gyr-y,gyr-z,mag-x,mag-y,mag-z
1700075144,1.098236083984375,-0.2890472412109375,-0.625213623046875,-1.2506721019744873,0.4783604443073272,1.5902824401855469,104.239990234375,-40.35417175292969,274.9515380859375
1700075144,0.991851806640625,-0.0411224365234375,-1.061187744140625,-1.714314103126526,0.5701311230659485,1.970548272132873,103.44725036621094,-39.46122741699219,275.055908203125
1700075144,1.03631591796875,0.1114959716796875,-1.2378692626953125,-1.7796357870101929,0.4983381628990173,2.36216688156128,102.4233856201172,-38.61195373535156,274.8682556152344
1700075144,1.18414306640625,0.271453857421875,-1.150421142578125,-1.5984106063842771,0.3947561085224151,2.7613306045532227,101.69033813476562,-37.690277099609375,275.3002014160156
1700075144,1.23773193359375,0.4734954833984375,-0.9277801513671876,-1.359556794166565,0.1921665072441101,3.051417350769043,100.611572265625,-36.95988464355469,275.62042236328125
1700075144,1.267730712890625,0.6248321533203125,-0.60748291015625,-1.1330770254135132,0.2606736719608307,3.0426104068756104,99.94309997558594,-36.36373901367188,275.3817443847656
1700075144,1.3232269287109375,0.7411956787109375,-0.29400634765625,-0.6274625658988953,0.8139190077781677,2.8241617679595947,98.74732971191406,-35.37364196777344,275.0503234863281
1700075144,1.4034881591796875,0.855743408203125,-0.191131591796875,0.0163558032363653,1.1559845209121704,2.604146718978882,97.81344604492188,-34.62419128417969,274.6840515136719
1700075144,1.5048065185546875,0.92791748046875,-0.166412353515625,0.409863144159317,1.2454136610031128,2.475058317184448,97.28010559082033,-34.054107666015625,274.1817932128906
1700075144,1.539581298828125,0.86456298828125,-0.3327178955078125,0.728417158126831,1.2791732549667358,2.4398844242095947,96.5023193359375,-33.728302001953125,273.6729736328125
1700075144,1.4437408447265625,0.6709747314453125,-0.529022216796875,1.0530258417129517,1.3200123310089111,2.484041929244995,96.067626953125,-33.05729675292969,273.1942749023437
1700075144,1.3846435546875,0.5432891845703125,-0.63720703125,1.251872181892395,1.2629554271697998,2.599632740020752,95.21987915039062,-33.06477355957031,272.6138916015625
1700075144,1.3952789306640625,0.4859466552734375,-0.66046142578125,1.1731256246566772,1.10813570022583,2.6651923656463623,95.07086181640624,-32.586090087890625,272.57977294921875
1700075144,1.4183197021484375,0.393524169921875,-0.671417236328125,0.8702472448348999,0.971015691757202,2.5829336643218994,94.3828582763672,-32.84062194824219,271.333740234375
1700075144,1.42218017578125,0.28997802734375,-0.648406982421875,0.5156769156455994,0.8686981201171875,2.431743860244751,94.14210510253906,-32.428924560546875,271.0321350097656
1700075144,1.3336639404296875,0.216644287109375,-0.556427001953125,0.2518388926982879,0.8342106938362122,2.321788787841797,94.05467224121094,-32.783721923828125,270.72808837890625
1700075144,1.16278076171875,0.1826019287109375,-0.484710693359375,0.0434188470244407,0.8534653782844543,2.220306634902954,93.94383239746094,-32.625274658203125,270.143798828125
1700075144,0.982879638671875,0.17303466796875,-0.473052978515625,-0.1462666690349578,0.8962133526802063,2.057668209075928,93.88238525390624,-32.810333251953125,269.8348999023437
1700075144,0.838775634765625,0.167205810546875,-0.4685821533203125,-0.38210129737854,0.9071325659751892,1.765308499336243,93.91339111328124,-33.41619873046875,269.0567321777344
1700075144,0.75830078125,0.1254425048828125,-0.406890869140625,-0.5934556126594543,0.8004066944122314,1.4106197357177734,94.086181640625,-33.78178405761719,268.7384948730469
1700075144,0.708953857421875,0.03125,-0.2780609130859375,-0.7757894992828369,0.6809948086738586,1.073829174041748,94.62367248535156,-33.67994689941406,268.2445068359375
1700075144,0.6680755615234375,-0.0794830322265625,-0.202056884765625,-0.8740196228027344,0.5932841300964355,0.860447883605957,94.68489074707033,-34.31761169433594,267.7194519042969
1700075144,0.562225341796875,-0.1163482666015625,-0.168731689453125,-0.9718069434165956,0.5081723928451538,0.6825202703475952,95.06689453125,-35.01136779785156,267.5684509277344
1700075144,0.435211181640625,-0.123565673828125,-0.176544189453125,-1.0929930210113523,0.4045032858848572,0.4124373495578766,95.49497985839844,-35.91612243652344,267.39825439453125
1700075144,0.3744354248046875,-0.1593780517578125,-0.1884307861328125,-1.1920716762542725,0.316090852022171,0.0911967530846595,96.26943969726562,-36.170013427734375,266.5843200683594
1700075144,0.3602294921875,-0.1941375732421875,-0.2035980224609375,-1.2204316854476929,0.2242283076047897,-0.1428080201148986,96.6698760986328,-37.1492919921875,266.7442626953125
1700075144,0.332763671875,-0.1701812744140625,-0.191802978515625,-1.2394870519638062,0.132356971502304,-0.3053228855133056,97.40087890625,-37.983673095703125,266.36773681640625
1700075144,0.3087310791015625,-0.13671875,-0.1924285888671875,-1.2874804735183716,0.0192607790231704,-0.5305874347686768,98.05795288085938,-39.01893615722656,266.6329650878906
1700075144,0.3076019287109375,-0.096435546875,-0.2262115478515625,-1.342521071434021,-0.0794242545962333,-0.7960641384124756,98.91545104980467,-40.032806396484375,266.8287353515625
1700075144,0.2963714599609375,-0.0624542236328125,-0.255096435546875,-1.3565999269485474,-0.1510073542594909,-1.0780308246612549,99.34104919433594,-41.34323120117188,266.56744384765625
1700075144,0.2719268798828125,-0.090850830078125,-0.237060546875,-1.3610519170761108,-0.2155911475419998,-1.3031978607177734,100.2159423828125,-42.30044555664063,267.21490478515625
1700075144,0.238494873046875,-0.1259002685546875,-0.2303466796875,-1.3888776302337646,-0.2830412983894348,-1.494937777519226,100.80215454101562,-43.439849853515625,266.80694580078125
1700075144,0.20880126953125,-0.1013031005859375,-0.281036376953125,-1.3710485696792605,-0.3637459874153137,-1.6548593044281006,101.37518310546876,-44.44482421875,266.97576904296875
1700075144,0.173828125,-0.0478668212890625,-0.31207275390625,-1.342734694480896,-0.4165684580802917,-1.878471851348877,101.62321472167967,-45.27293395996094,267.0494384765625
1700075144,0.1695098876953125,0.0091400146484375,-0.3262939453125,-1.223939061164856,-0.4690513610839844,-2.104290008544922,102.44161987304688,-45.65928649902344,267.483154296875
1700075144,0.1668701171875,0.0680389404296875,-0.29931640625,-1.050452470779419,-0.5214836597442627,-2.2878780364990234,102.2108154296875,-46.85638427734375,267.7740478515625
1700075144,0.1724090576171875,0.1205291748046875,-0.308258056640625,-0.9187527298927308,-0.5494385957717896,-2.442584276199341,103.13899230957033,-47.53482055664063,268.14532470703125
1700075144,0.1965484619140625,0.1757659912109375,-0.336456298828125,-0.8830629587173462,-0.5671949982643127,-2.5533254146575928,103.2601318359375,-47.85496520996094,268.4273681640625
1700075144,0.2359466552734375,0.20611572265625,-0.3589324951171875,-0.859994113445282,-0.5875258445739746,-2.589319229125977,103.68946838378906,-48.588470458984375,269.5588684082031
1700075144,0.24810791015625,0.255767822265625,-0.3920440673828125,-0.8359897136688232,-0.6271251440048218,-2.568478584289551,103.78211975097656,-48.69308471679688,269.5954284667969
1700075144,0.2799835205078125,0.3632049560546875,-0.448455810546875,-0.7885292172431946,-0.6575406193733215,-2.50696063041687,103.7802734375,-49.10298156738281,269.59051513671875
1700075144,0.3001556396484375,0.490509033203125,-0.4511260986328125,-0.7828681468963623,-0.6247035264968872,-2.45082426071167,104.11466979980467,-49.64164733886719,269.51007080078125
1700075144,0.3148956298828125,0.591522216796875,-0.5169219970703125,-0.7454320788383484,-0.6160435080528259,-2.3670129776000977,103.9593505859375,-49.12767028808594,269.3779296875
1700075144,0.3247528076171875,0.70892333984375,-0.5565185546875,-0.6703221797943115,-0.5905146598815918,-2.2625927925109863,104.07005310058594,-49.04443359375,269.1800842285156
1700075144,0.3413848876953125,0.7923431396484375,-0.5549468994140625,-0.5787696242332458,-0.5432414412498474,-2.086891889572144,104.78843688964844,-49.574249267578125,268.5723876953125
1700075144,0.357666015625,0.8767852783203125,-0.576507568359375,-0.4847230017185211,-0.4807053804397583,-1.8200862407684328,104.82374572753906,-49.876861572265625,269.5247497558594
1700075144,0.3675079345703125,0.992645263671875,-0.6102294921875,-0.3532920181751251,-0.4404399693012237,-1.5318925380706787,105.38856506347656,-49.822265625,269.9896240234375
1700075144,0.3778076171875,1.1309356689453125,-0.613922119140625,-0.1830726116895675,-0.4077310264110565,-1.308738112449646,105.06632995605467,-49.67047119140625,269.7939453125
1700075144,0.4183807373046875,1.2167816162109375,-0.6004180908203125,-0.1762977987527847,-0.3750191628932953,-0.9268442392349244,104.60934448242188,-48.95283508300781,270.20721435546875
1700075144,0.3753204345703125,1.435577392578125,-0.658447265625,-0.1118477061390876,-0.3694590032100677,-0.7345656156539917,104.27915954589844,-48.31455993652344,269.92401123046875
1700075144,0.4170074462890625,1.4600372314453125,-0.5906829833984375,0.0940221026539802,-0.3095112442970276,-0.5136952996253967,104.10440063476562,-48.143310546875,269.96014404296875
1700075144,0.411895751953125,1.3196563720703125,-0.464141845703125,0.3509998321533203,-0.2828170657157898,-0.1902924478054046,103.94163513183594,-47.9921875,269.488037109375
1700075144,0.3303070068359375,1.1784820556640625,-0.3892974853515625,0.2762062847614288,0.0071481904014945,0.0221460480242967,103.829345703125,-47.7147216796875,270.5584716796875
1700075144,0.304779052734375,1.1130523681640625,-0.6728363037109375,0.2987795174121856,0.520110547542572,0.114446148276329,103.6676025390625,-48.01698303222656,269.986328125
1700075144,0.1995697021484375,1.1539154052734375,-1.4169464111328125,0.5110129117965698,0.2162175178527832,0.321173757314682,103.73234558105467,-47.78814697265625,270.2875366210937
1700075144,0.74188232421875,1.27947998046875,-1.159393310546875,0.3249008655548095,-0.3736422955989837,0.262297123670578,104.10270690917967,-47.81886291503906,270.5206298828125
1700075144,1.9080352783203125,1.035552978515625,-0.2056427001953125,0.1072231233119964,-0.5136353373527527,-0.1712756156921386,104.26873779296876,-47.72677612304688,269.8275146484375
1700075144,2.2506103515625,0.2859039306640625,0.276336669921875,0.1177133172750473,-0.2828226387500763,0.0338807366788387,104.03070068359376,-48.09916687011719,270.08514404296875
1700075144,1.4588470458984375,-0.0747528076171875,0.1674957275390625,0.2950321733951568,-0.3696808516979217,0.4264621138572693,103.90386962890624,-47.52874755859375,270.39471435546875
1700075144,0.8953857421875,-0.133026123046875,-0.3698577880859375,0.3603709638118744,-0.386400431394577,0.9514212012290956,103.66520690917967,-47.64215087890625,269.89215087890625
1700075144,1.1207733154296875,0.0301666259765625,-0.731170654296875,0.0648682117462158,-0.5764539837837219,1.075399398803711,103.9442138671875,-47.47100830078125,269.802734375
1700075145,1.5242767333984375,0.1220855712890625,-0.5029449462890625,-0.4177991151809692,-0.5353347659111023,0.9713941216468812,103.75132751464844,-47.698150634765625,269.8912048339844
1700075145,1.353057861328125,0.3404541015625,-0.2625274658203125,-0.5030727386474609,-0.3190621435642242,0.8083791136741638,103.92872619628906,-47.60820007324219,270.10308837890625
1700075145,0.8044281005859375,0.409820556640625,-0.3278656005859375,-0.2158622592687606,-0.2513374090194702,0.6109477877616882,103.98797607421876,-47.48753356933594,269.5040283203125
1700075145,0.534149169921875,0.361083984375,-0.4566192626953125,0.1238537654280662,-0.2832133173942566,0.3905571103096008,104.02986145019533,-47.837646484375,270.0472412109375
1700075145,0.689727783203125,0.4383697509765625,-0.4051666259765625,0.0517287068068981,-0.3019305467605591,0.2527137398719787,103.91282653808594,-48.05049133300781,270.5293273925781
1700075145,1.0089263916015625,0.5988922119140625,-0.28125,-0.192842960357666,-0.2972204983234405,0.0893615707755088,104.0244140625,-48.3507080078125,270.1805419921875
1700075145,1.1870880126953125,0.567840576171875,-0.31219482421875,-0.1655154675245285,-0.3016653060913086,-0.0527665428817272,103.97409057617188,-48.42729187011719,270.16851806640625
1700075145,1.047882080078125,0.40069580078125,-0.434326171875,-0.0863255634903907,-0.3216171860694885,-0.109913982450962,104.4200439453125,-48.96986389160156,269.9957275390625
1700075145,0.8878173828125,0.2770233154296875,-0.447601318359375,-0.1441401243209839,-0.2987933456897735,-0.1196169480681419,104.40289306640624,-48.82676696777344,271.0631408691406
1700075145,0.922515869140625,0.2137603759765625,-0.3777313232421875,-0.2122800350189209,-0.2716935575008392,-0.1124021783471107,104.64361572265624,-49.65895080566406,270.9035949707031
1700075145,0.9574127197265624,0.2345733642578125,-0.367279052734375,-0.211785227060318,-0.2607820630073547,-0.14253930747509,104.54940795898438,-49.595733642578125,270.9872131347656
1700075145,0.9644622802734376,0.266571044921875,-0.38385009765625,-0.1443470567464828,-0.2543172240257263,-0.2082272320985794,104.8534698486328,-49.980224609375,270.993896484375
1700075145,0.9656829833984376,0.2873687744140625,-0.40167236328125,-0.0334106869995594,-0.258897066116333,-0.2809030413627624,104.864501953125,-50.13345336914063,270.8187866210937
1700075145,0.9524688720703124,0.302001953125,-0.392974853515625,0.0366584137082099,-0.2649142146110534,-0.3526882827281952,105.05718994140624,-50.45034790039063,271.00604248046875
1700075145,0.9477081298828124,0.3070220947265625,-0.371246337890625,0.0582989938557148,-0.2691374719142914,-0.4141612350940704,105.3926239013672,-50.65901184082031,271.413818359375
1700075145,0.942718505859375,0.302886962890625,-0.396148681640625,0.0740151032805442,-0.307682991027832,-0.4650342762470245,105.5570068359375,-51.12738037109375,271.48004150390625
1700075145,0.927825927734375,0.289947509765625,-0.4383544921875,0.0893365368247032,-0.3680752217769623,-0.5107641816139221,105.81121826171876,-51.25973510742188,271.2001953125
1700075145,0.92138671875,0.276641845703125,-0.452484130859375,0.0632194504141807,-0.4142027795314789,-0.5397692322731018,105.410888671875,-51.63653564453125,271.8439636230469
1700075145,0.924285888671875,0.263031005859375,-0.4328460693359375,0.0310695022344589,-0.4338292181491852,-0.5618532299995422,105.54232788085938,-51.71757507324219,271.78179931640625
1700075145,0.91070556640625,0.2539825439453125,-0.4139556884765625,0.0078214379027485,-0.435196191072464,-0.5824519395828247,105.69740295410156,-52.35377502441406,271.89532470703125
1700075145,0.9123687744140624,0.2383270263671875,-0.3719329833984375,-0.0225239507853984,-0.4256056249141693,-0.5890587568283081,105.94619750976562,-52.27799987792969,272.32208251953125
1700075145,0.9278411865234376,0.216766357421875,-0.34735107421875,-0.0367532223463058,-0.4197520017623901,-0.5741338729858398,105.98446655273438,-52.89704895019531,272.45947265625
1700075145,0.936920166015625,0.195281982421875,-0.3528594970703125,-0.0682176724076271,-0.4283303022384643,-0.550299882888794,105.94227600097656,-52.93800354003906,272.4095458984375
1700075145,0.9426116943359376,0.1732635498046875,-0.374053955078125,-0.0874446257948875,-0.4520974159240722,-0.5320695042610168,106.03219604492188,-53.48326110839844,272.68719482421875
1700075145,0.943878173828125,0.1542816162109375,-0.39154052734375,-0.0823116526007652,-0.4667645096778869,-0.5003440380096436,106.05412292480467,-54.08103942871094,273.6247863769531
1700075145,0.93853759765625,0.151641845703125,-0.3976287841796875,-0.0784079879522323,-0.4919420480728149,-0.4959764778614044,106.18743896484376,-53.85725402832031,272.9058532714844
1700075145,0.9424591064453124,0.1482696533203125,-0.35400390625,-0.0803800597786903,-0.4742117822170257,-0.4882106781005859,106.1456298828125,-54.0361328125,273.36279296875
1700075145,0.945037841796875,0.159423828125,-0.3279571533203125,-0.0246073417365551,-0.4660031199455261,-0.4955881834030151,106.40493774414062,-54.21522521972656,273.62908935546875
1700075145,0.9370880126953124,0.1740570068359375,-0.335479736328125,0.0492897853255271,-0.4732639491558075,-0.4988020658493042,106.4765625,-54.73089599609375,273.47515869140625
1700075145,0.9304351806640624,0.202911376953125,-0.3533782958984375,0.0581053793430328,-0.496502161026001,-0.523922860622406,106.33786010742188,-54.54429626464844,273.70623779296875
1700075145,0.9471282958984376,0.227874755859375,-0.345428466796875,-0.0026639599818736,-0.5075889229774475,-0.5861636400222778,106.44911193847656,-55.32806396484375,274.0921630859375
1700075145,0.97454833984375,0.216400146484375,-0.311431884765625,-0.037554033100605,-0.4832979440689087,-0.6166722774505615,106.7978057861328,-54.99742126464844,273.49932861328125
1700075145,0.9654693603515624,0.1942901611328125,-0.320953369140625,-0.0365521535277366,-0.5062671899795532,-0.5920007228851318,106.79434204101562,-55.37178039550781,274.3429260253906
1700075145,0.9271087646484376,0.1662750244140625,-0.342376708984375,-0.0715514123439788,-0.5412312746047974,-0.5693145990371704,106.82826232910156,-55.401947021484375,274.555419921875
1700075145,0.9422760009765624,0.13238525390625,-0.3594818115234375,-0.0712816342711448,-0.5453333854675293,-0.555290937423706,106.9532470703125,-55.53425598144531,274.5507202148437
1700075145,0.9518280029296876,0.1221466064453125,-0.3554229736328125,-0.1092412695288658,-0.533936083316803,-0.5391145944595337,106.66902160644533,-55.76535034179688,274.51708984375
1700075145,0.93756103515625,0.1261749267578125,-0.3128662109375,-0.0957821831107139,-0.5075806379318237,-0.5513728857040405,106.59201049804688,-56.118896484375,274.4736022949219
1700075145,0.9359283447265624,0.0994415283203125,-0.272491455078125,-0.0304633677005767,-0.478221982717514,-0.5076355338096619,106.65756225585938,-56.15855407714844,274.44879150390625
1700075145,0.9210357666015624,0.109771728515625,-0.257476806640625,0.0310564525425434,-0.4558833837509155,-0.4828353524208069,106.79994201660156,-56.2216796875,274.9337158203125
1700075145,0.9389190673828124,0.096405029296875,-0.2356719970703125,0.0618002489209175,-0.4389512538909912,-0.4340004324913025,106.87239074707033,-56.05465698242188,274.785888671875
1700075145,0.9477996826171876,0.0653533935546875,-0.24462890625,0.0371596179902553,-0.4040577411651611,-0.3694587349891662,106.63067626953124,-56.16908264160156,274.4365234375
1700075145,0.9407196044921876,0.0265045166015625,-0.2779998779296875,0.06314168125391,-0.3652453422546386,-0.33207967877388,106.5406494140625,-56.10247802734375,274.67889404296875
1700075145,0.95269775390625,-0.0312347412109375,-0.2637786865234375,0.0264646299183368,-0.345116376876831,-0.2462158948183059,106.58131408691406,-56.38101196289063,275.1104736328125
1700075145,0.933380126953125,-0.0086517333984375,-0.2457427978515625,-0.0597908943891525,-0.3359313905239105,-0.1982462406158447,106.64434814453124,-55.80720520019531,274.924072265625
1700075145,0.927581787109375,0.016387939453125,-0.222686767578125,-0.0089143989607691,-0.3021169900894165,-0.1874913275241851,105.98429870605467,-56.28038024902344,274.9428100585937
1700075145,0.9370574951171876,0.0030364990234375,-0.190521240234375,0.109479621052742,-0.2517659366130829,-0.1473071575164795,106.3651885986328,-55.70234680175781,275.0455322265625
1700075145,0.928070068359375,0.01422119140625,-0.2045440673828125,0.1726748347282409,-0.2097835838794708,-0.0673281773924827,106.4577178955078,-55.21212768554688,274.77105712890625
1700075145,0.934539794921875,0.0182647705078125,-0.2027740478515625,0.2075270861387252,-0.1824888437986374,-0.0141384555026888,106.23329162597656,-54.66398620605469,274.6137084960937
1700075145,0.944732666015625,-0.0279388427734375,-0.1754913330078125,0.1872380673885345,-0.1476043760776519,0.0900862142443656,106.1321258544922,-54.70243835449219,274.46514892578125
1700075145,0.91546630859375,-0.0308990478515625,-0.2129974365234375,0.1086535081267356,-0.1221552044153213,0.1818699389696121,106.06265258789062,-54.25389099121094,274.653076171875
1700075145,0.8943634033203125,-0.0254974365234375,-0.2523193359375,0.0272521264851093,-0.0899543911218643,0.258226215839386,105.7979736328125,-54.193359375,275.1372375488281
1700075145,0.8969879150390625,-0.03228759765625,-0.2284393310546875,-0.016039952635765,-0.0633454173803329,0.3350610733032226,105.63876342773438,-53.65260314941406,275.509033203125
1700075145,0.9005279541015625,-0.029754638671875,-0.2057342529296875,-0.0292702708393335,-0.0475808344781398,0.4286762475967407,105.29046630859376,-53.56416320800781,274.9386901855469
1700075145,0.90087890625,-0.0254669189453125,-0.23016357421875,-0.0173488967120647,-0.0330935046076774,0.5124305486679077,105.39877319335938,-53.25140380859375,275.0694274902344
1700075145,0.9193572998046876,-0.0098876953125,-0.248382568359375,-0.0261011086404323,-0.0220166184008121,0.5645874738693237,105.3022918701172,-52.70365905761719,274.925048828125
1700075145,0.96588134765625,-0.009185791015625,-0.2263946533203125,0.0206211227923631,0.007226487621665,0.6138668656349182,105.0703125,-52.51341247558594,274.9988708496094
1700075145,0.9813079833984376,0.007781982421875,-0.2216339111328125,0.070238210260868,0.0283235162496566,0.6643713116645813,104.72999572753906,-51.92527770996094,275.2248229980469
1700075145,0.9769439697265624,0.0585174560546875,-0.20574951171875,0.007054447196424,0.0327773876488208,0.7077784538269043,104.55671691894533,-51.79168701171875,275.1171569824219
1700075145,0.99005126953125,0.1203765869140625,-0.212158203125,0.016735304147005,0.0486990958452224,0.7261250019073486,104.17919921875,-51.71157836914063,275.5170288085937
1700075145,0.9868011474609376,0.1427459716796875,-0.2242431640625,0.0525910407304763,0.0402408950030803,0.7413265705108643,104.250244140625,-51.60064697265625,275.046875
1700075145,1.0060882568359375,0.0965423583984375,-0.2078399658203125,0.0825785025954246,0.0416068322956562,0.7907401919364929,103.96730041503906,-51.43965148925781,275.5501708984375
1700075145,1.00146484375,0.07452392578125,-0.2489166259765625,0.1710580289363861,0.0426499918103218,0.8045960664749146,103.47837829589844,-51.06324768066406,275.8837280273437
1700075145,1.0013580322265625,0.07000732421875,-0.2651519775390625,0.1784195452928543,0.0306694954633712,0.8259516954421997,102.8720703125,-50.87945556640625,275.99615478515625
1700075145,1.0300140380859375,0.1243133544921875,-0.232757568359375,0.0700182318687439,0.0025571673177182,0.8424965739250183,102.4912109375,-50.38592529296875,276.0253601074219
1700075145,1.0795440673828125,0.230682373046875,-0.2066650390625,0.0914516225457191,-0.0213649440556764,0.836384654045105,102.36781311035156,-50.40135192871094,276.5967102050781
1700075145,1.1070556640625,0.261932373046875,-0.1827850341796875,0.1856012940406799,-0.0684482976794242,0.8207399249076843,101.81700134277344,-50.021240234375,276.501708984375
1700075145,1.1158599853515625,0.2592315673828125,-0.1931915283203125,0.1893675327301025,-0.1379320323467254,0.8469816446304321,101.48583984375,-49.52742004394531,276.164794921875
1700075145,1.13763427734375,0.2626495361328125,-0.18182373046875,0.084438718855381,-0.1775454878807068,0.855816662311554,101.01852416992188,-49.00112915039063,275.8902893066406
1700075145,1.1865234375,0.1749725341796875,-0.183258056640625,0.0656258836388588,-0.1891073435544967,0.8763304352760315,100.20892333984376,-48.474151611328125,275.38885498046875
1700075145,1.2334136962890625,0.058685302734375,-0.2120513916015625,0.0947504788637161,-0.2363531440496444,0.919175386428833,99.63677978515624,-47.67408752441406,274.2458190917969
1700075145,1.308868408203125,0.01605224609375,-0.2531585693359375,0.0388904064893722,-0.3266113996505737,0.9719898700714112,98.89224243164062,-46.655364990234375,273.871826171875
1700075145,1.4238739013671875,0.0355224609375,-0.2281341552734375,-0.0277618560940027,-0.3791238665580749,1.0078818798065186,98.02400207519533,-45.80833435058594,272.7476806640625
1700075145,1.531707763671875,0.076751708984375,-0.159515380859375,-0.0103503754362463,-0.3971614837646484,0.9821516871452332,97.05140686035156,-45.018402099609375,271.40106201171875
1700075145,1.5963134765625,0.1028594970703125,-0.1239013671875,0.1067493483424186,-0.4611750841140747,0.9564276933670044,95.6575927734375,-43.71531677246094,271.4195556640625
1700075145,1.5950927734375,0.126800537109375,-0.0424346923828125,0.2586097121238708,-0.550208568572998,0.9580125212669371,94.84188842773438,-42.73716735839844,270.3482666015625
1700075145,1.583343505859375,0.142486572265625,0.0054473876953125,0.4178630113601684,-0.6278284788131714,0.8972043395042419,93.7537841796875,-42.31852722167969,269.68292236328125
1700075145,1.6191864013671875,0.0599517822265625,-0.00213623046875,0.5819483399391174,-0.6678677797317505,0.7914462089538574,92.3451690673828,-41.33192443847656,268.55291748046875
1700075145,1.690338134765625,-0.120574951171875,0.0294036865234375,0.6722832918167114,-0.7414695620536804,0.7390466332435608,91.47862243652344,-40.52626037597656,268.1388244628906
1700075145,1.7298736572265625,-0.2589111328125,0.13812255859375,0.6701152324676514,-0.7620057463645935,0.6903043985366821,90.733642578125,-40.12228393554688,267.5062866210937
1700075145,1.7140045166015625,-0.3681182861328125,0.21612548828125,0.6105645895004272,-0.7590738534927368,0.621719479560852,89.28411865234375,-39.62638854980469,267.1205444335937
1700075145,1.6454620361328125,-0.45672607421875,0.2407989501953125,0.4438128769397735,-0.6875437498092651,0.5836591720581055,87.91928100585938,-38.93821716308594,266.4609375
1700075145,1.531524658203125,-0.492767333984375,0.15521240234375,0.1935311108827591,-0.5265282392501831,0.6525375843048096,86.83859252929688,-38.070556640625,265.8855285644531
1700075145,1.35333251953125,-0.4112548828125,-0.1735076904296875,-0.2298284024000167,-0.3837849497795105,1.0725247859954834,85.61558532714844,-37.715850830078125,265.37994384765625
1700075145,1.0860443115234375,-0.1231689453125,-0.7340545654296875,-1.064866065979004,-0.3188293874263763,1.7644022703170776,84.30143737792969,-37.22654724121094,264.71551513671875
1700075145,0.8248748779296875,0.202667236328125,-1.1472015380859375,-2.1011435985565186,-0.0516070015728473,2.1673896312713623,83.29817199707031,-36.95851135253906,263.3433837890625
1700075145,0.8360443115234375,0.213592529296875,-1.245758056640625,-2.663065195083618,0.2467495948076248,2.353316068649292,82.12979125976562,-36.29685974121094,263.0601806640625
1700075145,0.9496002197265624,0.12060546875,-1.036468505859375,-2.8944554328918457,0.4292541742324829,2.96796989440918,81.41160583496094,-36.07246398925781,261.3197021484375
1700075145,0.9921875,0.41912841796875,-0.9066619873046876,-2.7456302642822266,0.4086844325065613,3.714359760284424,80.51875305175781,-36.3057861328125,260.9095458984375
1700075145,1.0369415283203125,0.752593994140625,-0.867523193359375,-2.4251182079315186,0.2191541939973831,4.21529483795166,79.6568603515625,-35.73854064941406,259.7003479003906
1700075145,1.158416748046875,0.9924468994140624,-0.7191009521484375,-2.1516802310943604,0.3627933859825134,4.209165096282959,78.94584655761719,-35.902801513671875,258.97119140625
1700075145,1.2508087158203125,1.1809539794921875,-0.67529296875,-1.7032712697982788,0.8535324931144714,3.9787018299102783,78.2440185546875,-36.10090637207031,257.3100891113281
1700075145,1.2305450439453125,1.3679046630859375,-0.7577362060546875,-1.354318618774414,1.002765417098999,3.897140026092529,78.22050476074219,-35.99012756347656,256.6009521484375
1700075145,1.2183380126953125,1.4689483642578125,-0.6956787109375,-0.9532396197319032,0.9301375150680542,3.737592458724976,77.21075439453125,-36.46101379394531,255.1756286621093
1700075145,1.36865234375,1.0793304443359375,-0.5231475830078125,-0.3178461492061615,0.9515618085861206,3.452763319015503,76.919189453125,-36.66191101074219,254.5526123046875
1700075145,1.430450439453125,0.53924560546875,-0.4042816162109375,0.2295200079679489,0.9258314371109008,3.264177322387696,77.08033752441406,-37.49238586425781,253.0716247558593
1700075145,1.3566131591796875,0.330535888671875,-0.361572265625,0.4927353858947754,0.7952204346656799,3.223374128341675,77.37542724609375,-37.77391052246094,252.26011657714844
1700075145,1.230987548828125,0.2668304443359375,-0.379364013671875,0.5450340509414673,0.6632243394851685,3.191658973693848,77.04811096191406,-38.6923828125,251.8844451904297
1700075145,1.1143951416015625,0.1895294189453125,-0.4600372314453125,0.4884871244430542,0.5580968260765076,3.1389384269714355,77.16644287109375,-39.08392333984375,251.7578887939453
1700075145,0.9995269775390624,0.0953826904296875,-0.5052490234375,0.3421149849891662,0.4464360773563385,3.094634294509888,77.84059143066406,-39.88194274902344,250.6234741210937
1700075146,0.9037017822265624,0.010711669921875,-0.4612579345703125,0.1581225246191024,0.3302644491195678,3.017122268676758,78.29829406738281,-40.776947021484375,249.88504028320312
1700075146,0.84136962890625,-0.0720977783203125,-0.3812408447265625,-0.0177196078002452,0.1935811787843704,2.868865728378296,78.48431396484375,-42.026947021484375,249.2090301513672
1700075146,0.7882080078125,-0.1560211181640625,-0.2988433837890625,-0.2127490192651748,-0.0107083041220903,2.6016714572906494,78.94410705566406,-42.88935852050781,248.28201293945312
1700075146,0.7492828369140625,-0.2352752685546875,-0.1842498779296875,-0.4605486989021301,-0.2329104840755462,2.2531216144561768,79.39289855957031,-44.148956298828125,248.5257263183593
1700075146,0.69903564453125,-0.3201446533203125,-0.083038330078125,-0.8240557909011841,-0.4808981716632843,1.8390676975250244,80.26931762695312,-45.189971923828125,248.3198089599609
1700075146,0.613616943359375,-0.430145263671875,-0.0321197509765625,-1.2592666149139404,-0.718174397945404,1.406611084938049,80.77574157714844,-45.98335266113281,248.3433990478516
1700075146,0.4925079345703125,-0.5142822265625,-0.03094482421875,-1.6196229457855225,-0.8875106573104858,1.002275824546814,81.71353149414062,-47.06770324707031,248.5203857421875
1700075146,0.3601837158203125,-0.5540008544921875,-0.07171630859375,-1.8077571392059328,-0.9618948698043824,0.6325087547302246,82.32997131347656,-48.00267028808594,248.55780029296875
1700075146,0.2363739013671875,-0.5481109619140625,-0.1338348388671875,-1.867957711219788,-1.021308183670044,0.3044730722904205,83.07452392578125,-48.913116455078125,249.0646209716797
1700075146,0.1677093505859375,-0.501251220703125,-0.1990966796875,-1.9498051404953003,-1.094162940979004,-0.0642122775316238,83.89054870605469,-49.793243408203125,249.41119384765625
1700075146,0.22308349609375,-0.4003753662109375,-0.2633056640625,-1.978259444236756,-1.1932905912399292,-0.4113419950008392,84.54609680175781,-50.48654174804688,249.6476287841797
1700075146,0.3115386962890625,-0.326202392578125,-0.22344970703125,-2.016721487045288,-1.3338921070098877,-0.7668300867080688,85.02488708496094,-51.4920654296875,249.91514587402344
1700075146,0.4002227783203125,-0.297882080078125,-0.1720123291015625,-2.1006064414978027,-1.5052136182785034,-1.1241594552993774,85.61824035644531,-52.1209716796875,250.3938446044922
1700075146,0.447021484375,-0.272369384765625,-0.159942626953125,-2.1642508506774902,-1.6905970573425293,-1.4482663869857788,85.86778259277344,-53.3839111328125,250.46408081054688
1700075146,0.4573974609375,-0.245941162109375,-0.1661224365234375,-2.151019811630249,-1.8558528423309328,-1.7535879611968994,86.48788452148438,-53.47862243652344,251.4171600341797
1700075146,0.4460906982421875,-0.2204742431640625,-0.1866607666015625,-2.1037867069244385,-2.000674247741699,-2.0217478275299072,87.04399108886719,-54.53385925292969,251.7966766357422
1700075146,0.4127349853515625,-0.1641387939453125,-0.234039306640625,-2.052623748779297,-2.107694625854492,-2.2651758193969727,87.51771545410156,-54.77700805664063,252.4878845214844
1700075146,0.38726806640625,-0.0903167724609375,-0.269989013671875,-2.006606101989746,-2.1840085983276367,-2.503063201904297,87.81367492675781,-54.94169616699219,253.22706604003903
1700075146,0.3995513916015625,-0.0270843505859375,-0.2662200927734375,-1.9642122983932493,-2.2694311141967773,-2.739222526550293,88.34304809570312,-55.13494873046875,253.2671356201172
1700075146,0.450042724609375,0.0244293212890625,-0.2565765380859375,-1.884537935256958,-2.3540663719177246,-2.959564685821533,88.59046936035156,-55.47282409667969,253.4632873535156
1700075146,0.5167236328125,0.05584716796875,-0.2569580078125,-1.773056983947754,-2.4185261726379395,-3.177774429321289,88.505126953125,-55.26654052734375,253.9919891357422
1700075146,0.595947265625,0.06072998046875,-0.26318359375,-1.6361294984817505,-2.4700467586517334,-3.369882345199585,88.60600280761719,-55.16755676269531,254.60791015625
1700075146,0.6838531494140625,0.07171630859375,-0.2781219482421875,-1.5587327480316162,-2.547514200210572,-3.52703070640564,88.54638671875,-54.73068237304688,254.9659118652344
1700075146,0.7918548583984375,0.08209228515625,-0.28326416015625,-1.482835054397583,-2.6211822032928467,-3.683240652084351,88.75193786621094,-54.81816101074219,255.03338623046875
1700075146,0.9212799072265624,0.0803375244140625,-0.3007049560546875,-1.315902829170227,-2.686772346496582,-3.870709896087648,88.88807678222656,-54.30775451660156,255.34458923339844
1700075146,1.0309295654296875,0.06707763671875,-0.33587646484375,-1.165723443031311,-2.723602294921875,-4.061458110809326,89.12971496582031,-54.32884216308594,255.9437713623047
1700075146,1.10125732421875,0.077972412109375,-0.39337158203125,-1.1550683975219729,-2.686112403869629,-4.19366979598999,89.16990661621094,-54.1510009765625,256.51336669921875
1700075146,1.1192779541015625,0.1551513671875,-0.4932861328125,-1.285811185836792,-2.607577323913574,-4.350488662719727,89.24807739257812,-54.01271057128906,256.7626342773437
1700075146,1.1634368896484375,0.2119293212890625,-0.5879058837890625,-1.515401005744934,-2.5674080848693848,-4.47172737121582,89.09129333496094,-53.75558471679688,256.68096923828125
1700075146,1.2699127197265625,0.245697021484375,-0.614501953125,-1.7387248277664185,-2.5905866622924805,-4.497000694274902,89.04527282714844,-53.615081787109375,256.76544189453125
1700075146,1.3889007568359375,0.3011474609375,-0.62298583984375,-1.8826093673706048,-2.629534721374512,-4.458287715911865,88.94131469726562,-53.1453857421875,256.9306335449219
1700075146,1.4979095458984375,0.3459320068359375,-0.6616058349609375,-1.9971660375595093,-2.647261381149292,-4.414113998413086,88.79190063476562,-53.1478271484375,257.40625
1700075146,1.56683349609375,0.3885345458984375,-0.7461090087890625,-2.172348022460937,-2.662492275238037,-4.388206005096436,88.764892578125,-52.83821105957031,257.5645446777344
1700075146,1.61083984375,0.4566192626953125,-0.8191375732421875,-2.295633316040039,-2.682244062423706,-4.378800392150879,88.79501342773438,-52.71195983886719,256.97393798828125
1700075146,1.6432647705078125,0.52978515625,-0.7807464599609375,-2.3991799354553223,-2.6010100841522217,-4.362833499908447,88.67146301269531,-52.65203857421875,257.7782592773437
1700075146,1.6362457275390625,0.5799407958984375,-0.6939849853515625,-2.2474234104156494,-2.4473001956939697,-4.262335300445557,88.871826171875,-52.405548095703125,257.8172302246094
1700075146,1.5983123779296875,0.6302947998046875,-0.597076416015625,-2.039884328842163,-2.2527921199798584,-4.1287946701049805,89.24697875976562,-52.18064880371094,258.1497802734375
1700075146,1.567413330078125,0.6405487060546875,-0.6110687255859375,-1.8123109340667725,-2.1087775230407715,-3.9426441192626953,89.2357177734375,-52.22503662109375,258.3522033691406
1700075146,1.5617523193359375,0.679534912109375,-0.6506805419921875,-1.6108283996582031,-1.9729660749435425,-3.739785671234131,89.29316711425781,-52.19386291503906,258.15576171875
1700075146,1.5410308837890625,0.7371826171875,-0.6478271484375,-1.4683239459991455,-1.7814632654190063,-3.4971799850463867,89.13772583007812,-52.35566711425781,258.1343994140625
1700075146,1.4796600341796875,0.81231689453125,-0.6410064697265625,-1.2649167776107788,-1.5423604249954224,-3.227478742599488,89.44548034667969,-52.53367614746094,258.4366455078125
1700075146,1.36761474609375,0.850006103515625,-0.619659423828125,-1.048580765724182,-1.2256381511688232,-2.880093574523926,89.54483032226562,-52.70814514160156,258.5350341796875
1700075146,1.1702728271484375,0.871612548828125,-0.7025146484375,-0.91565603017807,-0.8733149766921997,-2.38293981552124,89.49176025390625,-52.501312255859375,258.54962158203125
1700075146,0.9203948974609376,0.90887451171875,-0.7966156005859375,-0.9787018299102784,-0.4936272799968719,-1.7651774883270264,89.6651611328125,-52.62641906738281,258.1962585449219
1700075146,0.7406463623046875,0.9718475341796876,-0.87152099609375,-1.1663769483566284,-0.144949734210968,-1.035124659538269,89.71000671386719,-52.633392333984375,258.51373291015625
1700075146,0.645538330078125,1.0467987060546875,-0.869842529296875,-1.3475102186203003,0.181259274482727,-0.2534354627132416,89.75494384765625,-52.80157470703125,258.701904296875
1700075146,0.57769775390625,1.085357666015625,-0.8151397705078125,-1.4524675607681274,0.4911031424999237,0.5576512813568115,90.01803588867188,-52.46623229980469,258.67510986328125
1700075146,0.58734130859375,1.0857696533203125,-0.7595672607421875,-1.615609049797058,0.7904530763626099,1.430658936500549,90.15675354003906,-53.08729553222656,259.183349609375
1700075146,0.548858642578125,1.2118682861328125,-0.8142547607421875,-1.5736263990402222,1.050889492034912,2.0509397983551025,90.11224365234376,-53.02511596679688,258.92645263671875
1700075146,0.5760040283203125,1.2714385986328125,-0.8895721435546875,-1.5100003480911257,0.899153470993042,1.9814178943634035,90.59498596191406,-53.49191284179688,258.89697265625
1700075146,0.960296630859375,0.9068756103515624,-0.4811553955078125,-1.0017006397247314,0.1643947958946228,1.1465404033660889,90.44259643554688,-54.028228759765625,258.7618408203125
1700075146,1.6981353759765625,-0.1624603271484375,0.7364501953125,-0.2620640993118286,0.1139156520366668,-0.5831566452980042,90.76171875,-54.17240905761719,259.2239990234375
1700075146,2.1257781982421875,-1.4791259765625,1.424896240234375,0.0750390887260437,1.0095106363296509,-1.1439179182052612,90.811279296875,-53.75666809082031,259.2733764648437
1700075146,1.5503997802734375,-1.4854583740234375,0.7022857666015625,-0.513011634349823,1.2008785009384155,0.7039701342582703,91.25569152832033,-54.32353210449219,259.24273681640625
1700075146,0.8783721923828125,-0.3774566650390625,-0.085662841796875,-0.7590975761413574,1.2155330181121826,2.602100610733032,91.4522705078125,-54.45256042480469,259.0120544433594
1700075146,1.0002593994140625,0.072662353515625,-0.3018798828125,-0.1202811375260353,1.0943371057510376,2.6863489151000977,91.30574035644533,-54.39884948730469,259.6981506347656
1700075146,1.3652801513671875,-0.3823089599609375,0.01007080078125,0.018629876896739,1.0125921964645386,2.122511148452759,91.34684753417967,-54.80986022949219,259.3705444335937
1700075146,1.2906036376953125,-0.294830322265625,-0.178802490234375,-0.2706764936447143,0.9482962489128112,1.810342073440552,91.804443359375,-54.34246826171875,259.9192810058594
1700075146,0.9737091064453124,0.1791534423828125,-0.276214599609375,-0.3710986971855163,1.149982452392578,1.636221170425415,92.12355041503906,-54.82807922363281,259.3910217285156
1700075146,0.903289794921875,0.36572265625,-0.250244140625,-0.2934611737728119,1.2670305967330933,1.450183391571045,91.99479675292967,-55.21379089355469,259.5179443359375
1700075146,0.9681549072265624,0.403045654296875,-0.17230224609375,-0.2422629743814468,1.1974365711212158,1.2300195693969729,91.78913879394533,-54.94175720214844,259.73681640625
1700075146,1.1048583984375,0.3776702880859375,-0.1396942138671875,-0.1808368861675262,1.0576882362365725,1.0403969287872314,92.59515380859376,-55.45089721679688,259.8518981933594
1700075146,1.160919189453125,0.3620758056640625,-0.2271270751953125,-0.0676741153001785,0.932763397693634,0.8412963151931763,92.58546447753906,-55.88307189941406,259.8342590332031
1700075146,1.1009063720703125,0.27911376953125,-0.3177490234375,0.0480812415480613,0.7874708771705627,0.6996651291847229,92.75689697265624,-55.81855773925781,259.5667724609375
1700075146,1.0309906005859375,0.1486358642578125,-0.27716064453125,0.1651386171579361,0.6070928573608398,0.6625478863716125,92.97520446777344,-56.0360107421875,260.11358642578125
1700075146,1.0462493896484375,0.06024169921875,-0.1257171630859375,0.2306079119443893,0.5819858908653259,0.6862393617630005,93.11895751953124,-56.0714111328125,260.4626159667969
1700075146,1.064605712890625,0.03985595703125,-0.05572509765625,0.2214911133050918,0.6042198538780212,0.6712455153465271,93.18124389648438,-56.44390869140625,260.0738525390625
1700075146,1.0948638916015625,0.0951385498046875,-0.05596923828125,0.152323231101036,0.5996434688568115,0.5901538133621216,93.32740783691406,-56.19258117675781,260.90057373046875
1700075146,1.1534576416015625,0.13641357421875,-0.0833740234375,0.0446902401745319,0.5828442573547363,0.466163694858551,93.38375854492188,-56.62446594238281,260.65484619140625
1700075146,1.1571502685546875,0.1197052001953125,-0.1071624755859375,-0.0901096537709236,0.5824714303016663,0.349601686000824,93.58131408691406,-56.87370300292969,260.4890441894531
1700075146,1.095306396484375,0.05194091796875,-0.11407470703125,-0.2380698174238205,0.5904070734977722,0.2769261300563812,93.94158935546876,-56.94561767578125,260.88543701171875
1700075146,1.01678466796875,-0.0291900634765625,-0.1392364501953125,-0.44037926197052,0.5658279657363892,0.2696823477745056,93.81024169921876,-56.741607666015625,260.801513671875
1700075146,0.977935791015625,-0.087554931640625,-0.171051025390625,-0.6520835161209106,0.5117096304893494,0.3210925459861755,94.07331848144533,-56.74079895019531,260.84393310546875
1700075146,0.974395751953125,-0.1233062744140625,-0.1947479248046875,-0.6529312133789062,0.4304350018501282,0.3735067546367645,94.09170532226562,-57.3358154296875,261.192626953125
1700075146,0.9913330078125,-0.137176513671875,-0.2230377197265625,-0.3836800158023834,0.3191867768764496,0.4305785596370697,94.0421905517578,-57.06568908691406,261.2459716796875
1700075146,1.0091094970703125,-0.10595703125,-0.2200775146484375,-0.1337764412164688,0.227386012673378,0.4518375098705292,94.33384704589844,-57.63616943359375,261.58172607421875
1700075146,1.027801513671875,-0.0145111083984375,-0.18829345703125,0.0114406738430261,0.2000297605991363,0.414268285036087,94.29969787597656,-57.41032409667969,261.5212097167969
1700075146,1.03631591796875,0.0623321533203125,-0.12841796875,0.0830602645874023,0.2160199135541916,0.3360997140407562,94.55979919433594,-57.290924072265625,261.6246337890625
1700075146,1.0235137939453125,0.058349609375,-0.083587646484375,0.0994064807891845,0.233042299747467,0.3067969679832458,94.50358581542967,-57.5565185546875,261.57403564453125
1700075146,1.0009307861328125,0.0082550048828125,-0.0796356201171875,0.0462822765111923,0.2381920665502548,0.3380067944526672,94.52140808105467,-57.57241821289063,262.164794921875
1700075146,0.9859161376953124,-0.0493316650390625,-0.09661865234375,-0.0903709083795547,0.2471299022436142,0.38531094789505,94.27589416503906,-57.45867919921875,261.68670654296875
1700075146,0.994384765625,-0.1035308837890625,-0.1224822998046875,-0.2595125436782837,0.2438030689954757,0.4510992765426636,94.08041381835938,-56.96363830566406,262.0863647460937
1700075146,0.9841766357421876,-0.131561279296875,-0.1565093994140625,-0.352851003408432,0.2239614576101303,0.5217055082321167,94.4875030517578,-56.891357421875,261.795166015625
1700075146,0.960906982421875,-0.127044677734375,-0.175262451171875,-0.3314477205276489,0.1996587812900543,0.5689982175827026,94.69146728515624,-57.09645080566406,261.2476806640625
1700075146,0.9603271484375,-0.12188720703125,-0.158477783203125,-0.2209997624158859,0.1960989385843277,0.607536256313324,94.14247131347656,-56.57354736328125,261.7759704589844
1700075146,0.95391845703125,-0.0950469970703125,-0.14495849609375,-0.120920293033123,0.1911502480506897,0.6295145750045776,94.08468627929688,-56.36024475097656,261.568359375
1700075146,0.9586181640625,-0.0614471435546875,-0.144500732421875,-0.0142646897584199,0.1969897598028183,0.6358302235603333,93.85432434082033,-56.063507080078125,261.46539306640625
1700075146,0.97259521484375,-0.0544281005859375,-0.138427734375,0.0388547219336032,0.2183541804552078,0.6707253456115723,93.97007751464844,-55.86485290527344,262.17633056640625
1700075146,0.9730224609375,-0.049468994140625,-0.1226043701171875,0.0387812182307243,0.2462635636329651,0.7202513813972473,93.8098602294922,-55.58364868164063,262.0116577148437
1700075146,0.9730072021484376,-0.0472259521484375,-0.1064300537109375,0.0320255756378173,0.289599061012268,0.7775660753250122,93.55793762207033,-55.28520202636719,262.1080017089844
1700075146,0.9635467529296876,-0.0520782470703125,-0.1049652099609375,-0.0250640735030174,0.3118415176868438,0.8487119078636169,93.56385803222656,-55.25364685058594,262.01171875
1700075146,0.941925048828125,-0.034454345703125,-0.1292572021484375,-0.1021207720041275,0.3280298113822937,0.9035703539848328,93.7040557861328,-55.17233276367188,261.7177734375
1700075146,0.9425811767578124,-0.0421295166015625,-0.1489410400390625,-0.1040675491094589,0.3354746699333191,0.932692527770996,93.2045440673828,-54.56443786621094,261.26226806640625
1700075146,0.9552001953125,-0.0624237060546875,-0.1756744384765625,-0.0718946978449821,0.309959203004837,0.9618834257125854,93.52023315429688,-54.51531982421875,261.2530517578125
1700075146,0.9808807373046876,-0.0453338623046875,-0.21185302734375,-0.0333446413278579,0.2710773050785064,0.984919548034668,93.04701232910156,-54.17547607421875,261.40545654296875
1700075146,1.01641845703125,0.0023193359375,-0.2126922607421875,-0.0233838856220245,0.2365148067474365,1.0044649839401243,92.83029174804688,-54.13442993164063,261.49591064453125
1700075146,1.0305938720703125,0.06353759765625,-0.203399658203125,-0.0344144329428672,0.2038942724466323,1.005605936050415,92.70201110839844,-53.76007080078125,261.2509460449219
1700075146,1.025909423828125,0.105010986328125,-0.2075347900390625,0.0111746238544583,0.1793947964906692,0.9975242614746094,92.86912536621094,-53.06248474121094,261.50848388671875
1700075146,0.99725341796875,0.1199188232421875,-0.197723388671875,0.0392549932003021,0.1658720523118972,0.995692789554596,92.69294738769533,-53.12886047363281,261.7403259277344
1700075146,0.970672607421875,0.1271820068359375,-0.184173583984375,0.0621760226786136,0.1637540459632873,0.9997757077217102,92.5532684326172,-52.521575927734375,262.260498046875
1700075147,0.9552764892578124,0.1326446533203125,-0.1722412109375,0.0638037472963333,0.1661871075630188,1.011431336402893,92.54188537597656,-52.53366088867188,261.66290283203125
1700075147,0.9466094970703124,0.1352081298828125,-0.1538238525390625,0.0351430736482143,0.1623364388942718,1.039010763168335,92.53150939941406,-51.93345642089844,262.2396850585937
1700075147,0.948760986328125,0.1355743408203125,-0.1405029296875,0.0286497548222541,0.164820909500122,1.0541598796844482,92.4326629638672,-51.46830749511719,262.45465087890625
1700075147,0.9721527099609376,0.13165283203125,-0.166229248046875,0.0680895745754242,0.1516662240028381,1.0520812273025513,92.07652282714844,-51.45716857910156,262.1851806640625
1700075147,1.03204345703125,0.1219024658203125,-0.1642303466796875,0.0949219837784767,0.1314770728349685,1.0617849826812744,92.21343994140624,-50.98103332519531,261.716552734375
1700075147,1.08636474609375,0.1399383544921875,-0.1696014404296875,0.1470706760883331,0.1205333396792411,1.0824819803237915,91.85812377929688,-50.72740173339844,261.7230834960937
1700075147,1.1002044677734375,0.1693115234375,-0.1624298095703125,0.2258933186531067,0.1254375427961349,1.1115787029266355,91.99012756347656,-50.25582885742188,262.0
1700075147,1.0797882080078125,0.1848297119140625,-0.134552001953125,0.2970079779624939,0.137253999710083,1.145723581314087,91.9853973388672,-49.98948669433594,261.92791748046875
1700075147,1.055511474609375,0.17218017578125,-0.1238861083984375,0.3479308187961578,0.1418378353118896,1.205677509307861,91.96998596191406,-49.78947448730469,262.0733642578125
1700075147,1.04986572265625,0.1558685302734375,-0.1125946044921875,0.4108490645885467,0.1507690101861953,1.2695297002792358,92.25837707519533,-49.698974609375,262.2374267578125
1700075147,1.09576416015625,0.15484619140625,-0.105010986328125,0.4721235930919647,0.1674105674028396,1.3224676847457886,92.66764831542967,-49.5782470703125,262.426513671875
1700075147,1.16522216796875,0.1499786376953125,-0.09381103515625,0.4462406039237976,0.1679312139749527,1.4274996519088743,92.62152099609376,-49.367431640625,262.4922180175781
1700075147,1.1550445556640625,0.1601104736328125,-0.088165283203125,0.3505095541477203,0.1556412577629089,1.5537848472595217,92.97579956054688,-48.732177734375,262.4927978515625
1700075147,1.1390380859375,0.1497039794921875,-0.0745086669921875,0.2381771504878997,0.138227641582489,1.6766220331192017,92.51783752441406,-48.80278015136719,262.3104858398437
1700075147,1.1295928955078125,0.138885498046875,-0.08428955078125,0.175715371966362,0.1253302246332168,1.7928320169448853,93.02117919921876,-47.98591613769531,261.8787841796875
1700075147,1.129241943359375,0.1421051025390625,-0.123443603515625,0.2056386470794677,0.0881317257881164,1.89076578617096,92.64126586914062,-47.456939697265625,261.1300048828125
1700075147,1.183929443359375,0.125946044921875,-0.151397705078125,0.2708136439323425,0.0377665534615516,1.977038145065308,92.35484313964844,-46.892181396484375,259.9784545898437
1700075147,1.2593841552734375,0.1077728271484375,-0.179290771484375,0.3659582734107971,-0.0342232175171375,2.0410678386688232,92.67385864257812,-45.96334838867188,259.09771728515625
1700075147,1.3673095703125,0.0742645263671875,-0.1965179443359375,0.4469596445560455,-0.1061077937483787,2.0896713733673096,91.90641784667967,-44.77012634277344,258.1068725585937
1700075147,1.4865875244140625,0.0384979248046875,-0.2195587158203125,0.5357547998428345,-0.1775212585926056,2.153463840484619,91.46638488769533,-43.61061096191406,257.3455810546875
1700075147,1.5937957763671875,-0.0170745849609375,-0.1902008056640625,0.604155421257019,-0.2633924782276153,2.265233993530273,90.78488159179688,-42.50267028808594,256.5374755859375
1700075147,1.6622314453125,-0.0822296142578125,-0.0708465576171875,0.6083208322525024,-0.3575160503387451,2.3851981163024902,90.6849365234375,-41.644073486328125,255.2182464599609
1700075147,1.7442779541015625,-0.147003173828125,0.0700836181640625,0.4522905051708221,-0.4497977793216705,2.515857219696045,89.91413879394531,-40.45173645019531,255.1080322265625
1700075147,1.8302001953125,-0.24298095703125,0.14697265625,0.3085828721523285,-0.4234063923358917,2.536303997039795,89.17781066894531,-38.94462585449219,254.1323089599609
1700075147,1.8748931884765625,-0.4099273681640625,0.191619873046875,0.4860569834709167,-0.382962018251419,2.520158529281616,88.88676452636719,-38.20635986328125,253.3357391357422
1700075147,1.7881927490234375,-0.5377044677734375,0.20953369140625,0.4982169866561889,-0.3068318367004394,2.4878182411193848,88.22850036621094,-37.25636291503906,253.6129150390625
1700075147,1.614837646484375,-0.5616912841796875,-0.0912322998046875,-0.0030266826506704,-0.0294654797762632,2.478723526000977,87.98915100097656,-36.18663024902344,253.43167114257807
1700075147,1.3820648193359375,-0.5111236572265625,-0.6732025146484375,-0.7672508358955383,0.0687748044729232,2.635470628738404,87.65231323242188,-34.84210205078125,253.87600708007807
1700075147,1.13043212890625,-0.3515167236328125,-0.9522857666015624,-1.3629469871520996,-0.0276899505406618,2.9580442905426025,86.73419189453125,-33.733306884765625,253.7300567626953
1700075147,0.937164306640625,-0.13128662109375,-1.051605224609375,-1.7939742803573608,-0.2311083227396011,3.101163148880005,86.17521667480469,-32.2664794921875,254.1272888183593
1700075147,0.8680572509765625,-0.0109405517578125,-1.111968994140625,-2.0299181938171387,-0.3418351113796234,2.969960451126098,86.080078125,-31.552261352539062,254.02651977539065
1700075147,0.8825836181640625,0.0724639892578125,-1.1422271728515625,-2.0584428310394287,-0.3467622101306915,2.7486062049865723,85.253662109375,-30.61827087402344,254.34532165527344
1700075147,0.8788604736328125,0.206329345703125,-1.1068572998046875,-1.91619610786438,-0.4688417911529541,2.5647788047790527,84.60865783691406,-29.84701538085937,254.77723693847656
1700075147,0.8350067138671875,0.3973388671875,-0.86669921875,-2.1522862911224365,-0.8516528010368347,2.284933567047119,84.25509643554688,-29.004653930664062,254.8544006347656
1700075147,0.9147796630859376,0.6562042236328125,-0.36517333984375,-2.609472751617432,-0.8891264200210571,1.8265618085861208,84.15257263183594,-28.30757141113281,254.7663726806641
1700075147,0.9028778076171876,0.8577880859375,-0.0418701171875,-2.1687920093536377,-0.7048359513282776,1.3799248933792114,83.77987670898438,-27.838455200195312,254.61306762695312
1700075147,0.72113037109375,0.628326416015625,0.0357513427734375,-1.365304946899414,-0.7628851532936096,0.7701600790023804,83.88206481933594,-27.770233154296875,254.1884765625
1700075147,0.7505035400390625,0.13372802734375,0.059173583984375,-0.927601397037506,-1.0177195072174072,0.3571165800094604,84.24482727050781,-27.65718078613281,254.5555877685547
1700075147,0.718505859375,-0.1557159423828125,0.00494384765625,-0.9312704205513,-1.1926634311676023,0.1893962919712066,84.80740356445312,-27.44857788085937,254.03375244140625
1700075147,0.6217193603515625,-0.269805908203125,-0.1153717041015625,-1.1177241802215576,-1.2676271200180054,0.0939645767211914,84.99464416503906,-27.42201232910156,253.82814025878903
1700075147,0.53387451171875,-0.3301239013671875,-0.221038818359375,-1.3544224500656128,-1.3121538162231443,-0.0275109857320785,85.77262878417969,-27.628402709960938,253.4106903076172
1700075147,0.479522705078125,-0.356109619140625,-0.3275146484375,-1.5925042629241943,-1.3408701419830322,-0.1773087382316589,86.32736206054688,-27.441726684570312,253.11636352539065
1700075147,0.4559173583984375,-0.348724365234375,-0.4539031982421875,-1.8411681652069087,-1.3828855752944946,-0.3744266033172607,87.40045166015625,-27.994140625,253.2183074951172
1700075147,0.4612579345703125,-0.3246612548828125,-0.5685272216796875,-2.035299301147461,-1.488741397857666,-0.6156618595123291,88.59735107421875,-28.2662353515625,252.7642822265625
1700075147,0.527801513671875,-0.261932373046875,-0.5956268310546875,-2.1599907875061035,-1.6147749423980713,-0.8834709525108337,89.85380554199219,-28.602798461914062,252.7796936035156
1700075147,0.6404266357421875,-0.157562255859375,-0.5240478515625,-2.292125701904297,-1.7665349245071411,-1.1752175092697144,91.3403778076172,-29.50497436523437,253.1899871826172
1700075147,0.74072265625,-0.0814666748046875,-0.4216156005859375,-2.4480717182159424,-1.9534856081008911,-1.4700231552124023,92.44894409179688,-30.104812622070312,253.26910400390625
1700075147,0.7862548828125,-0.04180908203125,-0.352386474609375,-2.5379881858825684,-2.086389541625977,-1.7334842681884766,94.10183715820312,-31.23007202148437,253.1878204345703
1700075147,0.7582550048828125,-0.0203857421875,-0.375885009765625,-2.5566940307617188,-2.1766393184661865,-1.944607734680176,95.39682006835938,-32.11012268066406,254.07321166992188
1700075147,0.6855926513671875,-0.007598876953125,-0.4725799560546875,-2.555593013763428,-2.2677218914031982,-2.127861261367798,97.3372802734375,-33.23115539550781,254.3571014404297
1700075147,0.6361083984375,0.0070953369140625,-0.5654449462890625,-2.538572311401367,-2.3474156856536865,-2.305946111679077,99.2797393798828,-34.58880615234375,254.9133758544922
1700075147,0.6409912109375,0.0228271484375,-0.617401123046875,-2.5217888355255127,-2.390305995941162,-2.5060935020446777,100.8839874267578,-36.087890625,255.6898956298828
1700075147,0.689910888671875,0.04339599609375,-0.625244140625,-2.5222644805908203,-2.3892176151275635,-2.7455990314483643,102.5698699951172,-37.700439453125,256.1197204589844
1700075147,0.762451171875,0.06304931640625,-0.627227783203125,-2.617722749710083,-2.351383924484253,-2.990153789520264,104.22889709472656,-38.97093200683594,257.87860107421875
1700075147,0.83416748046875,0.080841064453125,-0.6588897705078125,-2.8457489013671875,-2.2920429706573486,-3.229931831359864,106.21356201171876,-41.06854248046875,258.30340576171875
1700075147,0.9106597900390624,0.087188720703125,-0.699127197265625,-3.167487621307373,-2.233916044235229,-3.379843235015869,107.31088256835938,-42.94659423828125,259.6639099121094
1700075147,0.9794464111328124,0.1029815673828125,-0.720855712890625,-3.4024300575256348,-2.19282341003418,-3.4161322116851807,108.42698669433594,-44.89363098144531,261.3099975585937
1700075147,1.0594635009765625,0.115753173828125,-0.7133331298828125,-3.50830626487732,-2.2114579677581787,-3.3777403831481934,110.00624084472656,-47.594482421875,262.9781799316406
1700075147,1.1554718017578125,0.12200927734375,-0.706146240234375,-3.4797370433807373,-2.203310966491699,-3.3252315521240234,110.52903747558594,-50.08189392089844,263.9745178222656
1700075147,1.2567138671875,0.125274658203125,-0.75787353515625,-3.447876214981079,-2.1365420818328857,-3.3212344646453857,111.44837951660156,-52.624755859375,265.88482666015625
1700075147,1.3385162353515625,0.1273651123046875,-0.879913330078125,-3.588730335235596,-2.059391498565674,-3.4049949645996094,112.10121154785156,-54.83268737792969,267.05059814453125
1700075147,1.4157257080078125,0.1217803955078125,-1.0114898681640625,-3.879130601882935,-2.0152409076690674,-3.4838595390319824,112.1570281982422,-57.26763916015625,268.36688232421875
1700075147,1.476806640625,0.13836669921875,-1.1037750244140625,-4.117895126342773,-2.006886959075928,-3.453641414642334,112.45840454101562,-59.227081298828125,269.6991577148437
1700075147,1.494537353515625,0.189788818359375,-1.1152496337890625,-4.071348190307617,-1.9951801300048828,-3.365942001342773,112.88127136230467,-61.90565490722656,270.8646240234375
1700075147,1.4546966552734375,0.239654541015625,-1.05169677734375,-3.833843469619751,-1.9624894857406616,-3.292806386947632,112.5661163330078,-63.91665649414063,272.15155029296875
1700075147,1.403289794921875,0.2902374267578125,-0.971649169921875,-3.4833874702453613,-1.922834038734436,-3.238703727722168,111.90583801269533,-65.97048950195312,273.91815185546875
1700075147,1.3596343994140625,0.35198974609375,-0.8863067626953125,-3.020582914352417,-1.9059370756149288,-3.2291500568389893,111.54515075683594,-67.71009826660156,274.9114990234375
1700075147,1.331390380859375,0.42510986328125,-0.77606201171875,-2.493669986724853,-1.8675159215927124,-3.262528657913208,110.96287536621094,-69.79817199707031,275.5361328125
1700075147,1.3094329833984375,0.5230560302734375,-0.6478271484375,-1.876004219055176,-1.7702932357788086,-3.321878671646118,110.31532287597656,-71.39869689941406,276.7579040527344
1700075147,1.3075103759765625,0.659698486328125,-0.5365142822265625,-1.1910977363586426,-1.6194932460784912,-3.4157018661499023,109.29183959960938,-72.66816711425781,277.263916015625
1700075147,1.3303985595703125,0.7721405029296875,-0.5061187744140625,-0.5904380083084106,-1.4366408586502075,-3.535698890686035,108.73825073242188,-74.11900329589844,278.12017822265625
1700075147,1.3358917236328125,0.8051910400390625,-0.5184478759765625,-0.1720990538597107,-1.2547332048416138,-3.54087495803833,108.06163024902344,-75.28474426269531,277.95654296875
1700075147,1.2603607177734375,0.76312255859375,-0.540557861328125,0.0875748544931411,-1.0523492097854614,-3.383291959762573,107.56893920898438,-76.31349182128906,278.2449951171875
1700075147,1.1552581787109375,0.635406494140625,-0.5613555908203125,0.159610703587532,-0.8314527273178101,-3.074337244033813,107.33010864257812,-76.769287109375,278.9476623535156
1700075147,1.06591796875,0.552886962890625,-0.5770263671875,0.0776553824543953,-0.6365229487419128,-2.669956922531128,106.75347900390624,-77.02455139160156,278.7896423339844
1700075147,0.990020751953125,0.5594329833984375,-0.5760650634765625,-0.1129238903522491,-0.4384505748748779,-2.1869313716888428,106.59226989746094,-76.74246215820312,278.11138916015625
1700075147,0.917022705078125,0.659698486328125,-0.579833984375,-0.3568771779537201,-0.2065816670656204,-1.61066997051239,106.62010192871094,-76.16659545898438,278.1396179199219
1700075147,0.8143310546875,0.8153228759765625,-0.5847930908203125,-0.6121504902839661,0.0525100789964199,-0.9175066351890564,106.33425903320312,-75.39303588867188,278.051513671875
1700075147,0.68798828125,0.9768829345703124,-0.61138916015625,-0.8662716746330261,0.3225506246089935,-0.1686422824859619,106.44183349609376,-74.32069396972656,277.1384582519531
1700075147,0.579742431640625,1.082794189453125,-0.6539764404296875,-1.0643621683120728,0.6149318814277649,0.4711486101150512,106.63760375976562,-73.07765197753906,277.30938720703125
1700075147,0.5740509033203125,1.0646209716796875,-0.6671295166015625,-1.125764012336731,0.8450172543525696,0.9260649681091307,106.47134399414062,-72.62774658203125,277.0653991699219
1700075147,0.69256591796875,0.965087890625,-0.6065216064453125,-1.1294654607772827,0.9919920563697816,1.227534294128418,106.20378112792967,-73.24140930175781,276.8656616210937
1700075147,0.802215576171875,0.9015350341796876,-0.5746307373046875,-1.0297367572784424,1.0809943675994873,1.355825901031494,106.35870361328124,-73.51077270507812,276.72479248046875
1700075147,0.906951904296875,0.805419921875,-0.53790283203125,-0.9895414113998412,1.050663948059082,1.5022670030593872,106.37982177734376,-72.673828125,275.4952392578125
1700075147,1.03143310546875,0.6934051513671875,-0.37969970703125,-0.9674731492996216,0.8252020478248596,1.4956235885620115,106.30581665039062,-71.41346740722656,274.5137939453125
1700075147,1.1246337890625,0.460296630859375,-0.0478515625,-0.6756218671798706,0.3957982063293457,0.7177134156227112,106.30398559570312,-70.17463684082031,274.01953125
1700075147,1.5454254150390625,-0.404998779296875,0.5747528076171875,-0.118637703359127,0.2060879170894622,-0.5744989514350891,106.04879760742188,-69.23307800292969,273.8000183105469
1700075147,1.8870849609375,-1.294891357421875,1.13421630859375,-0.0267256200313568,0.8434726595878601,-0.4529003798961639,106.09342956542967,-67.73448181152344,272.8564147949219
1700075147,1.4730224609375,-1.074798583984375,0.6673126220703125,-0.7985344529151917,1.2535091638565063,1.5846335887908936,105.51760864257812,-67.23310852050781,272.4217529296875
1700075147,1.038482666015625,0.024993896484375,-0.05633544921875,-1.0444483757019043,1.0949972867965698,2.799968004226685,105.4943389892578,-66.82675170898438,271.44012451171875
1700075147,1.273284912109375,0.1974639892578125,-0.140777587890625,-0.5762315988540649,0.94950932264328,2.162203311920166,105.81495666503906,-66.07972717285156,270.6011962890625
1700075147,1.4317169189453125,-0.3019256591796875,-0.1949462890625,-0.8016530275344849,1.1259280443191528,1.4015021324157717,105.52479553222656,-65.17230224609375,269.7238464355469
1700075147,1.046478271484375,-0.048492431640625,-0.6619110107421875,-0.9940006136894226,1.298358917236328,1.272656798362732,105.41197204589844,-64.75581359863281,269.4782409667969
1700075147,0.7434844970703125,0.3324127197265625,-0.6070404052734375,-0.9577488899230956,1.1952083110809326,1.5369664430618286,105.10345458984376,-64.34814453125,269.44403076171875
1700075147,0.9471588134765624,0.5518951416015625,-0.28753662109375,-0.9557546973228456,0.884350597858429,1.3496931791305542,105.27674865722656,-63.88067626953125,269.587158203125
1700075147,1.4124755859375,0.38543701171875,0.00152587890625,-0.867537260055542,0.9261195659637452,1.0170787572860718,104.88018798828124,-64.18197631835938,268.3689270019531
1700075147,1.407318115234375,0.27569580078125,-0.068206787109375,-0.5877223610877991,0.9733981490135192,0.8267927169799805,105.04718017578124,-63.79464721679688,268.2834777832031
1700075147,1.044189453125,0.2873077392578125,-0.1764984130859375,-0.0272755622863769,0.8066270351409912,0.7427471280097961,105.31735229492188,-63.68829345703125,268.25054931640625
1700075147,0.925811767578125,0.2510528564453125,-0.1277618408203125,0.5338708758354187,0.6514965295791626,0.7402474284172058,105.27601623535156,-63.08778381347656,268.2956237792969
1700075148,1.017333984375,0.207672119140625,-0.0169219970703125,0.821074366569519,0.6758250594139099,0.6637561321258545,104.86637878417967,-62.75775146484375,267.5984802246094
1700075148,1.0860748291015625,0.170684814453125,0.00860595703125,0.8438785076141357,0.7507863640785217,0.5245513916015625,104.85775756835938,-62.77827453613281,266.86181640625
1700075148,1.1408538818359375,0.1244964599609375,-0.0198211669921875,0.6244481801986694,0.7613239884376526,0.3656387031078338,104.87203979492188,-62.64483642578125,267.19952392578125
1700075148,1.143157958984375,0.01605224609375,-0.1497650146484375,0.116425946354866,0.6735213994979858,0.3194672167301178,104.83404541015624,-62.69227600097656,266.5965576171875
1700075148,1.0693511962890625,-0.058135986328125,-0.259063720703125,-0.376313716173172,0.5989220142364502,0.3350003659725189,104.62905883789062,-62.776641845703125,266.1141357421875
1700075148,1.0089263916015625,-0.1282958984375,-0.26776123046875,-0.5524029731750488,0.5228288769721985,0.3751336634159088,104.47657775878906,-62.22015380859375,265.9826965332031
1700075148,0.9869537353515624,-0.17852783203125,-0.2279205322265625,-0.481290727853775,0.4079486131668091,0.4379339218139648,104.74668884277344,-61.90763854980469,266.55731201171875
1700075148,0.9773101806640624,-0.14263916015625,-0.2391357421875,-0.2937740981578827,0.3111022114753723,0.4578021764755249,104.76953125,-61.48799133300781,266.1195068359375
1700075148,0.9989013671875,-0.0788726806640625,-0.21661376953125,-0.0849859938025474,0.2751871049404144,0.4219730794429779,104.62030029296876,-61.91323852539063,265.66754150390625
1700075148,1.020843505859375,0.0015869140625,-0.1477813720703125,0.1268415749073028,0.2741977274417877,0.3738130033016205,104.35711669921876,-61.43083190917969,265.5437927246094
1700075148,1.0121612548828125,0.0495452880859375,-0.0999603271484375,0.3163334727287292,0.291688323020935,0.315643161535263,104.26657104492188,-61.26799011230469,265.3881225585937
1700075148,1.0166168212890625,0.039398193359375,-0.0898590087890625,0.3820533454418182,0.3034520149230957,0.2828713953495025,104.2478485107422,-60.86756896972656,265.2911376953125
1700075148,1.0133209228515625,-0.0090789794921875,-0.0950164794921875,0.2890730798244476,0.3075674176216125,0.3010067045688629,104.4423828125,-60.85456848144531,265.13134765625
1700075148,0.986053466796875,-0.066009521484375,-0.13140869140625,0.1075693368911743,0.3062496781349182,0.3297134637832641,104.1194305419922,-60.6278076171875,265.1728515625
1700075148,0.9737548828125,-0.1320648193359375,-0.1608734130859375,-0.0580702275037765,0.3000344038009643,0.3836027979850769,104.0832977294922,-60.60807800292969,265.08660888671875
1700075148,0.9708404541015624,-0.1814117431640625,-0.1636199951171875,-0.1643154472112655,0.2821531295776367,0.4626765549182892,103.98416137695312,-60.46549987792969,264.7050170898437
1700075148,0.9656524658203124,-0.1602325439453125,-0.176177978515625,-0.1832451820373535,0.2596981525421142,0.5059944987297058,104.16485595703124,-60.2601318359375,264.6057434082031
1700075148,0.9727935791015624,-0.117584228515625,-0.16748046875,-0.1246314123272895,0.2522173225879669,0.5076147317886353,103.58045959472656,-59.80781555175781,264.6545104980469
1700075148,0.972015380859375,-0.081298828125,-0.161865234375,-0.0376906543970108,0.2424627095460891,0.4841714799404144,103.57125854492188,-59.2979736328125,264.39044189453125
1700075148,0.9654388427734376,-0.053955078125,-0.1846466064453125,0.0267794169485569,0.2263058423995971,0.4696873426437378,103.59996032714844,-59.05677795410156,264.1893005371094
1700075148,0.9734039306640624,-0.04827880859375,-0.1978912353515625,0.0265165623277425,0.2079135179519653,0.4726351797580719,103.5366668701172,-58.882110595703125,263.9252319335937
1700075148,0.986663818359375,-0.034515380859375,-0.183563232421875,0.0503992587327957,0.2082980722188949,0.4720287919044494,103.33357238769533,-58.57954406738281,263.8475341796875
1700075148,1.0033416748046875,-0.02685546875,-0.1651763916015625,0.0772391259670257,0.2113500535488128,0.4660947322845459,103.3970184326172,-58.00178527832031,264.4830017089844
1700075148,1.003631591796875,-0.007568359375,-0.15521240234375,0.0719437003135681,0.2217781990766525,0.4505906105041504,103.53865051269533,-57.52592468261719,264.170654296875
1700075148,1.0042877197265625,0.0066070556640625,-0.1505126953125,0.0711522102355957,0.2344154268503189,0.4441763758659363,102.78709411621094,-57.100677490234375,263.426025390625
1700075148,0.996063232421875,-0.000701904296875,-0.154571533203125,0.0690488442778587,0.2399361580610275,0.4618642926216125,102.5927734375,-56.77679443359375,263.5652160644531
1700075148,0.988677978515625,-0.027496337890625,-0.1588897705078125,0.026579413563013,0.2509848177433014,0.4938232898712158,102.37545776367188,-56.408935546875,263.4048767089844
1700075148,0.9873046875,-0.0748443603515625,-0.1674957275390625,-0.0601229928433895,0.2614150941371918,0.5473459362983704,102.49789428710938,-55.90534973144531,262.748046875
1700075148,0.9659576416015624,-0.105621337890625,-0.1838226318359375,-0.0947997421026229,0.2721971571445465,0.6110223531723022,101.8184814453125,-55.06385803222656,263.04669189453125
1700075148,0.94287109375,-0.1178741455078125,-0.181732177734375,-0.0604313872754573,0.2863324284553528,0.6584620475769043,101.59849548339844,-55.42628479003906,262.165283203125
1700075148,0.94580078125,-0.108489990234375,-0.1681976318359375,-0.0183238796889781,0.2904632687568664,0.6782285571098328,102.34660339355467,-54.68133544921875,262.7274169921875
1700075148,0.9580078125,-0.053192138671875,-0.175445556640625,-0.0065423212945461,0.3060970902442932,0.7005056142807007,101.53108215332033,-54.09773254394531,262.2765808105469
1700075148,0.9864501953125,0.03021240234375,-0.1379241943359375,-0.0568393133580684,0.3433376550674438,0.7114109992980957,100.88165283203124,-53.72053527832031,261.835205078125
1700075148,1.0066375732421875,0.0882110595703125,-0.114501953125,-0.0746002048254013,0.3570095300674438,0.7175804972648621,101.4508056640625,-53.33387756347656,262.3901672363281
1700075148,1.0009765625,0.108642578125,-0.158477783203125,-0.0363175272941589,0.3382182717323303,0.723405122756958,100.66038513183594,-53.09751892089844,262.2650451660156
1700075148,0.99822998046875,0.09588623046875,-0.20989990234375,0.020216854289174,0.3185193836688995,0.720788300037384,100.70318603515624,-52.82917785644531,262.205810546875
1700075148,0.99615478515625,0.06134033203125,-0.2059783935546875,0.0576507784426212,0.3240409195423126,0.7245979309082031,100.45301818847656,-52.13909912109375,262.1213073730469
1700075148,0.989898681640625,0.0267333984375,-0.20526123046875,0.0571202784776687,0.3164264261722564,0.7523014545440674,100.03488159179688,-52.14137268066406,261.8897705078125
1700075148,0.9864654541015624,0.004791259765625,-0.2213134765625,0.0803129449486732,0.2974561750888824,0.7882120609283447,99.78746032714844,-51.38212585449219,262.36846923828125
1700075148,0.9999847412109376,-0.015625,-0.234405517578125,0.0708613917231559,0.2655318081378937,0.827726423740387,99.36546325683594,-51.06134033203125,261.5892333984375
1700075148,1.0160064697265625,0.0024871826171875,-0.2303924560546875,0.0553828328847885,0.2568291425704956,0.8395117521286011,99.1745147705078,-50.24493408203125,261.8232421875
1700075148,1.0283050537109375,0.043212890625,-0.192596435546875,0.0455432496964931,0.2598568797111511,0.8577376008033752,98.62330627441406,-49.95845031738281,261.61285400390625
1700075148,1.026824951171875,0.1088714599609375,-0.18524169921875,0.0847063660621643,0.239131361246109,0.86866694688797,98.44854736328124,-49.204864501953125,261.7127685546875
1700075148,1.0431976318359375,0.1548614501953125,-0.1861724853515625,0.1558524519205093,0.2400972843170166,0.8809875249862671,97.89344787597656,-48.51470947265625,261.5423583984375
1700075148,1.0568084716796875,0.140625,-0.16436767578125,0.2491597533226013,0.2347019910812378,0.9131462574005128,97.91409301757812,-47.66644287109375,261.9794921875
1700075148,1.0555877685546875,0.1025238037109375,-0.190460205078125,0.2722387015819549,0.1865389794111251,0.9572221040725708,96.97673034667967,-47.015960693359375,261.54022216796875
1700075148,1.107513427734375,0.06689453125,-0.214141845703125,0.33278888463974,0.1523804813623428,1.0049859285354614,96.63809204101562,-46.286712646484375,261.6346435546875
1700075148,1.1805419921875,0.07952880859375,-0.2072296142578125,0.3858536779880523,0.1490190476179123,1.0241247415542605,96.072509765625,-45.45295715332031,261.52587890625
1700075148,1.1862640380859375,0.12579345703125,-0.1850128173828125,0.4075779020786285,0.1476035714149475,1.0361483097076416,95.52969360351562,-44.58892822265625,261.11187744140625
1700075148,1.1845245361328125,0.13238525390625,-0.1501922607421875,0.4264029860496521,0.1240796074271202,1.0783320665359497,94.83799743652344,-44.34461975097656,261.55426025390625
1700075148,1.213714599609375,0.08782958984375,-0.14697265625,0.4408631324768066,0.0626231655478477,1.1348615884780884,94.13880920410156,-43.64421081542969,261.4808349609375
1700075148,1.2609710693359375,0.0689697265625,-0.2152557373046875,0.4272266924381256,-0.0050637344829738,1.170877456665039,93.31730651855467,-42.7200927734375,261.2499389648437
1700075148,1.3315277099609375,0.0758819580078125,-0.1919403076171875,0.413744181394577,-0.0217726733535528,1.1839526891708374,92.92088317871094,-41.88275146484375,261.1522216796875
1700075148,1.4103851318359375,0.055328369140625,-0.1029052734375,0.3737887740135193,-0.0821089819073677,1.2283073663711548,91.65057373046876,-40.82545471191406,261.30908203125
1700075148,1.443756103515625,0.07623291015625,-0.0592803955078125,0.2733479142189026,-0.1438799351453781,1.3085583448410034,90.85830688476562,-40.17939758300781,261.32769775390625
1700075148,1.4626922607421875,0.0774078369140625,-0.0013427734375,0.1752221435308456,-0.1567816287279129,1.3674743175506592,89.79951477050781,-39.24458312988281,261.108642578125
1700075148,1.465087890625,0.0048370361328125,0.04803466796875,0.1136602535843849,-0.1790400594472885,1.4226199388504028,88.935302734375,-38.4263916015625,260.8568725585937
1700075148,1.4838714599609375,-0.088409423828125,0.0287322998046875,0.0986690521240234,-0.1931076794862747,1.4284104108810425,87.62420654296875,-37.73336791992188,260.6927185058594
1700075148,1.55096435546875,-0.19189453125,3.0517578125e-05,0.0708579272031784,-0.1993093788623809,1.3841497898101809,86.81838989257812,-36.93795776367188,260.07763671875
1700075148,1.6229705810546875,-0.2888946533203125,0.0010223388671875,0.1183205172419548,-0.174705758690834,1.3970510959625244,85.70191955566406,-36.1895751953125,259.03399658203125
1700075148,1.5909576416015625,-0.4244384765625,0.031341552734375,0.1542207300662994,-0.152194857597351,1.4225237369537354,84.36294555664062,-35.0772705078125,258.077880859375
1700075148,1.5136260986328125,-0.5447998046875,0.023529052734375,0.1511445045471191,-0.1084921211004257,1.4769656658172607,83.00199890136719,-34.93804931640625,257.1666259765625
1700075148,1.372772216796875,-0.6133880615234375,-0.0396270751953125,0.0231673698872327,-0.0299126245081424,1.5511008501052856,82.35450744628906,-34.195037841796875,256.37127685546875
1700075148,1.1985931396484375,-0.5985107421875,-0.2367095947265625,-0.2496306002140045,0.0726808607578277,1.7776682376861572,80.96234130859375,-33.889678955078125,255.2336883544922
1700075148,1.0110015869140625,-0.4365234375,-0.5535888671875,-0.6027972102165222,0.1870567053556442,2.2079575061798096,80.19485473632812,-33.8795166015625,254.5511932373047
1700075148,0.9440765380859376,-0.1163330078125,-0.8769683837890625,-1.118229866027832,0.3777486383914947,2.5427212715148926,79.76913452148438,-34.211883544921875,253.34336853027344
1700075148,1.09674072265625,0.0750732421875,-1.09735107421875,-1.6435810327529907,0.5465514659881592,2.575068235397339,79.239013671875,-34.32548522949219,252.0970001220703
1700075148,1.3288726806640625,0.075958251953125,-1.05078125,-2.0557472705841064,0.6163886189460754,2.491328954696656,78.78927612304688,-34.16094970703125,251.436264038086
1700075148,1.404571533203125,0.115478515625,-0.850128173828125,-2.1241390705108643,0.6417376399040222,2.4760868549346924,78.25593566894531,-34.5224609375,250.8053131103516
1700075148,1.2545166015625,0.241546630859375,-0.7781524658203125,-1.8767756223678589,0.6005814075469971,2.573554277420044,78.37855529785156,-34.873809814453125,250.74034118652344
1700075148,1.1461334228515625,0.4142303466796875,-0.68316650390625,-1.762361764907837,0.5112289190292358,2.619732618331909,78.79037475585938,-35.25700378417969,250.0066833496093
1700075148,1.240325927734375,0.584014892578125,-0.459564208984375,-1.598238825798035,0.5877377986907959,2.62644910812378,78.90628051757812,-35.577056884765625,249.4569702148437
1700075148,1.3198699951171875,0.7354278564453125,-0.290283203125,-1.4081783294677734,0.7238754034042358,2.700141191482544,79.05793762207031,-36.0257568359375,249.37322998046875
1700075148,1.3226776123046875,0.868560791015625,-0.3066253662109375,-1.397346258163452,0.6271629929542542,2.440303564071656,79.44485473632812,-36.21678161621094,248.48594665527344
1700075148,1.44287109375,0.7371063232421875,-0.328765869140625,-1.0401641130447388,0.4899420142173767,2.137707233428955,80.08261108398438,-37.26046752929688,247.9505157470703
1700075148,1.45703125,0.423980712890625,-0.2668304443359375,-0.656470775604248,0.4914059340953827,2.0002260208129883,79.89535522460938,-38.34645080566406,246.73426818847656
1700075148,1.3018951416015625,0.255218505859375,-0.359710693359375,-0.5545881390571594,0.5506128072738647,2.015463352203369,80.98358154296875,-39.27809143066406,246.16897583007807
1700075148,1.1535186767578125,0.25830078125,-0.5809173583984375,-0.5926036834716797,0.5339451432228088,2.0496749877929688,81.48849487304688,-40.46852111816406,245.1950225830078
1700075148,1.0966644287109375,0.29412841796875,-0.6584014892578125,-0.7220564484596252,0.438518762588501,2.0153677463531494,82.52374267578125,-41.63784790039063,244.8880157470703
1700075148,1.097412109375,0.3661651611328125,-0.65167236328125,-0.9346078634262084,0.3466927111148834,1.877336859703064,83.59925842285156,-42.98954772949219,244.37290954589844
1700075148,1.1097869873046875,0.4716796875,-0.6440582275390625,-1.0885807275772097,0.3256308436393738,1.5995994806289673,84.12481689453125,-44.325225830078125,244.1454467773437
1700075148,1.0890960693359375,0.54742431640625,-0.60418701171875,-1.088937282562256,0.3121874630451202,1.2852483987808228,85.0283203125,-46.25767517089844,243.5479888916016
1700075148,0.9731597900390624,0.5662841796875,-0.562286376953125,-0.9947617650032043,0.2752017378807068,1.0119271278381348,85.72235107421875,-47.35752868652344,243.49745178222656
1700075148,0.81707763671875,0.555206298828125,-0.53546142578125,-0.9200060367584229,0.1784754693508148,0.7624291777610779,86.74322509765625,-48.83419799804688,243.0277404785156
1700075148,0.698516845703125,0.53961181640625,-0.497344970703125,-0.917151153087616,0.0732113644480705,0.5448036789894104,88.14237976074219,-51.17167663574219,243.03309631347656
1700075148,0.6091461181640625,0.53759765625,-0.4492340087890625,-0.936732292175293,0.0002769687562249,0.338132232427597,88.62361145019531,-53.10572814941406,242.8844757080078
1700075148,0.5393829345703125,0.4998321533203125,-0.38330078125,-0.9439534544944764,-0.0645726025104522,0.1373344212770462,89.27792358398438,-55.03593444824219,242.76329040527344
1700075148,0.492401123046875,0.40875244140625,-0.3503265380859375,-1.013242483139038,-0.1399198174476623,-0.039394810795784,90.33067321777344,-57.25926208496094,242.3775634765625
1700075148,0.4368896484375,0.335479736328125,-0.3784637451171875,-1.1444103717803955,-0.2189115732908249,-0.1625689417123794,90.98721313476562,-60.16717529296875,242.60986328125
1700075148,0.34912109375,0.29541015625,-0.408905029296875,-1.3399533033370972,-0.2822125256061554,-0.3299393057823181,90.9980926513672,-62.39273071289063,242.10549926757807
1700075148,0.2929534912109375,0.21337890625,-0.4163818359375,-1.5477120876312256,-0.329199731349945,-0.5404424667358398,91.75836181640624,-64.34928894042969,242.73712158203125
1700075148,0.25775146484375,0.1048736572265625,-0.4108428955078125,-1.6892105340957642,-0.3925153315067291,-0.7185709476470947,91.73703002929688,-66.90888977050781,243.09425354003903
1700075148,0.215179443359375,0.034942626953125,-0.3952178955078125,-1.7287627458572388,-0.4451660215854645,-0.8549181222915649,91.7703857421875,-69.45182800292969,243.70462036132807
1700075148,0.15557861328125,0.0186767578125,-0.39373779296875,-1.779684066772461,-0.5167919993400574,-1.0522857904434204,91.93307495117188,-71.9207763671875,243.51101684570312
1700075148,0.1259002685546875,0.034515380859375,-0.3983917236328125,-1.7869062423706057,-0.6003702282905579,-1.3042738437652588,92.01211547851562,-74.01824951171875,244.65182495117188
1700075148,0.1463775634765625,0.0538482666015625,-0.374786376953125,-1.6931318044662476,-0.6671663522720337,-1.57525897026062,91.1014404296875,-76.64089965820312,244.4839782714844
1700075148,0.1675872802734375,0.033966064453125,-0.337432861328125,-1.5533978939056396,-0.7528697848320007,-1.8036003112792969,90.97332763671876,-78.66064453125,245.8522491455078
1700075148,0.1673736572265625,0.07427978515625,-0.326507568359375,-1.3218426704406738,-0.813893735408783,-1.958173871040344,90.61453247070312,-80.77850341796875,246.0284423828125
1700075148,0.12872314453125,0.0918426513671875,-0.34002685546875,-1.0962356328964231,-0.8447381854057312,-2.171270608901977,90.27427673339844,-82.13945007324219,246.6508636474609
1700075148,0.1373291015625,0.11322021484375,-0.369415283203125,-0.9055938124656676,-0.8714427351951599,-2.3666043281555176,89.11050415039062,-84.01142883300781,247.3337860107422
1700075149,0.1602020263671875,0.1310882568359375,-0.3523712158203125,-0.7967128753662109,-0.8410044312477112,-2.5290205478668213,88.81338500976562,-85.83792114257812,247.7268524169922
1700075149,0.15692138671875,0.1280059814453125,-0.38909912109375,-0.7914440631866455,-0.8316252827644348,-2.630429983139038,87.62753295898438,-86.89759826660156,248.37319946289065
1700075149,0.124786376953125,0.1569366455078125,-0.40277099609375,-0.915136992931366,-0.7783676981925964,-2.7099740505218506,86.51310729980469,-88.08460998535156,248.59616088867188
1700075149,0.08935546875,0.18011474609375,-0.4102325439453125,-1.1517857313156128,-0.7460212111473083,-2.719442367553711,85.88067626953125,-89.00346374511719,248.83677673339844
1700075149,0.079681396484375,0.20758056640625,-0.3886871337890625,-1.3614643812179563,-0.7651205658912659,-2.670158863067627,84.3038330078125,-90.0096435546875,248.6993103027344
1700075149,0.10107421875,0.247161865234375,-0.4105987548828125,-1.4712649583816528,-0.7966225743293762,-2.5718955993652344,83.56385803222656,-90.79493713378906,248.50927734375
1700075149,0.141693115234375,0.3442535400390625,-0.491302490234375,-1.4958187341690063,-0.8025560975074768,-2.50693154335022,82.660400390625,-91.09089660644533,248.72409057617188
1700075149,0.1620941162109375,0.5193328857421875,-0.5941009521484375,-1.3801528215408323,-0.7882573008537292,-2.4487619400024414,81.59925842285156,-91.78678894042967,248.21060180664065
1700075149,0.208282470703125,0.7056732177734375,-0.6634674072265625,-1.061042547225952,-0.7662441730499268,-2.3374900817871094,80.974853515625,-92.21403503417967,248.4027404785156
1700075149,0.270172119140625,0.908172607421875,-0.7020721435546875,-0.6208912134170532,-0.6871136426925659,-2.1196913719177246,80.14189147949219,-92.24232482910156,249.00230407714844
1700075149,0.30242919921875,1.12042236328125,-0.7220458984375,-0.1296157836914062,-0.5121956467628479,-1.9169728755950928,79.95004272460938,-92.16249084472656,248.7562866210937
1700075149,0.3381500244140625,1.250030517578125,-0.7744140625,0.2174995690584182,-0.2949536144733429,-1.528560996055603,79.22761535644531,-92.26683044433594,248.25222778320312
1700075149,0.3294525146484375,1.43218994140625,-0.8861083984375,0.4928595125675201,-0.1870162189006805,-1.0756640434265137,78.7408447265625,-92.5112762451172,248.23887634277344
1700075149,0.322296142578125,1.6341400146484375,-0.88031005859375,0.6972195506095886,-0.065294049680233,-0.7894331216812134,78.19606018066406,-92.55226135253906,248.5726623535156
1700075149,0.3911285400390625,1.6501617431640625,-0.8078460693359375,0.8023155927658081,0.0603067502379417,-0.5880067944526672,77.76496887207031,-92.33656311035156,248.5325164794922
1700075149,0.4322357177734375,1.570770263671875,-0.73919677734375,0.6205913424491882,0.3441142439842224,-0.3226824402809143,77.47016906738281,-92.71041870117188,247.9432983398437
1700075149,0.395599365234375,1.5096893310546875,-0.89324951171875,0.8828434944152832,0.5096339583396912,0.0414513014256954,77.01539611816406,-92.57487487792967,248.41407775878903
1700075149,0.2449798583984375,1.5280609130859375,-1.20135498046875,0.9907262921333312,0.2466830164194107,0.4213347136974334,76.99946594238281,-92.92489624023438,248.34022521972656
1700075149,0.5218505859375,1.5625457763671875,-0.881561279296875,0.4922986328601837,-0.2500548362731933,0.5409886837005615,76.41944885253906,-93.30215454101562,247.77703857421875
1700075149,1.3967132568359375,1.265899658203125,-0.031982421875,0.5103098750114441,-0.5772414803504944,0.303383320569992,75.73265075683594,-92.9971160888672,247.9558258056641
1700075149,1.86859130859375,0.552398681640625,0.433502197265625,0.2136715352535247,-0.4651357233524322,0.3891150057315826,76.00218200683594,-92.65650939941406,247.96153259277344
1700075149,1.71112060546875,0.1016845703125,0.1928863525390625,-0.2316920906305313,-0.3145680725574493,0.4963306784629822,75.42291259765625,-91.97152709960938,247.40269470214844
1700075149,1.3106231689453125,-0.0611419677734375,-0.589111328125,-0.0770668238401413,-0.2462944686412811,0.6302096247673035,75.64425659179688,-91.68547058105467,247.50222778320312
1700075149,0.95404052734375,-0.1480712890625,-0.988189697265625,0.4436530768871307,-0.4310299456119537,0.8133317828178406,75.23211669921875,-91.76617431640624,247.71658325195312
1700075149,0.8491058349609375,-0.1397857666015625,-0.67437744140625,0.4618786871433258,-0.3486788868904114,0.8477486371994019,75.08903503417969,-91.78404235839844,247.31968688964844
1700075149,1.0728302001953125,-0.00750732421875,-0.259857177734375,0.3352086246013641,-0.2050833702087402,0.8807299733161926,74.90866088867188,-91.46694946289062,247.56903076171875
1700075149,1.0029449462890625,0.508636474609375,-0.143798828125,0.2063470482826233,-0.1925119310617447,0.7027387022972107,74.76824951171875,-91.52975463867188,247.48670959472656
1700075149,0.980316162109375,0.8083343505859375,-0.207916259765625,0.0770785361528396,-0.1642712354660034,0.3514973223209381,74.52125549316406,-91.65614318847656,247.56689453125
1700075149,0.9429779052734376,0.803192138671875,-0.3271636962890625,0.0183086991310119,-0.0978812873363494,0.0532634891569614,74.0711669921875,-91.51788330078124,247.11102294921875
1700075149,0.831817626953125,0.57012939453125,-0.397857666015625,-0.0022527680266648,-0.0920478999614715,-0.0535835996270179,74.45233154296875,-91.29045104980467,247.2682647705078
1700075149,0.82415771484375,0.2851104736328125,-0.454925537109375,0.0242747124284505,-0.1372252404689788,0.0469209030270576,74.1800537109375,-91.0503387451172,246.4060211181641
1700075149,0.9245452880859376,0.1012115478515625,-0.4434661865234375,-0.0225260816514492,-0.1255637854337692,0.148573487997055,73.96099853515625,-90.9053192138672,247.0904235839844
1700075149,1.0131683349609375,0.0358734130859375,-0.463104248046875,-0.1554862558841705,-0.1547440439462661,0.1975807249546051,73.63417053222656,-90.56112670898438,246.41616821289065
1700075149,1.00445556640625,0.116973876953125,-0.4717559814453125,-0.2012918293476104,-0.1707347184419632,0.1706271320581436,74.28813171386719,-90.26910400390624,246.42950439453125
1700075149,0.9380035400390624,0.2277679443359375,-0.45831298828125,-0.1582657992839813,-0.2026793360710144,0.1191277205944061,73.716796875,-90.20549011230467,246.2173767089844
1700075149,0.9304656982421876,0.3176116943359375,-0.4202423095703125,-0.119169533252716,-0.2410128861665725,0.0229838788509368,73.69120788574219,-90.45130920410156,245.82110595703125
1700075149,0.99407958984375,0.349212646484375,-0.3969268798828125,-0.0407391749322414,-0.2798199355602264,-0.070650465786457,73.38006591796875,-90.38687133789062,245.85780334472656
1700075149,1.0069122314453125,0.331787109375,-0.415191650390625,0.0487355813384056,-0.3257898092269897,-0.1457103341817855,73.35124206542969,-90.62594604492188,245.71983337402344
1700075149,0.963104248046875,0.2958831787109375,-0.4453887939453125,0.0821726322174072,-0.3677764236927032,-0.1993738263845443,73.28744506835938,-90.4619140625,245.845947265625
1700075149,0.9273834228515624,0.2727203369140625,-0.43902587890625,0.078410118818283,-0.3819135427474975,-0.2435487359762191,73.36273193359375,-90.30625915527344,246.5229949951172
1700075149,0.91278076171875,0.262939453125,-0.4073028564453125,0.0589480064809322,-0.3674421906471252,-0.279737651348114,73.66044616699219,-90.548828125,245.51828002929688
1700075149,0.9195709228515624,0.2621002197265625,-0.3686981201171875,0.0238957460969686,-0.3432915806770324,-0.3295371532440185,73.68376159667969,-89.94575500488281,246.0260467529297
1700075149,0.9378204345703124,0.2579345703125,-0.363433837890625,-0.0011574097443372,-0.3290016055107116,-0.3636248111724853,73.40663146972656,-89.97657775878906,245.7115173339844
1700075149,0.9346771240234376,0.25506591796875,-0.3828887939453125,-0.0305768176913261,-0.3377847075462341,-0.3978608250617981,73.68583679199219,-89.89056396484375,245.4335327148437
1700075149,0.927581787109375,0.248779296875,-0.3986663818359375,-0.0681542828679084,-0.3437994420528412,-0.4335698187351227,73.73873901367188,-89.78512573242188,245.6106719970703
1700075149,0.930389404296875,0.2370147705078125,-0.39288330078125,-0.092385858297348,-0.3466064035892486,-0.459729790687561,73.3719482421875,-89.87591552734375,245.88641357421875
1700075149,0.943328857421875,0.222900390625,-0.38177490234375,-0.0582465268671512,-0.347737193107605,-0.4842862486839294,73.68215942382812,-89.63247680664062,246.02838134765625
1700075149,0.951446533203125,0.216644287109375,-0.393890380859375,0.0038035267498344,-0.3754599094390869,-0.510998010635376,73.51496887207031,-89.60765075683594,245.96163940429688
1700075149,0.9608154296875,0.221405029296875,-0.3957977294921875,0.0875985547900199,-0.4045110046863556,-0.5368826389312744,73.61851501464844,-89.63447570800781,245.3804626464844
1700075149,0.9727020263671876,0.237396240234375,-0.39874267578125,0.1401896029710769,-0.4468941390514374,-0.5785078406333923,73.34703063964844,-89.63522338867188,245.2893524169922
1700075149,0.9658203125,0.2437286376953125,-0.4054718017578125,0.1676616966724395,-0.4896482527256012,-0.6250982284545898,73.50193786621094,-89.42367553710938,245.26727294921875
1700075149,0.9377899169921876,0.243499755859375,-0.411346435546875,0.1721744239330291,-0.5200927257537842,-0.6696814298629761,73.29339599609375,-89.26773071289062,245.6057586669922
1700075149,0.9156341552734376,0.2250518798828125,-0.398956298828125,0.1588687449693679,-0.5312926173210144,-0.678277850151062,73.31382751464844,-89.58439636230469,245.0966339111328
1700075149,0.9045562744140624,0.1994171142578125,-0.3701934814453125,0.0983686447143554,-0.5412811040878296,-0.6632458567619324,73.43400573730469,-89.28109741210938,245.31216430664065
1700075149,0.9108123779296876,0.1648406982421875,-0.363922119140625,0.0386081114411354,-0.5619539022445679,-0.653169572353363,73.57177734375,-88.81584167480469,245.33534240722656
1700075149,0.9298553466796876,0.133514404296875,-0.3759002685546875,-0.024920530617237,-0.5593857765197754,-0.6423118114471436,73.44078063964844,-88.92414855957031,244.85028076171875
1700075149,0.936004638671875,0.1263427734375,-0.3796844482421875,-0.1151015534996986,-0.5828149318695068,-0.641223669052124,72.94587707519531,-88.73841857910156,245.2181854248047
1700075149,0.94439697265625,0.128997802734375,-0.337921142578125,-0.1616384238004684,-0.5564749836921692,-0.6298865675926208,72.99249267578125,-88.79573059082031,244.74253845214844
1700075149,0.9520111083984376,0.14080810546875,-0.3120574951171875,-0.1421294510364532,-0.5379846096038818,-0.6337162256240845,72.91346740722656,-88.52552795410156,244.92779541015625
1700075149,0.9351043701171876,0.1662750244140625,-0.3049163818359375,-0.1160459145903587,-0.5228824019432068,-0.633002758026123,73.07162475585938,-88.59988403320312,245.0113067626953
1700075149,0.93621826171875,0.183258056640625,-0.2860565185546875,-0.0705170407891273,-0.4821759760379791,-0.6371972560882568,72.92378234863281,-88.51454162597656,245.05555725097656
1700075149,0.9486541748046876,0.1720733642578125,-0.266448974609375,0.0343928597867488,-0.4397310316562652,-0.6262385845184326,73.15910339355469,-88.42271423339844,244.96994018554688
1700075149,0.950469970703125,0.117431640625,-0.24188232421875,0.1092724278569221,-0.4072735011577606,-0.5758736729621887,73.08010864257812,-88.25077819824219,245.3011932373047
1700075149,0.963653564453125,0.0506439208984375,-0.2453460693359375,0.1785641461610794,-0.4039986133575439,-0.505988359451294,72.70455932617188,-87.90953063964844,245.7891998291016
1700075149,0.9581451416015624,-0.0072174072265625,-0.2482147216796875,0.2405771911144256,-0.3864161372184753,-0.4359541535377502,73.10676574707031,-88.10311889648438,245.35906982421875
1700075149,0.925628662109375,-0.023834228515625,-0.2646636962890625,0.2254834622144699,-0.3765025436878204,-0.3743703961372375,72.92796325683594,-87.92352294921875,244.92286682128903
1700075149,0.884674072265625,0.0138702392578125,-0.3043365478515625,0.1639316827058792,-0.3631103038787842,-0.339440107345581,72.95997619628906,-87.29620361328125,245.2875823974609
1700075149,0.8611602783203125,0.0583648681640625,-0.317901611328125,0.1341207921504974,-0.3656355142593384,-0.3473750054836273,73.02655029296875,-87.67341613769531,245.098373413086
1700075149,0.871551513671875,0.0646209716796875,-0.2740936279296875,0.2101404517889022,-0.3467787206172943,-0.3429054319858551,73.02569580078125,-87.74700927734375,245.25827026367188
1700075149,0.9091796875,0.031097412109375,-0.2010650634765625,0.249012216925621,-0.303088515996933,-0.2783826291561126,72.64888000488281,-86.95620727539062,245.1191864013672
1700075149,0.9178466796875,0.0450286865234375,-0.2234039306640625,0.2645509541034698,-0.2727303206920624,-0.2128283828496933,72.90864562988281,-87.00396728515625,245.43418884277344
1700075149,0.9349212646484376,0.0469818115234375,-0.2151641845703125,0.2045917510986328,-0.2432294338941574,-0.1437806040048599,72.83341979980469,-87.27926635742188,245.38970947265625
1700075149,0.9620819091796876,0.028594970703125,-0.1977386474609375,0.0678030177950859,-0.2059422433376312,-0.0145595017820596,73.12237548828125,-86.92863464355469,244.9344940185547
1700075149,0.959747314453125,-0.003021240234375,-0.23095703125,0.104602575302124,-0.1927590668201446,0.0662839487195015,72.58528137207031,-86.48194885253906,244.8497314453125
1700075149,0.984344482421875,-0.143524169921875,-0.2317352294921875,0.2401177883148193,-0.16814985871315,0.1703080832958221,72.71018981933594,-86.44146728515625,244.8310089111328
1700075149,0.9910736083984376,-0.215911865234375,-0.2261810302734375,0.2768374681472778,-0.1357405185699463,0.3417727947235107,72.37628173828125,-86.4046630859375,244.53271484375
1700075149,0.9740753173828124,-0.1799163818359375,-0.187530517578125,0.1122445166110992,-0.0896992608904838,0.4996756017208099,72.68949890136719,-85.69410705566406,244.56658935546875
1700075149,0.98822021484375,-0.1201934814453125,-0.1768035888671875,0.1279177516698837,0.0064874603413045,0.6046406030654907,73.02894592285156,-85.78016662597656,245.016357421875
1700075149,1.0109710693359375,-0.1194305419921875,-0.19281005859375,0.3422721326351166,0.0328498259186744,0.6854822039604187,72.85293579101562,-85.62406921386719,244.52340698242188
1700075149,1.04010009765625,-0.0526885986328125,-0.2225341796875,0.476735919713974,-0.0024410535115748,0.717736542224884,72.62590026855469,-85.17303466796875,245.0662841796875
1700075149,1.131439208984375,0.0582275390625,-0.185211181640625,0.4982244372367859,0.0115474667400121,0.7320209741592407,72.67387390136719,-84.53059387207031,244.5075225830078
1700075149,1.1922607421875,0.131439208984375,-0.13427734375,0.498031884431839,0.021073592826724,0.72992342710495,73.05464172363281,-84.37440490722656,244.1845703125
1700075149,1.226409912109375,0.127838134765625,-0.156524658203125,0.6371554136276245,-0.0552579276263713,0.7601447105407715,73.10322570800781,-84.00526428222656,244.43362426757807
1700075149,1.285797119140625,0.0975341796875,-0.18115234375,0.5988439917564392,-0.1664457023143768,0.8124609589576721,73.01344299316406,-83.158203125,244.35162353515625
1700075149,1.4050140380859375,0.102508544921875,-0.132232666015625,0.4438509345054626,-0.1768171191215515,0.8358836770057678,73.04875183105469,-82.63954162597656,244.6600799560547
1700075149,1.4442138671875,0.0960235595703125,-0.123382568359375,0.3590838611125946,-0.1907944530248642,0.8224925398826599,73.08489990234375,-81.98188781738281,244.8377685546875
1700075149,1.465240478515625,0.05029296875,-0.1078948974609375,0.3775299787521362,-0.2356777638196945,0.8444731831550598,73.43113708496094,-81.38755798339844,244.21632385253903
1700075149,1.507080078125,0.028411865234375,-0.0720977783203125,0.5306777358055115,-0.2814756333827972,0.8750465512275696,73.5682373046875,-81.016845703125,244.0486297607422
1700075149,1.55499267578125,-0.00726318359375,-0.012786865234375,0.7050015926361084,-0.319116473197937,0.8902121782302856,73.46037292480469,-80.18020629882812,244.5425262451172
1700075149,1.6275482177734375,-0.073211669921875,0.067779541015625,0.7930680513381958,-0.3436417877674103,0.896310031414032,73.70602416992188,-79.81428527832031,244.8010406494141
1700075149,1.6640167236328125,-0.1688995361328125,0.114654541015625,0.7785850167274475,-0.3826070427894592,0.9439369440078736,73.47134399414062,-78.79576110839844,244.84005737304688
1700075149,1.62469482421875,-0.2841949462890625,0.12481689453125,0.5701111555099487,-0.4126051366329193,1.1062315702438354,73.52824401855469,-78.16865539550781,245.0278167724609
1700075149,1.5606536865234375,-0.3336944580078125,0.1121978759765625,0.3992238342761993,-0.3565860688686371,1.1700763702392578,73.72526550292969,-77.49208068847656,244.8088531494141
1700075149,1.495819091796875,-0.4561004638671875,0.05889892578125,0.2194500714540481,-0.1894160062074661,1.1578103303909302,73.35044860839844,-76.4444580078125,244.5020904541016
1700075149,1.3897247314453125,-0.538116455078125,-0.1300506591796875,-0.112305499613285,0.0558555424213409,1.130937933921814,73.27494812011719,-75.72798156738281,244.80242919921875
1700075149,1.2106170654296875,-0.5072174072265625,-0.4619140625,-0.6624336242675781,0.3981023728847503,1.4186557531356812,72.8394775390625,-75.22666931152344,244.2975616455078
1700075149,1.003326416015625,-0.25531005859375,-0.9277801513671876,-1.2752916812896729,0.6724497675895691,1.9301563501358032,72.47584533691406,-74.59507751464844,244.8080444335937
1700075149,0.8794403076171875,0.000946044921875,-1.2598876953125,-1.6210520267486572,0.951088845729828,2.336398363113404,71.85755920410156,-74.06793212890625,244.437728881836
1700075149,1.049652099609375,0.1238861083984375,-1.480804443359375,-1.444061279296875,0.885919451713562,2.5906765460968018,71.85212707519531,-73.30671691894531,244.5043334960937
1700075150,1.24462890625,0.25274658203125,-1.3112335205078125,-0.955862045288086,0.57748943567276,2.833418607711792,71.43170166015625,-73.11436462402344,244.6042633056641
1700075150,1.3490447998046875,0.4748077392578125,-0.7850799560546875,-0.5826341509819031,0.6134780645370483,3.0029985904693604,70.81488037109375,-72.56265258789062,244.59649658203125
1700075150,1.3768768310546875,0.6965484619140625,-0.4364776611328125,-0.1227027475833892,0.9912264347076416,3.191850423812866,70.4259033203125,-71.91743469238281,244.4511260986328
1700075150,1.40386962890625,0.959136962890625,-0.4477386474609375,0.1327255517244339,1.0303093194961548,3.222890853881836,70.14056396484375,-71.22779846191406,244.00392150878903
1700075150,1.528961181640625,1.146514892578125,-0.390960693359375,0.1613745093345642,1.1966876983642578,3.013334035873413,70.19096374511719,-70.56800842285156,244.24920654296875
1700075150,1.6113433837890625,1.1476287841796875,-0.5854949951171875,0.4516079425811767,1.2773724794387815,2.8125693798065186,69.54754638671875,-69.85345458984375,243.895751953125
1700075150,1.5792083740234375,0.9302825927734376,-0.608154296875,0.8243200182914734,1.3058961629867554,2.620908260345459,69.49131774902344,-69.16313171386719,243.7198638916016
1700075150,1.5401611328125,0.6305999755859375,-0.5345001220703125,0.9641671180725098,1.3086302280426023,2.550117492675781,69.18399047851562,-68.34672546386719,243.27545166015625
1700075150,1.4101409912109375,0.4798583984375,-0.54815673828125,0.8221479058265686,1.1491944789886477,2.666665315628052,68.70689392089844,-67.37919616699219,243.1088256835937
1700075150,1.313018798828125,0.455718994140625,-0.4435882568359375,0.4539123773574829,1.079432725906372,2.656799554824829,68.48454284667969,-66.48902893066406,243.07516479492188
1700075150,1.2462310791015625,0.39703369140625,-0.4208831787109375,0.0970368012785911,1.1192972660064695,2.454518318176269,68.32850646972656,-66.013916015625,243.0659027099609
1700075150,1.1671600341796875,0.31103515625,-0.408050537109375,-0.1871776133775711,1.0926233530044556,2.219757318496704,68.17170715332031,-65.44126892089844,242.5951538085937
1700075150,1.0618133544921875,0.2332000732421875,-0.3446807861328125,-0.4429460167884826,1.0443780422210691,1.9878145456314087,67.468505859375,-64.92037963867188,241.81216430664065
1700075150,0.96087646484375,0.14666748046875,-0.3396453857421875,-0.696216344833374,0.9791985154151917,1.7786719799041748,67.50996398925781,-64.12887573242188,241.3667449951172
1700075150,0.883026123046875,0.07623291015625,-0.3165740966796875,-0.991710603237152,0.870971143245697,1.5496876239776611,66.7191162109375,-63.83831787109375,240.64132690429688
1700075150,0.8048553466796875,0.0201568603515625,-0.2822113037109375,-1.2978122234344482,0.7676452398300171,1.2671847343444824,67.03102111816406,-63.341094970703125,240.389389038086
1700075150,0.7202301025390625,-0.044158935546875,-0.2633056640625,-1.4917659759521484,0.6613854169845581,0.947053074836731,66.88418579101562,-62.8028564453125,240.49661254882807
1700075150,0.59405517578125,-0.117279052734375,-0.211456298828125,-1.564419150352478,0.5482215881347656,0.6571648120880127,66.69944763183594,-62.31861877441406,239.969467163086
1700075150,0.44110107421875,-0.1501312255859375,-0.18194580078125,-1.544929027557373,0.4386990666389465,0.4413497149944305,66.85067749023438,-62.0653076171875,239.2676239013672
1700075150,0.3075714111328125,-0.1293792724609375,-0.186798095703125,-1.5029515027999878,0.3279112875461578,0.2230474650859832,66.94552612304688,-61.65245056152344,239.19625854492188
1700075150,0.2520904541015625,-0.1070556640625,-0.1964263916015625,-1.5239825248718262,0.1986337304115295,-0.0669518709182739,66.83961486816406,-61.65313720703125,238.24874877929688
1700075150,0.2857666015625,-0.0779571533203125,-0.205230712890625,-1.5037258863449097,0.0661100447177887,-0.3751304745674133,66.8409423828125,-61.200531005859375,238.069564819336
1700075150,0.3455810546875,-0.0567779541015625,-0.19049072265625,-1.4448567628860474,-0.037205159664154,-0.6603733897209167,67.23231506347656,-61.24446105957031,237.8923797607422
1700075150,0.3460540771484375,-0.057708740234375,-0.1564178466796875,-1.411640763282776,-0.1358217447996139,-0.8807153701782227,67.13079833984375,-61.12214660644531,237.6805419921875
1700075150,0.2807464599609375,-0.013916015625,-0.1738739013671875,-1.31719172000885,-0.2080307006835937,-1.058300495147705,67.27072143554688,-61.650238037109375,237.24595642089844
1700075150,0.181121826171875,-0.017364501953125,-0.198516845703125,-1.248323678970337,-0.2771368026733398,-1.2940568923950195,67.43197631835938,-61.78755187988281,237.26687622070312
1700075150,0.1429901123046875,-0.06671142578125,-0.217864990234375,-1.2487891912460327,-0.3446497917175293,-1.537306785583496,68.25956726074219,-61.98785400390625,235.96827697753903
1700075150,0.131683349609375,-0.0587615966796875,-0.24212646484375,-1.2590022087097168,-0.4028478562831878,-1.7511266469955444,68.33253479003906,-62.32905578613281,235.7573699951172
1700075150,0.13580322265625,-0.0577850341796875,-0.261749267578125,-1.2718464136123655,-0.4511772990226745,-1.9414575099945068,68.653564453125,-62.48072814941406,235.93736267089844
1700075150,0.143341064453125,-0.035400390625,-0.291107177734375,-1.1961768865585327,-0.5047518610954285,-2.1119930744171143,68.9644775390625,-62.75531005859375,235.7350616455078
1700075150,0.1323699951171875,0.0211029052734375,-0.2637939453125,-1.035353422164917,-0.5596872568130493,-2.300811052322388,69.39450073242188,-62.92491149902344,235.4666748046875
1700075150,0.1218109130859375,0.0881195068359375,-0.246063232421875,-0.8319947123527527,-0.5908164381980896,-2.49961256980896,69.96144104003906,-63.22093200683594,235.3065948486328
1700075150,0.1180877685546875,0.148193359375,-0.258544921875,-0.6453529000282288,-0.5982210636138916,-2.651892900466919,70.38127136230469,-63.08316040039063,235.0363311767578
1700075150,0.1225433349609375,0.202728271484375,-0.2693939208984375,-0.5339707136154175,-0.5993744730949402,-2.7352774143218994,70.79524230957031,-63.314971923828125,234.953353881836
1700075150,0.1363677978515625,0.2911834716796875,-0.305206298828125,-0.4149220883846283,-0.6307132244110107,-2.7513070106506348,71.27006530761719,-63.84291076660156,234.4004821777344
1700075150,0.1935272216796875,0.3888702392578125,-0.3382720947265625,-0.243033692240715,-0.6558535099029541,-2.700327157974243,71.50872802734375,-64.35984802246094,234.00018310546875
1700075150,0.2268218994140625,0.5213775634765625,-0.3953094482421875,-0.1226409673690795,-0.6243972778320312,-2.627220869064331,72.1268310546875,-64.50370788574219,233.915267944336
1700075150,0.2239990234375,0.6599273681640625,-0.4707794189453125,-0.0932782813906669,-0.5550022125244141,-2.5163228511810303,72.10636901855469,-64.73200988769531,233.8313903808593
1700075150,0.2445526123046875,0.761810302734375,-0.5274658203125,-0.0327206626534462,-0.4916954338550567,-2.3205888271331787,72.33551025390625,-65.28024291992188,233.12579345703125
1700075150,0.276702880859375,0.8465118408203125,-0.5653076171875,0.0629784315824508,-0.4659306704998016,-2.0744285583496094,72.92918395996094,-65.65298461914062,232.85137939453125
1700075150,0.2911529541015625,0.949981689453125,-0.630706787109375,0.1769992709159851,-0.4402455687522888,-1.854121446609497,73.18621826171875,-66.26641845703125,232.6307830810547
1700075150,0.3095703125,1.0555419921875,-0.6706390380859375,0.3080121576786041,-0.3582130074501037,-1.6619837284088137,73.863037109375,-66.36422729492188,233.04161071777344
1700075150,0.3141326904296875,1.142547607421875,-0.67529296875,0.4675687849521637,-0.2275785654783249,-1.495316982269287,73.59593200683594,-66.56533813476562,232.88385009765625
1700075150,0.2855682373046875,1.188751220703125,-0.6890869140625,0.6657454967498779,-0.1078431084752082,-1.35522723197937,73.74131774902344,-66.37226867675781,233.11282348632807
1700075150,0.2779693603515625,1.1928253173828125,-0.710174560546875,0.6572758555412292,-0.0481856390833854,-1.1135268211364746,73.4287109375,-66.13703918457031,232.6876373291016
1700075150,0.2737884521484375,1.3094940185546875,-0.724029541015625,0.7038979530334473,0.0389234311878681,-1.0293681621551514,73.45672607421875,-65.97573852539062,232.7889709472656
1700075150,0.3603668212890625,1.2090301513671875,-0.6505126953125,0.4945450127124786,0.450016975402832,-1.0298532247543335,73.66085815429688,-65.514404296875,232.7248687744141
1700075150,0.3412322998046875,1.015655517578125,-0.8657073974609375,0.6795178055763245,0.6740055680274963,-0.9216782450675964,73.20207214355469,-65.54052734375,232.5098571777344
1700075150,0.220123291015625,0.955596923828125,-1.1308135986328125,1.3051835298538208,0.2056013643741607,-0.5252962708473206,72.93382263183594,-64.6783447265625,232.7718200683593
1700075150,0.512603759765625,1.1830596923828125,-0.50970458984375,0.8637193441390991,-0.1813029497861862,-0.3906489908695221,72.8228759765625,-64.77409362792969,232.7914886474609
1700075150,1.28594970703125,1.1514739990234375,0.0548248291015625,0.3292074501514435,-0.3031766414642334,-0.3485534489154815,72.69981384277344,-64.39588928222656,232.9656219482422
1700075150,1.4805450439453125,0.9659423828125,0.344146728515625,0.3330700993537903,-0.4191221594810486,-0.0044623925350606,73.11741638183594,-64.3214111328125,232.9025115966797
1700075150,1.3612518310546875,0.844329833984375,0.303466796875,-0.1578990817070007,-0.3335814177989959,0.5553939938545227,73.10328674316406,-64.24069213867188,232.691146850586
1700075150,1.9343414306640625,0.775146484375,-0.24639892578125,-0.6908943057060242,-0.6307518482208252,0.2465700954198837,73.11796569824219,-64.087890625,232.87648010253903
1700075150,3.2489013671875,0.08807373046875,-0.274139404296875,-1.137665629386902,-0.6213354468345642,0.3167776763439178,73.30142211914062,-63.98167419433594,232.8884429931641
1700075150,2.55609130859375,-0.3648834228515625,-0.6785736083984375,-0.5793874859809875,-0.5161957144737244,0.913128137588501,73.27931213378906,-63.67767333984375,232.157958984375
1700075150,0.8179931640625,-0.3795013427734375,-0.80865478515625,0.1636925339698791,-0.5383114218711853,1.0237656831741333,73.3621826171875,-63.40071105957031,233.1971740722656
1700075150,0.082000732421875,-0.1098785400390625,-0.747406005859375,0.0701857432723045,-0.6602804660797119,0.8554946780204773,73.42433166503906,-63.04313659667969,233.26168823242188
1700075150,-0.0166015625,0.6773223876953125,-0.4530487060546875,-0.6407262086868286,-0.4718649983406067,0.2098206132650375,73.42922973632812,-62.8841552734375,232.9998779296875
1700075150,0.41546630859375,1.0468292236328125,-0.192230224609375,-0.4257422387599945,-0.3110279142856598,-0.3506946265697479,73.81245422363281,-63.03794860839844,233.08203125
1700075150,0.9510650634765624,0.8227996826171875,-0.1681976318359375,-0.1997040510177612,-0.3814088702201843,-0.493618756532669,73.47923278808594,-62.66926574707031,233.7190704345703
1700075150,1.168212890625,0.4853057861328125,-0.3140716552734375,-0.0885413140058517,-0.37706258893013,-0.4391797482967376,73.51506042480469,-63.034027099609375,232.94869995117188
1700075150,1.0544586181640625,0.1886749267578125,-0.4816131591796875,-0.0081567298620939,-0.3712103068828583,-0.2915756702423095,73.41363525390625,-62.7760009765625,232.94161987304688
1700075150,0.8654022216796875,-0.041168212890625,-0.527130126953125,-0.0425000563263893,-0.43286994099617,-0.1627540290355682,73.50485229492188,-63.01969909667969,232.9298858642578
1700075150,0.8189849853515625,-0.0666656494140625,-0.570159912109375,-0.1150309816002845,-0.5038583278656006,-0.1067288443446159,73.32791137695312,-63.186859130859375,233.36268615722656
1700075150,0.9482421875,0.098480224609375,-0.500885009765625,-0.2018721401691436,-0.5388368368148804,-0.1339713782072067,73.36297607421875,-63.15962219238281,233.43833923339844
1700075150,1.0481414794921875,0.2857513427734375,-0.4267578125,-0.2700013816356659,-0.5474063754081726,-0.2352820187807083,73.20091247558594,-63.09007263183594,233.6778106689453
1700075150,1.0601654052734375,0.354461669921875,-0.4328460693359375,-0.2851483821868896,-0.5645254254341125,-0.3550329208374023,73.63690185546875,-63.4493408203125,233.1125030517578
1700075150,1.0183258056640625,0.329559326171875,-0.4583892822265625,-0.2630601227283478,-0.6078222990036011,-0.4412426352500915,73.58061218261719,-63.02879333496094,233.55699157714844
1700075150,0.96954345703125,0.275604248046875,-0.4434661865234375,-0.2277077287435531,-0.6326128840446472,-0.4943037331104278,73.91748046875,-63.22148132324219,234.04722595214844
1700075150,0.9355316162109376,0.225830078125,-0.39013671875,-0.152180477976799,-0.623444139957428,-0.5252819061279297,73.96769714355469,-63.43380737304688,233.0077209472656
1700075150,0.9134063720703124,0.19384765625,-0.3652496337890625,-0.0471171773970127,-0.5980746150016785,-0.5397215485572815,73.88623046875,-63.55462646484375,233.4338836669922
1700075150,0.90679931640625,0.2085418701171875,-0.36553955078125,-0.0233766958117485,-0.5985212326049805,-0.5613434910774231,74.46994018554688,-63.20555114746094,233.6109771728516
1700075150,0.9351959228515624,0.2339935302734375,-0.3615875244140625,-0.0402403622865676,-0.5931994318962097,-0.6025641560554504,74.71604919433594,-63.1707763671875,233.4501953125
1700075150,0.9767303466796876,0.229156494140625,-0.36767578125,-0.0337832644581794,-0.5919373631477356,-0.6388843655586243,74.409423828125,-63.51313781738281,233.6664886474609
1700075150,0.9989776611328124,0.2256622314453125,-0.383026123046875,-0.0552821643650531,-0.6080494523048401,-0.6566635966300964,74.82275390625,-63.821075439453125,234.15122985839844
1700075150,0.9933624267578124,0.2156219482421875,-0.3680572509765625,-0.1179612576961517,-0.6063341498374939,-0.686505138874054,74.53150939941406,-63.59776306152344,234.1539306640625
1700075150,0.9747314453125,0.1910400390625,-0.34210205078125,-0.1420098692178726,-0.5874238014221191,-0.6845002770423889,74.95240783691406,-63.98092651367188,233.9722442626953
1700075150,0.94354248046875,0.1787872314453125,-0.331085205078125,-0.1191370412707328,-0.5870235562324524,-0.6746479272842407,74.84454345703125,-64.13458251953125,234.2412872314453
1700075150,0.9221038818359376,0.1548004150390625,-0.3132171630859375,-0.1385168731212616,-0.5878174304962158,-0.6957100629806519,75.33642578125,-64.05906677246094,233.81935119628903
1700075150,0.9313201904296876,0.14093017578125,-0.3325653076171875,-0.1610762327909469,-0.590121865272522,-0.7094098925590515,75.44851684570312,-64.05496215820312,234.68118286132807
1700075150,0.9388885498046876,0.1339263916015625,-0.350799560546875,-0.1955489963293075,-0.5787059664726257,-0.6973212957382202,75.78834533691406,-64.42961120605469,234.4361267089844
1700075150,0.9195404052734376,0.110443115234375,-0.3281402587890625,-0.1876396685838699,-0.560454249382019,-0.6838001608848572,75.85215759277344,-64.22389221191406,234.458251953125
1700075150,0.917755126953125,0.0724334716796875,-0.2983245849609375,-0.1456741094589233,-0.5382142066955566,-0.6562228798866272,75.80027770996094,-64.27120971679688,234.8104553222656
1700075150,0.90985107421875,0.071075439453125,-0.2859344482421875,-0.1375330984592437,-0.5148739814758301,-0.6306557059288025,76.24259948730469,-64.43923950195312,234.42437744140625
1700075150,0.9122467041015624,0.0930328369140625,-0.2722930908203125,-0.069803312420845,-0.4665464162826538,-0.6197226643562317,76.403564453125,-64.69593811035156,234.5722503662109
1700075150,0.9381256103515624,0.0781402587890625,-0.237091064453125,0.0689774677157402,-0.4117279052734375,-0.6125901341438293,76.69424438476562,-64.87535095214844,235.33132934570312
1700075150,0.9535064697265624,0.055908203125,-0.2238006591796875,0.1750317364931106,-0.3919603228569031,-0.593860924243927,77.10636901855469,-64.80613708496094,235.347412109375
1700075150,0.961456298828125,0.0693206787109375,-0.2108612060546875,0.2146249562501907,-0.3719637095928192,-0.5259684324264526,77.43743896484375,-65.21577453613281,234.962890625
1700075150,0.949920654296875,0.097991943359375,-0.260955810546875,0.3066270351409912,-0.3718923330307007,-0.4833341836929321,77.13700866699219,-65.29087829589844,236.0727081298828
1700075150,0.9402313232421876,0.1058349609375,-0.2933197021484375,0.45054692029953,-0.3844989538192749,-0.4802917838096618,77.46354675292969,-65.70932006835938,235.4718475341797
1700075150,0.966217041015625,0.0401763916015625,-0.2755889892578125,0.5300638675689697,-0.3555692732334137,-0.4468978643417358,77.8614501953125,-66.19717407226562,235.8680877685547
1700075150,0.968994140625,0.0088348388671875,-0.2823333740234375,0.5419617891311646,-0.333649069070816,-0.4005721807479858,77.85765075683594,-65.84764099121094,235.5284576416016
1700075150,0.95172119140625,-0.032684326171875,-0.2319793701171875,0.4493668973445892,-0.3088119029998779,-0.2980002760887146,78.01512145996094,-66.04338073730469,236.39100646972656
1700075150,0.9234619140625,-0.061676025390625,-0.2304840087890625,0.4569113552570343,-0.2632428109645843,-0.2050026804208755,78.10433959960938,-66.27287292480469,236.4695739746093
1700075150,0.903900146484375,-0.1374053955078125,-0.1893463134765625,0.4736005961894989,-0.2173477709293365,-0.1203860640525817,78.39016723632812,-66.41285705566406,235.957275390625
1700075150,0.9221038818359376,-0.225799560546875,-0.117340087890625,0.3869956433773041,-0.152832955121994,0.0496549047529697,78.57586669921875,-66.55850219726562,236.6692352294922
1700075150,0.9252471923828124,-0.1999664306640625,-0.194671630859375,0.4645354449748993,-0.1103680506348609,0.1927742511034011,78.83653259277344,-66.45094299316406,236.680404663086
1700075150,0.9900360107421876,-0.1942138671875,-0.2492523193359375,0.556715726852417,-0.1083027720451355,0.3419933021068573,78.52095031738281,-66.04859924316406,236.6885528564453
1700075150,1.0706634521484375,-0.1415557861328125,-0.212615966796875,0.5712592601776123,-0.0922574922442436,0.4564951062202453,79.00462341308594,-66.31590270996094,236.7001342773437
1700075151,1.0694122314453125,-0.066131591796875,-0.19976806640625,0.6075466871261597,-0.0728390514850616,0.5435122847557068,78.82577514648438,-66.38191223144531,237.0041961669922
1700075151,1.019195556640625,-0.0231781005859375,-0.2523956298828125,0.6267576217651367,-0.1021215766668319,0.5781288743019104,79.32920837402344,-66.65763854980469,236.71739196777344
1700075151,1.0281524658203125,0.0138397216796875,-0.294830322265625,0.5863383412361145,-0.1272333264350891,0.5885122418403625,79.31015014648438,-66.63966369628906,236.7199859619141
1700075151,1.108001708984375,0.0321197509765625,-0.2425689697265625,0.5717428922653198,-0.11554816365242,0.613959014415741,79.44746398925781,-66.50161743164062,236.66259765625
1700075151,1.163604736328125,0.071075439453125,-0.17877197265625,0.5277218818664551,-0.1275004297494888,0.6215447783470154,79.19590759277344,-66.82505798339844,236.66229248046875
1700075151,1.2211761474609375,0.089630126953125,-0.11480712890625,0.4845690727233886,-0.151354894042015,0.6650128960609436,79.47621154785156,-66.54180908203125,236.55709838867188
1700075151,1.28314208984375,0.07861328125,-0.0679168701171875,0.3845562040805816,-0.1557049006223678,0.7072871327400208,79.39335632324219,-66.51126098632812,237.2111053466797
1700075151,1.30517578125,0.050537109375,-0.12298583984375,0.287771612405777,-0.1944682896137237,0.7051344513893127,79.60813903808594,-66.04380798339844,237.17535400390625
1700075151,1.282867431640625,0.0418701171875,-0.1942138671875,0.2382895350456237,-0.2663094401359558,0.7008600831031799,79.36955261230469,-66.01847839355469,237.02029418945312
1700075151,1.2848968505859375,0.05963134765625,-0.2258453369140625,0.2456981837749481,-0.3556036353111267,0.6549069881439209,79.65101623535156,-65.50184631347656,237.2797393798828
1700075151,1.33221435546875,0.08978271484375,-0.2099456787109375,0.2860709130764007,-0.4314480721950531,0.5873926877975464,79.13983154296875,-65.35246276855469,236.7430419921875
1700075151,1.3704376220703125,0.116729736328125,-0.1591644287109375,0.3984461724758148,-0.4596999585628509,0.5117727518081665,79.41044616699219,-64.91946411132812,236.62608337402344
