timestamp,acc-x,acc-y,acc-z,gyr-x,gyr-y,gyr-z,mag-x,mag-y,mag-z
1700076108,2.031234741210937,0.0605926513671875,-0.3916473388671875,-0.4540098309516907,0.4574258625507355,0.5772284269332886,125.3348388671875,-67.61062622070312,282.1971130371094
1700076108,2.3146209716796875,0.17803955078125,-0.1044464111328125,0.1107070744037628,0.6366145610809326,1.0241659879684448,125.38998413085938,-67.38162231445312,282.399169921875
1700076108,1.7972259521484375,0.466644287109375,-0.0534210205078125,0.1805921494960785,0.380009114742279,1.4137721061706543,125.663818359375,-66.84272766113281,282.25469970703125
1700076108,1.0949249267578125,0.50457763671875,-0.1504058837890625,0.0479113310575485,0.1302038133144378,1.3421151638031006,125.39349365234376,-66.39900207519531,282.3060302734375
1700076108,0.831085205078125,0.4543914794921875,-0.2361907958984375,-0.0955763235688209,0.1551477760076522,0.8591663837432861,125.18621826171876,-66.12057495117188,282.0374450683594
1700076109,0.713592529296875,0.4588470458984375,-0.2793121337890625,0.100531131029129,0.3772801756858825,0.4852146208286285,125.44401550292967,-65.59255981445312,282.04248046875
1700076109,0.615814208984375,0.5583343505859375,-0.2592315673828125,0.456823468208313,0.3604079782962799,0.3161758184432983,125.32070922851562,-65.11161804199219,282.15655517578125
1700076109,0.736541748046875,0.535308837890625,-0.3461151123046875,0.5060901045799255,0.1605262905359268,0.0730664879083633,125.15835571289062,-64.62155151367188,281.51666259765625
1700076109,0.983673095703125,0.3494110107421875,-0.411346435546875,0.2941610515117645,0.0886758044362068,-0.1270876377820968,125.31581115722656,-64.47109985351562,282.028564453125
1700076109,1.0857086181640625,0.07025146484375,-0.3679962158203125,0.129800334572792,0.1783582866191864,-0.1684659719467163,125.21267700195312,-63.80326843261719,281.42974853515625
1700076109,1.0808868408203125,-0.1657257080078125,-0.346343994140625,0.1386678665876388,0.199158638715744,0.0867034718394279,124.97233581542967,-63.16497802734375,282.0497436523437
1700076109,0.9847564697265624,-0.16278076171875,-0.404693603515625,0.1564918756484985,0.0472231730818748,0.4705363512039184,124.95494079589844,-62.591827392578125,281.1131896972656
1700076109,0.997589111328125,-0.0796356201171875,-0.4080963134765625,0.0933603048324585,-0.0831835716962814,0.6506518125534058,124.9078369140625,-61.82264709472656,280.6875915527344
1700076109,1.039825439453125,0.0036163330078125,-0.38983154296875,-0.0053401705808937,-0.1338739097118377,0.6617928743362427,125.10975646972656,-60.9095458984375,280.6642761230469
1700076109,0.975494384765625,0.146697998046875,-0.313446044921875,-0.0970727503299713,-0.0817838087677955,0.5973723530769348,124.944580078125,-59.91816711425781,280.3138122558594
1700076109,0.887786865234375,0.24078369140625,-0.2307281494140625,-0.1058441400527954,0.0500858053565025,0.5266443490982056,124.77008056640624,-59.38278198242188,280.33941650390625
1700076109,0.8092498779296875,0.2479248046875,-0.2033233642578125,-0.0049201902002096,0.1444213539361953,0.4959777891635895,124.1620635986328,-58.44172668457031,279.555908203125
1700076109,0.7679901123046875,0.1842803955078125,-0.2658843994140625,0.1727829575538635,0.1427041590213775,0.5131126046180725,124.26632690429688,-57.63278198242188,279.1318359375
1700076109,0.806549072265625,0.1295928955078125,-0.3109130859375,0.271071195602417,0.1389291286468505,0.5710144639015198,123.96687316894533,-56.42205810546875,279.021728515625
1700076109,0.9141998291015624,0.0709686279296875,-0.2605133056640625,0.2869971394538879,0.2380405217409134,0.6624706387519836,124.118896484375,-55.92645263671875,278.4151306152344
1700076109,0.9967498779296876,0.00994873046875,-0.2145538330078125,0.3064206540584564,0.3213167786598205,0.8049649596214294,124.10150146484376,-54.97596740722656,278.4734191894531
1700076109,1.0205230712890625,-0.041351318359375,-0.2171173095703125,0.2886187434196472,0.3845410048961639,0.973867654800415,123.74102783203124,-54.21066284179688,277.5987548828125
1700076109,1.0047454833984375,-0.06683349609375,-0.3084259033203125,0.2721244692802429,0.3975897133350372,1.184264898300171,123.26219177246094,-53.327545166015625,276.550048828125
1700076109,0.92535400390625,-0.0203399658203125,-0.3706512451171875,0.2693385183811188,0.371976763010025,1.3786004781723022,123.21653747558594,-52.31459045410156,276.3222045898437
1700076109,0.8347015380859375,0.0714111328125,-0.3575439453125,0.2424264848232269,0.3771443665027618,1.4866441488265991,122.76921081542967,-51.00508117675781,275.96099853515625
1700076109,0.7516021728515625,0.204559326171875,-0.3135528564453125,0.2737013101577759,0.4523168802261352,1.458327054977417,122.55032348632812,-50.16380310058594,275.4771423339844
1700076109,0.7013092041015625,0.3287811279296875,-0.23565673828125,0.3748990297317505,0.5814535617828369,1.394601583480835,122.39303588867188,-49.40028381347656,274.8959350585937
1700076109,0.6918487548828125,0.3885955810546875,-0.1723175048828125,0.5191680788993835,0.7123510837554932,1.3662689924240112,122.11624145507812,-48.539825439453125,274.18585205078125
1700076109,0.775665283203125,0.2831573486328125,-0.178985595703125,0.6125797629356384,0.8136292695999146,1.4201074838638306,121.75755310058594,-47.21630859375,274.33111572265625
1700076109,0.984710693359375,0.057373046875,-0.2114410400390625,0.5719447135925293,0.8626626133918762,1.5979400873184204,121.60060119628906,-46.51153564453125,273.64239501953125
1700076109,1.1374053955078125,-0.0214691162109375,-0.35540771484375,0.5245282053947449,0.8430632948875427,1.861904859542847,120.79322814941406,-45.22427368164063,273.54840087890625
1700076109,1.0920867919921875,0.04498291015625,-0.524322509765625,0.6425927877426147,0.7410421371459961,2.0911636352539062,120.1973876953125,-44.29331970214844,272.82861328125
1700076109,1.003509521484375,0.1544647216796875,-0.447662353515625,0.6759241223335266,0.7295151948928833,2.239697456359864,119.67047119140624,-43.033966064453125,273.03668212890625
1700076109,0.9844512939453124,0.3797454833984375,-0.3034820556640625,0.6024448275566101,0.7964915633201599,2.1970019340515137,119.09048461914062,-41.62374877929688,272.4921875
1700076109,0.9533843994140624,0.515472412109375,-0.2518157958984375,0.6270135641098022,0.8178796768188477,2.072957754135132,118.45295715332033,-40.82350158691406,272.2850341796875
1700076109,0.8497772216796875,0.584136962890625,-0.2674713134765625,0.7432469725608826,0.8220099806785583,1.984825134277344,117.90585327148438,-40.1312255859375,271.792724609375
1700076109,0.7898406982421875,0.5584716796875,-0.296905517578125,0.7600187659263611,0.8404046893119812,1.9444146156311035,117.119140625,-38.996673583984375,271.76910400390625
1700076109,0.6799163818359375,0.439239501953125,-0.3598785400390625,0.6650065183639526,0.8591464161872864,1.9494855403900144,116.4967803955078,-38.24449157714844,271.0650634765625
1700076109,0.6383819580078125,0.3700714111328125,-0.455291748046875,0.6644373536109924,0.8101919293403625,1.996181964874268,116.02256774902344,-37.1676025390625,271.12646484375
1700076109,0.784423828125,0.3868255615234375,-0.469329833984375,0.6465441584587097,0.8172082901000977,2.0800795555114746,115.09527587890624,-36.03083801269531,271.0009765625
1700076109,0.9568023681640624,0.431549072265625,-0.4831085205078125,0.6125051975250244,0.7834372520446777,2.129057645797729,114.24806213378906,-34.750396728515625,271.022216796875
1700076109,1.0901031494140625,0.4822540283203125,-0.4655303955078125,0.6267057061195374,0.7464110851287842,2.2145297527313232,113.64376831054688,-33.83172607421875,271.09033203125
1700076109,1.13665771484375,0.4649505615234375,-0.4272003173828125,0.6932573318481445,0.7248898148536682,2.3430492877960205,112.44622802734376,-32.48561096191406,270.72271728515625
1700076109,1.0877838134765625,0.49200439453125,-0.4664459228515625,0.7500779628753662,0.6367623209953308,2.372222661972046,111.52159118652344,-31.46107482910156,271.600341796875
1700076109,1.2787628173828125,0.6028900146484375,-0.4936370849609375,0.8202946186065674,0.5024439692497253,2.3912386894226074,110.04916381835938,-30.60517883300781,271.2724609375
1700076109,1.4640045166015625,0.6127166748046875,-0.434844970703125,0.857448399066925,0.4030502438545227,2.494445323944092,109.18962097167967,-29.98497009277344,272.1331787109375
1700076109,1.3648529052734375,0.532196044921875,-0.3945159912109375,0.8409380912780762,0.2618478536605835,2.552036762237549,108.24137878417967,-28.83160400390625,273.06817626953125
1700076109,1.45404052734375,0.5109405517578125,-0.4212188720703125,0.8128862380981445,0.0531974397599697,2.5882439613342285,107.04563903808594,-28.430221557617188,273.30438232421875
1700076109,1.68206787109375,0.504150390625,-0.42840576171875,0.8172830939292908,-0.1266695261001587,2.560706377029419,106.555908203125,-27.714889526367188,273.9269714355469
1700076109,1.8690643310546875,0.4156951904296875,-0.379364013671875,0.7798851728439331,-0.266626626253128,2.5801215171813965,105.72021484375,-27.65142822265625,274.1995849609375
1700076109,1.97613525390625,0.322967529296875,-0.3363189697265625,0.4502420127391815,-0.3219175934791565,2.704185724258423,105.3154296875,-27.642868041992188,274.7393798828125
1700076109,1.796295166015625,0.291473388671875,-0.45782470703125,0.1534577310085296,-0.2376517057418823,2.592705488204956,105.05516052246094,-27.6156005859375,275.391357421875
1700076109,1.4379730224609375,0.1187744140625,-0.587615966796875,-0.0405013523995876,-0.2764443755149841,2.348999500274658,104.63429260253906,-27.69622802734375,275.7875366210937
1700076109,1.03704833984375,0.02032470703125,-0.5848541259765625,-0.4476030766963959,-0.3264926373958587,2.277706861495972,104.74923706054688,-28.342742919921875,276.2132568359375
1700076109,0.5850067138671875,0.1236572265625,-0.6231689453125,-0.9284850358963012,-0.2002036720514297,2.0011024475097656,105.28636169433594,-29.003646850585938,276.7537841796875
1700076109,0.1858367919921875,0.0902862548828125,-0.7125701904296875,-1.210054636001587,-0.1875264793634414,1.4210445880889893,106.15757751464844,-29.880645751953125,277.26678466796875
1700076109,-0.115814208984375,0.01959228515625,-0.5857696533203125,-1.0097774267196655,-0.2928696870803833,0.6376161575317383,107.0120086669922,-31.41084289550781,277.48516845703125
1700076109,-0.3251190185546875,-0.072784423828125,-0.214874267578125,-0.376575767993927,-0.4145388603210449,-0.1447665095329284,108.60537719726562,-33.524139404296875,277.33935546875
1700076109,-0.523773193359375,-0.2421417236328125,0.14459228515625,0.3043359220027923,-0.5258523225784302,-0.8243492841720581,109.83680725097656,-35.023193359375,276.93511962890625
1700076109,-0.4802703857421875,-0.3929443359375,0.347015380859375,0.4816872775554657,-0.7532005310058594,-1.5510705709457395,111.11094665527344,-37.16798400878906,277.1663818359375
1700076109,-0.1233978271484375,-0.3594207763671875,0.189727783203125,0.2258291393518448,-0.8734265565872192,-2.332927703857422,112.24925231933594,-39.27052307128906,277.30810546875
1700076109,0.123077392578125,-0.3836212158203125,-0.194854736328125,0.2143282741308212,-0.8560198545455933,-3.0332043170928955,113.63020324707033,-41.31938171386719,277.1741943359375
1700076109,0.2260284423828125,-0.547576904296875,-0.157012939453125,0.36118084192276,-0.8034530282020569,-3.4429948329925537,114.18971252441406,-43.81632995605469,276.0613098144531
1700076109,0.2903594970703125,-0.600494384765625,0.0085601806640625,0.152979701757431,-0.778186559677124,-3.589273929595948,115.00804138183594,-46.114349365234375,276.30279541015625
1700076109,0.342742919921875,-0.4788665771484375,-0.0856781005859375,-0.2647776007652282,-0.7743178009986877,-3.7417125701904297,115.53463745117188,-48.345947265625,275.9261169433594
1700076109,0.423004150390625,-0.3219146728515625,-0.1915435791015625,-0.5315642952919006,-0.7773005366325378,-3.998941421508789,116.52102661132812,-51.13554382324219,276.4212951660156
1700076109,0.5051422119140625,-0.201904296875,-0.1826934814453125,-0.5691899657249451,-0.7503600120544434,-4.317709445953369,117.31039428710938,-53.61369323730469,276.1163330078125
1700076109,0.5912933349609375,-0.08758544921875,-0.1509552001953125,-0.4755223095417022,-0.6619026064872742,-4.551817417144775,117.41120910644533,-56.34651184082031,276.63922119140625
1700076109,0.69122314453125,0.0446929931640625,-0.125396728515625,-0.3908175528049469,-0.6475508213043213,-4.584085464477539,118.02304077148438,-59.27033996582031,277.028564453125
1700076109,0.8156585693359375,0.1829376220703125,-0.0883331298828125,-0.3119983673095703,-0.7667560577392578,-4.502278327941895,118.6604461669922,-62.141632080078125,277.5663452148437
1700076109,1.0001220703125,0.3396148681640625,-0.0818634033203125,-0.0420800745487213,-0.917002260684967,-4.352308750152588,118.18739318847656,-65.26435852050781,277.8495788574219
1700076109,1.1340789794921875,0.56475830078125,-0.16717529296875,0.8174722194671631,-1.062477946281433,-4.312254428863525,118.33682250976562,-68.14193725585938,278.659423828125
1700076109,1.1858367919921875,0.7868499755859375,-0.2819671630859375,2.0170297622680664,-1.3210922479629517,-4.437023162841797,117.84561157226562,-70.88104248046875,279.1551513671875
1700076109,1.2292938232421875,1.041046142578125,-0.2461395263671875,2.6197726726531982,-1.4491167068481443,-4.664460182189941,117.61370849609376,-73.52586364746094,279.52301025390625
1700076109,1.2801055908203125,1.34222412109375,-0.082427978515625,2.6426432132720947,-1.1271743774414062,-5.009278297424316,117.23863220214844,-75.46888732910156,280.43621826171875
1700076109,1.28619384765625,1.5344696044921875,0.074127197265625,2.913013935089112,-0.5910667777061462,-5.37774133682251,116.55332946777344,-77.47952270507812,280.1249389648437
1700076109,1.258056640625,1.26287841796875,-0.0211029052734375,2.781141996383667,-0.1909675598144531,-5.472963333129883,116.26759338378906,-79.30924987792969,281.544677734375
1700076109,1.155548095703125,0.846038818359375,-0.3308868408203125,1.7502694129943848,-0.0970919281244278,-5.274156093597412,115.67930603027344,-80.36083984375,281.6502685546875
1700076109,1.0387420654296875,0.616424560546875,-0.5230865478515625,0.5855430960655212,-0.0323307737708091,-4.795475959777832,115.50462341308594,-80.958984375,282.5244445800781
1700076109,1.01513671875,0.5270538330078125,-0.5819549560546875,-0.123626597225666,-0.0524994283914566,-4.121383190155029,114.50929260253906,-81.76445007324219,283.3158874511719
1700076109,1.1401519775390625,0.5656280517578125,-0.5296630859375,-0.493913322687149,-0.2219073623418808,-3.397722244262696,114.38127136230467,-82.28379821777344,283.7677917480469
1700076109,1.2926025390625,0.710906982421875,-0.557769775390625,-0.34481942653656,-0.4716809689998626,-2.713489532470703,114.24285888671876,-83.0706787109375,284.2744445800781
1700076109,1.2862701416015625,0.930633544921875,-0.6566009521484375,-0.1960118561983108,-0.8131389617919922,-2.211501121520996,113.84719848632812,-83.48553466796875,284.2334289550781
1700076109,1.148101806640625,1.1720123291015625,-0.66082763671875,-0.2560719847679138,-0.936732828617096,-1.9641188383102417,113.56819152832033,-84.18431091308594,284.5346069335937
1700076109,1.1157989501953125,1.36749267578125,-0.514373779296875,0.0774617716670036,-0.6293249130249023,-1.938992977142334,113.31736755371094,-84.89627075195312,284.4674072265625
1700076109,1.11041259765625,1.336578369140625,-0.23944091796875,0.8469635248184204,-0.1928682625293731,-1.851499319076538,113.08843994140624,-85.72245788574219,284.868408203125
1700076109,0.980560302734375,1.020904541015625,-0.1839141845703125,1.153785228729248,0.079823724925518,-1.5170142650604248,113.1373291015625,-86.28628540039062,284.1695556640625
1700076109,0.7675933837890625,0.7770843505859375,-0.46484375,0.9927532076835632,0.1769249737262725,-1.042677402496338,112.84091186523438,-86.75569152832031,284.0191650390625
1700076109,0.5987396240234375,0.653106689453125,-0.655487060546875,0.837289035320282,0.239093005657196,-0.5462034344673157,112.6854248046875,-87.5614013671875,284.0892333984375
1700076109,0.5095977783203125,0.5222015380859375,-0.633148193359375,0.9141268134117126,0.3380528688430786,-0.1527703702449798,112.90383911132812,-87.63787841796875,284.22705078125
1700076109,0.5251312255859375,0.394439697265625,-0.479248046875,1.2328425645828247,0.4601708054542541,0.001888713799417,112.89404296875,-87.71952819824219,283.032470703125
1700076109,0.64947509765625,0.343109130859375,-0.2701416015625,1.5219120979309082,0.5579261183738708,0.0668434798717498,112.8621063232422,-86.90322875976562,283.7299194335937
1700076109,0.7467041015625,0.37493896484375,-0.14642333984375,1.6938798427581787,0.7671318054199219,0.0869356989860534,112.50872802734376,-86.67413330078125,283.5436096191406
1700076109,0.79827880859375,0.3562774658203125,-0.245819091796875,1.7694889307022097,1.1440691947937012,0.1541770547628402,112.74423217773438,-85.6082763671875,283.65380859375
1700076109,0.7554168701171875,0.3248291015625,-0.549163818359375,1.5695395469665527,1.5032823085784912,0.2168684005737304,113.17745971679688,-85.5399169921875,284.119140625
1700076109,0.54241943359375,0.3945465087890625,-0.927825927734375,1.578332781791687,0.8467006683349609,0.2474468052387237,112.90655517578124,-84.59080505371094,283.3212280273437
1700076109,0.81292724609375,0.35113525390625,-0.4114532470703125,1.6163371801376345,0.8970106840133667,0.4300680160522461,113.07302856445312,-83.85386657714844,282.9569091796875
1700076109,1.107879638671875,0.261383056640625,-0.60076904296875,2.088704824447632,4.4513773918151855,1.8237428665161133,113.09402465820312,-82.74778747558594,282.21929931640625
1700076109,-0.197906494140625,1.18658447265625,-3.136474609375,1.2084815502166748,0.0775733515620231,3.181124210357666,113.6444091796875,-81.4453125,281.222900390625
1700076109,1.2951202392578125,1.6221923828125,0.0400543212890625,-0.670818567276001,-1.7242215871810913,1.9023559093475344,114.00819396972656,-80.02592468261719,278.5375671386719
1700076109,3.958541870117188,-0.600250244140625,0.647003173828125,-0.8053596019744873,0.4137588143348694,0.3529562056064605,114.07473754882812,-79.05323791503906,280.10467529296875
1700076109,2.3927154541015625,-1.710784912109375,0.696807861328125,-0.6696566343307495,1.969184160232544,0.9121657013893129,114.24191284179688,-79.41484069824219,280.880859375
1700076109,1.0592193603515625,-0.9526824951171876,1.61773681640625,-1.1240131855010986,1.941070795059204,1.1735928058624268,114.25338745117188,-80.33590698242188,279.6727294921875
1700076109,0.8114166259765625,-0.447998046875,0.1956787109375,-1.905669093132019,1.417424559593201,1.2502926588058472,114.39649963378906,-80.16763305664062,277.5875244140625
1700076110,0.7973785400390625,-0.1231842041015625,-0.472625732421875,-2.023810386657715,0.9485104084014891,1.328708529472351,114.62001037597656,-80.14094543457031,277.55426025390625
1700076110,1.2017669677734375,-0.0615081787109375,-0.4635009765625,-1.5424871444702148,0.6348518133163452,1.3765435218811035,114.0058135986328,-80.02973937988281,276.2103271484375
1700076110,1.6078643798828125,-0.0026397705078125,-0.4659881591796875,-1.3253625631332395,0.2606680691242218,1.353346586227417,114.05947875976562,-79.63623046875,275.88604736328125
1700076110,1.5755157470703125,0.1350555419921875,-0.507080078125,-1.3046293258666992,0.1191599443554878,1.0571484565734863,114.06736755371094,-79.09207153320312,275.39215087890625
1700076110,1.246002197265625,0.15582275390625,-0.5736236572265625,-1.2335988283157349,0.1881664395332336,0.5848120450973511,114.30519104003906,-78.29032897949219,275.17578125
1700076110,0.9763641357421876,0.0632781982421875,-0.5131378173828125,-0.4652505218982696,0.1211469322443008,0.6395536065101624,114.33102416992188,-77.42825317382812,274.8968200683594
1700076110,1.1391754150390625,0.138336181640625,-0.0653076171875,-0.1993844807147979,0.1475899964570999,1.1132980585098269,114.214111328125,-76.92771911621094,275.2821044921875
1700076110,2.320541381835937,0.13690185546875,0.324920654296875,0.0445371083915233,0.5328085422515869,1.4678184986114502,114.42181396484376,-76.23251342773438,275.5321655273437
1700076110,3.25885009765625,-0.1409454345703125,0.49102783203125,-0.2881524264812469,0.8911325931549072,2.208860158920288,114.34713745117188,-75.64491271972656,274.5185546875
1700076110,2.246917724609375,0.1801910400390625,-0.1281280517578125,-0.1656467616558075,0.5470196604728699,2.2729756832122803,114.29421997070312,-74.99713134765625,275.1176147460937
1700076110,0.878265380859375,0.3175201416015625,-0.4415435791015625,0.3011803328990936,0.3326487839221954,1.7204416990280151,114.32887268066406,-74.15327453613281,274.4008178710937
1700076110,0.2173919677734375,0.2605438232421875,-0.5622711181640625,0.5571330189704895,0.5710973143577576,1.215483784675598,114.57965087890624,-72.86318969726562,274.3812866210937
1700076110,-0.1574249267578125,0.39385986328125,-0.477294921875,1.0559476613998413,0.7889228463172913,0.8775973320007324,114.53077697753906,-72.91975402832031,274.51483154296875
1700076110,0.1945648193359375,0.5167083740234375,-0.3873138427734375,1.4129648208618164,0.601410984992981,0.703008234500885,114.45402526855467,-72.60806274414062,273.9595947265625
1700076110,0.9779510498046876,0.505859375,-0.3323516845703125,1.182937741279602,0.4918501675128937,0.6099536418914795,114.5019989013672,-72.91618347167969,274.34881591796875
1700076110,1.3175506591796875,0.4097900390625,-0.3454742431640625,0.9113094806671144,0.5983555912971497,0.5144183039665222,114.760986328125,-73.22900390625,273.96942138671875
1700076110,1.2059478759765625,0.1718902587890625,-0.4090728759765625,0.8248907327651978,0.613434374332428,0.6248361468315125,114.58480834960938,-73.25331115722656,273.94586181640625
1700076110,0.9996337890625,-0.0354461669921875,-0.4123382568359375,0.7219217419624329,0.573304295539856,0.9412689805030824,114.60519409179688,-73.282470703125,274.15875244140625
1700076110,0.85284423828125,-0.181732177734375,-0.5218963623046875,0.542079508304596,0.4759473502635956,1.2504748106002808,114.50926208496094,-73.24296569824219,274.2160339355469
1700076110,0.7950286865234375,-0.1428680419921875,-0.6704254150390625,0.3676635026931762,0.3626274764537811,1.4353325366973877,114.23289489746094,-73.50088500976562,274.6654663085937
1700076110,0.80999755859375,0.1589202880859375,-0.583740234375,0.1626424491405487,0.3638024628162384,1.4217133522033691,114.3865966796875,-73.19970703125,274.47412109375
1700076110,0.8266754150390625,0.45751953125,-0.3926239013671875,0.0228435304015874,0.4278983473777771,1.1995415687561035,114.4326171875,-73.1021728515625,273.87261962890625
1700076110,0.807464599609375,0.60760498046875,-0.300689697265625,0.1595055013895034,0.4895683526992798,0.9414244890213012,114.30226135253906,-72.56480407714844,274.1239624023437
1700076110,0.87493896484375,0.5871734619140625,-0.2910003662109375,0.4689432382583618,0.5456215143203735,0.8978296518325806,113.8217315673828,-72.56936645507812,274.494873046875
1700076110,0.98956298828125,0.445556640625,-0.33135986328125,0.6594945788383484,0.6171146035194397,1.0302425622940063,114.61451721191406,-72.32635498046875,274.7413330078125
1700076110,1.110687255859375,0.22283935546875,-0.3892974853515625,0.6434929370880127,0.6595560908317566,1.2730830907821655,114.06875610351562,-71.76962280273438,274.3546447753906
1700076110,1.167816162109375,0.0150604248046875,-0.39874267578125,0.5439122915267944,0.6810280680656433,1.5763345956802368,114.31130981445312,-71.43536376953125,273.7528686523437
1700076110,1.077362060546875,-0.114959716796875,-0.472076416015625,0.5919644832611084,0.7660382986068726,1.8412458896636963,114.3083038330078,-70.88279724121094,274.1318054199219
1700076110,0.9124908447265624,-0.06365966796875,-0.619110107421875,0.7974300384521484,0.8516192436218262,1.9000396728515625,114.27734375,-70.48602294921875,273.97674560546875
1700076110,0.8870697021484375,0.1764068603515625,-0.583984375,0.9826505184173584,0.9834619760513306,1.81281852722168,114.0223388671875,-69.71722412109375,273.014404296875
1700076110,0.912322998046875,0.4516143798828125,-0.4281158447265625,1.1528717279434204,1.1000570058822632,1.6728800535202026,113.99681091308594,-69.20834350585938,273.1055908203125
1700076110,1.0123748779296875,0.5717315673828125,-0.288818359375,1.2790496349334717,1.1710542440414429,1.665644288063049,114.07127380371094,-68.39285278320312,272.68115234375
1700076110,1.085845947265625,0.541534423828125,-0.2800445556640625,1.2800201177597046,1.167476773262024,1.749561786651611,114.17364501953124,-67.63003540039062,272.40191650390625
1700076110,1.021636962890625,0.3643035888671875,-0.302276611328125,1.191525101661682,1.1970115900039673,1.8415721654891968,113.88925170898438,-66.35618591308594,272.1139831542969
1700076110,0.6380615234375,0.27801513671875,-0.4363861083984375,1.0522931814193726,1.2197085618972778,1.850797295570373,113.8586883544922,-65.60394287109375,271.9525756835937
1700076110,0.293060302734375,0.5004730224609375,-0.5413818359375,1.0582275390625,1.2019975185394287,1.6583964824676514,113.76925659179688,-64.66267395019531,271.7646179199219
1700076110,0.3226318359375,0.763031005859375,-0.4747772216796875,1.1703232526779177,1.2042478322982788,1.421351432800293,113.38514709472656,-63.81138610839844,270.4825744628906
1700076110,0.4609832763671875,0.8108673095703125,-0.3950653076171875,1.236218810081482,1.1514389514923096,1.3790476322174072,113.37350463867188,-62.74357604980469,270.7596130371094
1700076110,0.7117156982421875,0.7159576416015625,-0.4546966552734375,1.138761043548584,1.127915859222412,1.5072863101959229,113.46853637695312,-61.869964599609375,269.86529541015625
1700076110,1.121978759765625,0.5718994140625,-0.555999755859375,0.997482180595398,1.159989833831787,1.7537627220153809,113.31434631347656,-60.91374206542969,269.3020935058594
1700076110,1.5215911865234375,0.4036102294921875,-0.573577880859375,1.0542179346084597,1.2088814973831177,2.082226276397705,112.43107604980467,-59.71723937988281,268.834228515625
1700076110,1.70477294921875,0.1833343505859375,-0.6293792724609375,1.198153734207153,1.1716912984848022,2.32783317565918,112.21296691894533,-58.49259948730469,267.9963073730469
1700076110,1.58782958984375,0.051300048828125,-0.791717529296875,1.356282114982605,0.9900301098823548,2.410078763961792,112.3719482421875,-57.22138977050781,268.06549072265625
1700076110,1.2085418701171875,0.1702423095703125,-0.9940338134765624,1.6147922277450562,0.7975424528121948,2.349733829498291,111.56173706054688,-55.87516784667969,267.3802490234375
1700076110,0.9158935546875,0.4546051025390625,-0.9392242431640624,1.7296831607818604,0.7003061771392822,2.1276211738586426,111.01576232910156,-54.42985534667969,267.4291687011719
1700076110,1.04278564453125,0.607208251953125,-0.7368621826171875,1.9643710851669312,0.7201722860336304,1.8389641046524048,110.473876953125,-53.008148193359375,266.9805603027344
1700076110,1.31884765625,0.4867095947265625,-0.6784820556640625,2.3789658546447754,0.8622742891311646,1.3228394985198977,109.44110107421876,-51.83869934082031,266.0238342285156
1700076110,1.631103515625,0.122222900390625,-0.5947723388671875,2.98921799659729,0.9261044263839722,0.6119992136955261,109.02873229980467,-50.59233093261719,265.7943115234375
1700076110,1.7454986572265625,-0.1860198974609375,-0.45538330078125,2.9055063724517822,0.6801364421844482,1.0358096361160278,108.310546875,-48.86781311035156,265.54315185546875
1700076110,1.2399139404296875,0.29791259765625,-0.4984893798828125,2.1979293823242188,0.8028647899627686,1.7553110122680664,107.86062622070312,-47.62568664550781,265.60321044921875
1700076110,0.6714324951171875,0.63848876953125,-0.9216766357421876,1.6028424501419067,0.862977921962738,1.4584028720855713,107.37297058105467,-46.41876220703125,265.22674560546875
1700076110,0.542022705078125,0.54791259765625,-0.961029052734375,1.2522319555282593,1.032009243965149,0.7052878737449646,106.14556884765624,-45.25949096679688,264.6595153808594
1700076110,0.41192626953125,0.5862579345703125,-0.775390625,1.380906581878662,1.2262394428253174,0.0117203053086996,105.159423828125,-43.96104431152344,265.0924072265625
1700076110,-0.043182373046875,0.4021759033203125,-0.4280853271484375,1.8759416341781616,1.368434190750122,-0.6349455118179321,104.28282165527344,-42.47369384765625,264.77508544921875
1700076110,-0.34356689453125,-0.119476318359375,-0.0139617919921875,1.853498101234436,1.3292540311813354,-1.256988286972046,103.45640563964844,-41.19947814941406,264.4063720703125
1700076110,-0.1160125732421875,-0.628997802734375,0.1786346435546875,1.4013731479644775,1.1406049728393557,-1.7941721677780151,102.52293395996094,-39.82942199707031,264.9476623535156
1700076110,0.3029327392578125,-0.8555145263671875,0.1177825927734375,0.7603636384010315,1.0085140466690063,-2.078168630599976,101.10147094726562,-38.49766540527344,264.4324951171875
1700076110,0.500732421875,-0.7011260986328125,-0.0520172119140625,-0.1863168776035308,0.8879594206809998,-2.2905542850494385,99.6416473388672,-37.370880126953125,265.043701171875
1700076110,0.5105743408203125,-0.3149566650390625,-0.168731689453125,-1.0468870401382446,0.7876580953598022,-2.8470163345336914,99.08473205566406,-36.05270385742188,265.5096130371094
1700076110,0.6433258056640625,-0.2751007080078125,-0.071136474609375,-1.4619345664978027,0.7683686017990112,-3.195097684860229,97.75685119628906,-34.982452392578125,265.490478515625
1700076110,0.595123291015625,-0.1967010498046875,0.11444091796875,-1.4684689044952393,0.7009791731834412,-3.434615135192871,96.82394409179688,-34.34889221191406,265.0084228515625
1700076110,0.5975341796875,-0.0589141845703125,0.1309661865234375,-1.1507720947265625,0.5493369102478027,-3.767716884613037,95.8967742919922,-33.73951721191406,264.4276733398437
1700076110,0.7309722900390625,0.095703125,0.1245269775390625,-0.6194390058517456,0.3967558741569519,-4.149749755859375,95.01571655273438,-32.984161376953125,264.8982238769531
1700076110,0.8903961181640625,0.28570556640625,0.1964263916015625,-0.0494788698852062,0.2686924338340759,-4.480407238006592,94.57872009277344,-32.81874084472656,264.3790588378906
1700076110,1.0438232421875,0.4684295654296875,0.2816925048828125,0.5108907222747803,0.2255841195583343,-4.78580904006958,93.45596313476562,-32.70524597167969,264.7461853027344
1700076110,1.1829681396484375,0.5705108642578125,0.3318634033203125,0.9767566919326782,0.1626102179288864,-5.059345722198486,93.83413696289062,-32.5107421875,264.5821533203125
1700076110,1.248565673828125,0.6355438232421875,0.3548583984375,1.2575236558914185,0.1075293868780136,-5.279507160186768,93.59718322753906,-32.76934814453125,264.395751953125
1700076110,1.221160888671875,0.6434478759765625,0.2926788330078125,1.3713425397872925,0.1034992262721061,-5.499320983886719,93.8245849609375,-32.665435791015625,264.727294921875
1700076110,1.176605224609375,0.5415191650390625,0.2399139404296875,1.4873032569885254,0.0638468861579895,-5.638138771057129,94.6314697265625,-33.77268981933594,264.3078918457031
1700076110,1.1765289306640625,0.4514923095703125,0.277740478515625,1.6447429656982422,-0.0057319216430187,-5.697336196899414,95.35171508789062,-34.90626525878906,264.3885192871094
1700076110,1.2290802001953125,0.41693115234375,0.2960357666015625,1.7234388589859009,-0.0624993294477462,-5.729969501495361,95.89517211914062,-35.99261474609375,264.3007507324219
1700076110,1.321746826171875,0.4280853271484375,0.229339599609375,1.698767900466919,-0.1319484412670135,-5.780208110809326,97.08317565917967,-37.62432861328125,264.1064453125
1700076110,1.4268951416015625,0.441650390625,0.154541015625,1.795838713645935,-0.2626324295997619,-5.820045471191406,97.81536865234376,-38.4434814453125,264.5167236328125
1700076110,1.5007171630859375,0.455780029296875,0.179229736328125,2.1498327255249023,-0.3891344368457794,-5.751028060913086,98.64312744140624,-39.933990478515625,263.84393310546875
1700076110,1.4956512451171875,0.5127410888671875,0.222442626953125,2.7234995365142822,-0.3858196139335632,-5.603428363800049,99.67575073242188,-41.32078552246094,264.2560119628906
1700076110,1.47357177734375,0.5790863037109375,0.17218017578125,3.2457971572875977,-0.2946867644786834,-5.478648662567139,100.72183227539062,-42.90916442871094,264.766845703125
1700076110,1.52105712890625,0.64874267578125,0.0654449462890625,3.5602238178253174,-0.1741968393325805,-5.467416763305664,101.31341552734376,-44.75152587890625,264.6324768066406
1700076110,1.6085205078125,0.7052459716796875,-0.0481719970703125,3.7227509021759033,-0.0723519623279571,-5.519825458526611,101.89373779296876,-46.688568115234375,265.1723022460937
1700076110,1.650848388671875,0.74951171875,-0.0838775634765625,3.803023338317871,0.0135000962764024,-5.366291046142578,102.70721435546876,-48.114166259765625,265.15582275390625
1700076110,1.56805419921875,0.8394927978515625,-0.0699310302734375,3.786940097808838,0.152873694896698,-5.273585796356201,103.6850128173828,-50.77909851074219,265.8920593261719
1700076110,1.5157318115234375,0.7817840576171875,-0.110321044921875,3.773797035217285,0.24473437666893,-5.125616550445557,104.40545654296876,-52.59097290039063,265.9700927734375
1700076110,1.4441680908203125,0.733978271484375,-0.087677001953125,3.7986249923706055,0.3069671392440796,-4.887404441833496,104.63467407226562,-54.79513549804688,266.1439819335937
1700076110,1.3982391357421875,0.7079620361328125,-0.098541259765625,3.9307861328125,0.231134682893753,-4.596905708312988,105.3267822265625,-56.892669677734375,266.5552978515625
1700076110,1.4252777099609375,0.667327880859375,-0.0419769287109375,3.963947534561157,0.0572523698210716,-4.234819412231445,105.4246063232422,-58.89344787597656,267.50848388671875
1700076110,1.4127655029296875,0.672210693359375,0.0164794921875,3.893754243850708,-0.0204341690987348,-3.9133903980255127,105.87176513671876,-60.62104797363281,268.0345458984375
1700076110,1.3570709228515625,0.663360595703125,0.02978515625,3.863116979598999,-0.2009062021970749,-3.492276668548584,105.94090270996094,-62.49067687988281,268.822021484375
1700076110,1.234954833984375,0.73699951171875,0.1971282958984375,3.7446792125701904,-0.3546465039253235,-3.043476104736328,105.63473510742188,-63.85662841796875,269.3294677734375
1700076110,1.1480865478515625,0.774871826171875,0.200347900390625,3.4708340167999268,-0.4078537821769714,-2.606129646301269,105.62667846679688,-65.56788635253906,270.06414794921875
1700076110,1.062164306640625,0.7661590576171875,0.0832061767578125,2.990673303604126,-0.3965241909027099,-2.1714026927948,105.74346923828124,-67.1650390625,270.6419677734375
1700076110,1.0021209716796875,0.7267608642578125,-0.0553131103515625,2.328028440475464,-0.3791942000389099,-1.6746399402618408,105.44474792480467,-68.52772521972656,271.1659545898437
1700076110,0.963531494140625,0.6765594482421875,-0.16680908203125,1.5877782106399536,-0.3533945381641388,-1.1188781261444092,105.66712951660156,-69.79147338867188,272.214111328125
1700076110,0.909637451171875,0.6413421630859375,-0.2409515380859375,0.8300050497055054,-0.3590377867221832,-0.5507728457450867,105.11418151855467,-70.92430114746094,271.9135131835937
1700076110,0.85614013671875,0.6311798095703125,-0.2825927734375,0.1513668894767761,-0.3544073402881622,-0.0546286255121231,105.25718688964844,-71.85435485839844,272.79229736328125
1700076110,0.8424072265625,0.6150054931640625,-0.3441314697265625,-0.4548279643058777,-0.1780355125665664,0.2827470004558563,104.93060302734376,-72.50556945800781,273.35870361328125
1700076110,0.897857666015625,0.5625762939453125,-0.5296478271484375,-0.728276789188385,-0.1167279481887817,1.0184381008148191,104.68894958496094,-73.13545227050781,273.98956298828125
1700076110,0.680908203125,0.8917083740234375,-0.64410400390625,-0.5071889162063599,-0.1001774668693542,1.2447822093963623,104.35635375976562,-73.4317626953125,274.90972900390625
1700076110,0.8458099365234375,0.785064697265625,-0.7393341064453125,-0.2079830318689346,-0.0488833859562873,0.3189170062541961,104.0472412109375,-74.26521301269531,274.4500732421875
1700076110,1.490936279296875,-0.06304931640625,-0.66571044921875,0.1471622884273529,-0.0549956075847148,-0.6955095529556274,104.15359497070312,-74.83369445800781,275.2845458984375
1700076110,1.9523162841796875,-0.686431884765625,-0.2709503173828125,-0.1448336243629455,-0.1691994071006775,-0.4386788308620453,103.89242553710938,-75.5880126953125,275.5047912597656
1700076110,1.833251953125,-0.665924072265625,-0.1837005615234375,-1.1362744569778442,0.0087261134758591,1.2963248491287231,103.9243621826172,-75.62274169921875,275.0932312011719
1700076111,1.3797454833984375,-0.523406982421875,-0.36517333984375,-1.2573790550231934,0.2670591175556183,2.409355878829956,103.8305206298828,-75.50955200195312,275.36383056640625
1700076111,1.169952392578125,-0.709747314453125,-0.084808349609375,-0.6891041398048401,0.2482497543096542,2.430436134338379,103.76188659667967,-75.55642700195312,275.596923828125
1700076111,0.689666748046875,-0.5504913330078125,-0.0791778564453125,0.065777413547039,0.1664478331804275,2.0576345920562744,103.48817443847656,-75.09518432617188,275.87646484375
1700076111,0.23504638671875,-0.15277099609375,-0.3504638671875,0.4171658158302307,0.2722421586513519,1.2420514822006226,103.31005859375,-74.76783752441406,275.5545349121094
1700076111,0.3608245849609375,0.1965484619140625,-0.5963287353515625,0.3764024078845978,0.4461207687854767,0.9694918394088744,103.32562255859376,-74.01577758789062,275.52081298828125
1700076111,0.89776611328125,0.6931915283203125,-0.442047119140625,0.0024216123856604,0.160956397652626,0.9150349497795104,103.39488220214844,-73.53080749511719,274.9511413574219
1700076111,1.364959716796875,0.8747406005859375,-0.191192626953125,-0.0840488299727439,0.2233113795518875,0.4145740270614624,103.12435913085938,-73.09458923339844,274.4962158203125
1700076111,1.5138702392578125,0.4710693359375,-0.338470458984375,0.2493536323308944,0.277349054813385,0.2235888838768005,103.35061645507812,-72.28109741210938,274.55535888671875
1700076111,1.154205322265625,0.236297607421875,-0.36834716796875,0.4748000800609588,0.1491724401712417,0.267226904630661,103.28285217285156,-71.61866760253906,272.9357604980469
1700076111,0.9428253173828124,0.0400848388671875,-0.384552001953125,0.5825867056846619,0.0530379191040992,0.360208511352539,103.40859985351562,-70.41807556152344,271.56329345703125
1700076111,0.913299560546875,-0.1694793701171875,-0.4162445068359375,0.6166908740997314,0.0414038971066474,0.4661088585853576,103.4783935546875,-70.13014221191406,271.9294738769531
1700076111,0.9031829833984376,-0.2772369384765625,-0.3928375244140625,0.5727202296257019,0.0939107835292816,0.5404203534126282,103.7427978515625,-70.46957397460938,272.5018920898437
1700076111,0.89398193359375,-0.2537689208984375,-0.3680572509765625,0.4494451880455017,0.0939776301383972,0.6389189958572388,103.77439880371094,-70.92234802246094,271.994873046875
1700076111,0.9112091064453124,-0.0806121826171875,-0.3571319580078125,0.4438008666038513,0.0775579065084457,0.6135488748550415,103.40032958984376,-71.45610046386719,271.451171875
1700076111,0.96990966796875,0.0565185546875,-0.3689422607421875,0.473559558391571,0.0352445393800735,0.456556886434555,103.58065795898438,-71.27700805664062,270.704345703125
1700076111,0.9952239990234376,0.15289306640625,-0.3735198974609375,0.436461478471756,0.015565644018352,0.2435173243284225,103.78530883789062,-70.59184265136719,270.541748046875
1700076111,1.0079345703125,0.178619384765625,-0.37237548828125,0.3975074291229248,0.02077292278409,0.106851078569889,103.63685607910156,-70.25117492675781,269.74346923828125
1700076111,0.9815826416015624,0.1232147216796875,-0.3615570068359375,0.4063765406608581,0.0177771318703889,0.0565825849771499,103.50701904296876,-69.79910278320312,269.2607421875
1700076111,0.9460906982421876,0.0165557861328125,-0.3599700927734375,0.407620757818222,-0.0004122573300264,0.0714360997080802,103.66983032226562,-69.16073608398438,269.0581359863281
1700076111,0.9346923828125,-0.0457916259765625,-0.3726959228515625,0.4090570211410522,-0.0229580458253622,0.1196973696351051,103.63034057617188,-68.17329406738281,268.33184814453125
1700076111,0.93780517578125,-0.059844970703125,-0.3885345458984375,0.4308057129383087,-0.0563831143081188,0.1559222191572189,103.2257080078125,-67.75686645507812,268.4420166015625
1700076111,0.9550323486328124,-0.0489959716796875,-0.39031982421875,0.4318632483482361,-0.0722382441163063,0.1594684869050979,103.35560607910156,-67.19979858398438,268.216552734375
1700076111,0.966064453125,-0.0174713134765625,-0.3935546875,0.447216659784317,-0.0814400017261505,0.142051413655281,102.57884216308594,-67.10536193847656,268.2381591796875
1700076111,0.964599609375,0.0151519775390625,-0.38970947265625,0.4622334241867065,-0.1017846837639808,0.1026898920536041,103.19943237304688,-66.39785766601562,268.71893310546875
1700076111,0.9598236083984376,0.0199127197265625,-0.384307861328125,0.4756506979465484,-0.1188803166151046,0.0726832598447799,103.0093231201172,-65.92497253417969,268.22735595703125
1700076111,0.9419097900390624,0.002227783203125,-0.3725738525390625,0.4786525964736938,-0.1362188309431076,0.0513603910803794,102.7510986328125,-65.23818969726562,267.6708984375
1700076111,0.9351348876953124,-0.03173828125,-0.3619232177734375,0.4694748222827911,-0.1438455879688263,0.0548794940114021,102.47218322753906,-65.22483825683594,267.4436950683594
1700076111,0.9240570068359376,-0.052001953125,-0.350250244140625,0.4636717736721039,-0.1414415538311004,0.0789467468857765,102.81259155273438,-65.0177001953125,267.35076904296875
1700076111,0.9237060546875,-0.0468292236328125,-0.3268890380859375,0.4704777598381042,-0.1235451102256774,0.0898981988430023,102.74835205078124,-65.26376342773438,266.9083251953125
1700076111,0.9297027587890624,-0.0332794189453125,-0.3169097900390625,0.5276675224304199,-0.093877762556076,0.090837761759758,102.778564453125,-64.87266540527344,267.486328125
1700076111,0.9397735595703124,-0.0126953125,-0.3009185791015625,0.564264178276062,-0.074156254529953,0.0756028816103935,102.92098999023438,-64.77699279785156,267.0821533203125
1700076111,0.954742431640625,-0.0113677978515625,-0.2841949462890625,0.542152464389801,-0.0285584069788455,0.0871897637844085,103.00555419921876,-64.71882629394531,267.29461669921875
1700076111,0.9391326904296876,-0.00115966796875,-0.304931640625,0.5278811454772949,-0.0070262178778648,0.1108953580260276,102.88014221191406,-64.30329895019531,266.92755126953125
1700076111,0.9424591064453124,-0.005828857421875,-0.3397216796875,0.5642687082290649,-0.0160133205354213,0.1290096491575241,102.83293151855467,-63.78349304199219,266.5828857421875
1700076111,0.9576568603515624,-0.0260467529296875,-0.350250244140625,0.5449711680412292,-0.0389583185315132,0.1347447633743286,102.79255676269533,-63.69746398925781,266.7561950683594
1700076111,0.938568115234375,-0.07440185546875,-0.35516357421875,0.488689512014389,-0.0161893554031848,0.1660749912261963,102.37600708007812,-62.93406677246094,266.81219482421875
1700076111,0.896270751953125,-0.1168060302734375,-0.36956787109375,0.4544900059700012,-0.0128936944529414,0.2359227836132049,102.20809936523438,-62.28610229492188,266.18768310546875
1700076111,0.879730224609375,-0.1086273193359375,-0.3780975341796875,0.4001207649707794,-0.0431227013468742,0.3136010766029358,101.89039611816406,-62.033050537109375,266.3086853027344
1700076111,0.908477783203125,-0.032012939453125,-0.397369384765625,0.3309630155563354,-0.0775059759616851,0.3221341073513031,101.96720886230467,-61.93406677246094,266.4754333496094
1700076111,0.95660400390625,0.031646728515625,-0.3867034912109375,0.2329213917255401,-0.0803209394216537,0.2914267778396606,101.553955078125,-61.68049621582031,265.9906921386719
1700076111,0.977783203125,0.0640411376953125,-0.3351287841796875,0.1734586060047149,-0.0246669966727495,0.2770984470844269,101.52555847167967,-61.41755676269531,266.5004272460937
1700076111,0.9577178955078124,0.0539703369140625,-0.2764434814453125,0.19411301612854,0.0515409559011459,0.3025891482830047,101.62757873535156,-60.76193237304688,265.4288330078125
1700076111,0.9282989501953124,-0.0209808349609375,-0.226318359375,0.2264240831136703,0.1184462159872055,0.3771573901176452,101.21795654296876,-59.85542297363281,265.6211242675781
1700076111,0.8952178955078125,-0.1041107177734375,-0.2284393310546875,0.29012131690979,0.1340387612581253,0.503667950630188,101.45248413085938,-59.14021301269531,265.4132080078125
1700076111,0.870452880859375,-0.1163482666015625,-0.2672119140625,0.3354421854019165,0.16465924680233,0.5794811844825745,100.65138244628906,-58.58151245117188,264.5409545898437
1700076111,0.8934173583984375,-0.04058837890625,-0.348175048828125,0.3545391857624054,0.1520571708679199,0.541847288608551,100.28555297851562,-57.43063354492188,264.6365051269531
1700076111,0.947784423828125,0.042755126953125,-0.3403472900390625,0.3404297530651092,0.17844058573246,0.4651439785957336,99.7821044921875,-56.64521789550781,263.83404541015625
1700076111,0.9560699462890624,0.10662841796875,-0.2984619140625,0.3679543137550354,0.2288488894701004,0.4625516533851623,99.84774780273438,-55.87321472167969,263.70867919921875
1700076111,0.9311370849609376,0.18408203125,-0.29754638671875,0.3784242570400238,0.2729452550411224,0.4284962117671966,99.0189208984375,-55.11946105957031,263.351318359375
1700076111,0.95697021484375,0.1250762939453125,-0.2947540283203125,0.3898875713348388,0.3014911413192749,0.4466659128665924,99.12872314453124,-54.6339111328125,263.3500366210937
1700076111,0.92919921875,0.0146026611328125,-0.3258819580078125,0.3440439105033874,0.2722501754760742,0.5449479818344116,98.54855346679688,-53.500244140625,263.0255126953125
1700076111,0.8985748291015625,-0.0249176025390625,-0.400787353515625,0.2365193367004394,0.2311573177576065,0.6407259106636047,98.02171325683594,-52.65327453613281,263.5378112792969
1700076111,0.9243316650390624,-0.03900146484375,-0.4369354248046875,0.1340307742357254,0.1969716548919677,0.6793636083602905,97.34765625,-51.37565612792969,262.4748229980469
1700076111,0.921539306640625,-0.01129150390625,-0.43634033203125,0.177997425198555,0.1720868051052093,0.7072516679763794,96.67996215820312,-50.59379577636719,262.1297302246094
1700076111,0.9127349853515624,0.0907440185546875,-0.4296875,0.2636612057685852,0.1673349291086197,0.6868348121643066,96.1884765625,-49.71217346191406,262.72320556640625
1700076111,0.9383087158203124,0.1509246826171875,-0.376708984375,0.3456617891788482,0.2186449915170669,0.6586140990257263,95.27058410644533,-48.56076049804688,261.9530944824219
1700076111,0.9511260986328124,0.1192474365234375,-0.3075714111328125,0.4303673505783081,0.2740323543548584,0.7075526118278503,94.77951049804688,-47.96241760253906,261.8177490234375
1700076111,0.9356536865234376,0.0404510498046875,-0.3279876708984375,0.4776592552661896,0.318110853433609,0.7820694446563721,94.22198486328124,-47.12504577636719,261.8603515625
1700076111,0.96405029296875,-0.066864013671875,-0.3732452392578125,0.595788300037384,0.3428801298141479,0.9200233221054076,93.8795166015625,-46.31269836425781,261.56304931640625
1700076111,0.985626220703125,-0.0911865234375,-0.384124755859375,0.7318822145462036,0.3704251945018768,1.0433495044708252,93.09036254882812,-45.19970703125,261.01861572265625
1700076111,0.99664306640625,-0.04241943359375,-0.3995819091796875,0.8923912048339844,0.4552804231643677,1.111739993095398,92.07936096191406,-44.63589477539063,261.49859619140625
1700076111,0.977752685546875,0.0251922607421875,-0.393798828125,1.1127963066101074,0.560970664024353,1.163051724433899,91.42405700683594,-43.68585205078125,261.3623046875
1700076111,0.9565277099609376,0.0638580322265625,-0.36376953125,1.319442629814148,0.6186757683753967,1.2376679182052612,90.305908203125,-42.72149658203125,261.60675048828125
1700076111,0.991302490234375,0.0989837646484375,-0.3195343017578125,1.4248154163360596,0.6686595678329468,1.3163528442382812,89.06874084472656,-41.21450805664063,261.6814270019531
1700076111,1.069488525390625,0.12066650390625,-0.3349609375,1.4686931371688845,0.7752366065979004,1.302170753479004,87.66067504882812,-40.04658508300781,261.2001953125
1700076111,1.15423583984375,0.0438232421875,-0.4860992431640625,1.8044413328170776,0.8242616653442383,1.3148859739303589,86.40251159667969,-38.89547729492188,261.56866455078125
1700076111,1.2248382568359375,-0.0092620849609375,-0.51605224609375,2.1187305450439453,0.6571986675262451,1.5637469291687012,85.44773864746094,-37.91200256347656,261.65008544921875
1700076111,1.3798980712890625,0.1564483642578125,-0.279083251953125,1.959914207458496,0.5954340696334839,1.690484642982483,83.96485900878906,-37.61537170410156,261.531494140625
1700076111,1.615692138671875,0.230316162109375,-0.0158538818359375,1.6383846998214722,0.8056594729423523,1.786719799041748,83.01187133789062,-36.81320190429688,261.38531494140625
1700076111,1.597869873046875,0.2628936767578125,0.0067596435546875,1.5531094074249268,0.9282722473144532,1.9296263456344604,81.92324829101562,-36.53952026367188,260.79327392578125
1700076111,1.5755767822265625,0.24139404296875,0.015594482421875,1.5704452991485596,0.9544289708137512,2.10857892036438,81.45770263671875,-35.877593994140625,261.00897216796875
1700076111,1.640533447265625,0.1693878173828125,0.0592193603515625,1.6355353593826294,1.0548263788223269,2.236203193664551,80.39625549316406,-35.96653747558594,260.0096740722656
1700076111,1.67132568359375,0.0860443115234375,0.072296142578125,1.7505290508270264,1.162367582321167,2.317267417907715,79.62577819824219,-35.84635925292969,259.6495056152344
1700076111,1.6779937744140625,0.01287841796875,0.0097808837890625,1.9491984844207764,1.2254847288131714,2.348468065261841,79.83747863769531,-35.897705078125,259.4693603515625
1700076111,1.744720458984375,-0.0511322021484375,-0.0755615234375,2.274942874908448,1.3759088516235352,2.2020559310913086,80.05476379394531,-36.0411376953125,259.2130126953125
1700076111,1.843963623046875,-0.1776275634765625,-0.2065887451171875,2.682173728942871,1.4360406398773191,1.94933557510376,80.59080505371094,-36.35765075683594,260.06884765625
1700076111,1.8474884033203125,-0.2507171630859375,-0.2642822265625,2.964334487915039,1.4956642389297483,1.6748484373092651,81.04225158691406,-36.85108947753906,259.3170166015625
1700076111,1.68212890625,-0.250152587890625,-0.4521484375,2.962500095367432,1.4705674648284912,1.4404116868972778,81.70278930664062,-37.61332702636719,259.48565673828125
1700076111,1.3082275390625,-0.153228759765625,-0.7052459716796875,2.920727729797364,1.3024266958236694,1.5325943231582642,83.06979370117188,-38.33976745605469,259.87701416015625
1700076111,0.8499298095703125,0.1489105224609375,-0.8529052734375,2.812863111495972,1.1843253374099731,1.5402618646621704,83.78530883789062,-38.79313659667969,260.031982421875
1700076111,0.642608642578125,0.2960205078125,-1.006683349609375,2.6710336208343506,1.2333378791809082,1.31816565990448,84.72660827636719,-40.03330993652344,260.216552734375
1700076111,0.6112213134765625,0.399749755859375,-1.056976318359375,2.648824691772461,1.3477482795715332,0.8273570537567139,85.55413818359375,-40.79074096679688,260.2356872558594
1700076111,0.6706085205078125,0.485687255859375,-0.8301239013671875,2.6039373874664307,1.478678584098816,0.0359540060162544,86.91659545898438,-41.83964538574219,261.1490478515625
1700076111,0.73974609375,0.456512451171875,-0.4687042236328125,2.7288694381713867,1.5794243812561035,-0.7877870202064514,88.30838012695312,-43.006256103515625,261.3031616210937
1700076111,0.6806640625,0.19757080078125,-0.2484283447265625,2.937643051147461,1.6090643405914309,-1.4058268070220947,89.57565307617188,-44.31867980957031,261.6629333496094
1700076111,0.513885498046875,-0.1301422119140625,-0.243011474609375,2.9516873359680176,1.6287325620651243,-1.805551290512085,90.64697265625,-45.26628112792969,262.150634765625
1700076111,0.3609619140625,-0.300140380859375,-0.2331695556640625,2.916323661804199,1.621899127960205,-1.9642539024353027,91.97308349609376,-46.553314208984375,262.7152404785156
1700076111,0.24566650390625,-0.39459228515625,-0.1378631591796875,2.835033655166626,1.5831445455551147,-2.0847160816192627,92.73252868652344,-47.90887451171875,263.21148681640625
1700076111,0.2438812255859375,-0.5077667236328125,-0.02301025390625,2.695688486099243,1.561520218849182,-2.2866055965423584,93.65687561035156,-49.55097961425781,263.7308349609375
1700076111,0.3321075439453125,-0.5568084716796875,0.088531494140625,2.3400628566741943,1.5348305702209473,-2.541458368301392,94.91162109375,-50.94807434082031,264.58172607421875
1700076111,0.439361572265625,-0.3736419677734375,0.1044158935546875,1.9092588424682613,1.4769116640090942,-2.757776498794556,95.787841796875,-52.649658203125,265.2688903808594
1700076111,0.51739501953125,-0.12298583984375,0.1061553955078125,1.5547363758087158,1.379123330116272,-2.9735546112060547,96.5343017578125,-53.79241943359375,266.016357421875
1700076111,0.58154296875,0.07513427734375,0.1507568359375,1.2742799520492554,1.2671232223510742,-3.255698204040528,97.66693115234376,-55.52348327636719,266.4966735839844
1700076111,0.6430206298828125,0.1948089599609375,0.1644744873046875,1.1797596216201782,1.1376627683639526,-3.624589920043945,97.9837646484375,-57.120208740234375,267.0800170898437
1700076111,0.7049407958984375,0.183990478515625,0.1925201416015625,1.2333471775054932,0.978428304195404,-3.94367265701294,98.56517028808594,-58.74592590332031,268.2890014648437
1700076111,0.7335357666015625,0.1512603759765625,0.2373809814453125,1.259310603141785,0.8164104223251343,-4.127163410186768,99.04283142089844,-60.25830078125,268.9300537109375
1700076111,0.7286376953125,0.1527252197265625,0.2352447509765625,1.3123503923416138,0.7006776928901672,-4.233115196228027,99.5381317138672,-61.94386291503906,269.30535888671875
1700076111,0.7069854736328125,0.1553192138671875,0.21942138671875,1.4113306999206543,0.6110665798187256,-4.333566665649414,99.82286071777344,-63.04573059082031,269.7943725585937
1700076111,0.718994140625,0.174102783203125,0.227294921875,1.4752860069274902,0.4432615935802459,-4.409757137298584,99.95404052734376,-64.11164855957031,270.3193054199219
1700076112,0.8142852783203125,0.229705810546875,0.314544677734375,1.4860459566116333,0.1612352281808853,-4.407084465026856,100.16807556152344,-64.95266723632812,270.5992736816406
1700076112,0.932373046875,0.3251800537109375,0.4526214599609375,1.398916721343994,-0.1014395356178283,-4.32716703414917,100.0093994140625,-65.927490234375,271.2133178710937
1700076112,1.0155181884765625,0.4283294677734375,0.441192626953125,1.2093737125396729,-0.1966840326786041,-4.14829683303833,100.61178588867188,-66.55078125,272.0209350585937
1700076112,1.02703857421875,0.556304931640625,0.2299346923828125,0.985817551612854,-0.2913263738155365,-3.920814752578736,100.55850219726562,-66.93667602539062,271.5040283203125
1700076112,1.0205841064453125,0.6947784423828125,0.1207733154296875,0.8714784383773804,-0.4909156560897827,-3.681496620178223,100.58221435546876,-67.39190673828125,271.81951904296875
1700076112,1.040069580078125,0.86376953125,0.161865234375,0.974162220954895,-0.7504713535308838,-3.56460189819336,100.5019073486328,-68.22590637207031,272.1607360839844
1700076112,1.085693359375,1.0089569091796875,0.257110595703125,1.2830257415771484,-0.8526744246482849,-3.6380248069763184,100.89883422851562,-68.17347717285156,271.9989624023437
1700076112,1.1142730712890625,1.10614013671875,0.2557220458984375,1.6751400232315063,-0.6728300452232361,-3.869872331619263,100.90225219726562,-68.074462890625,271.3969421386719
1700076112,1.0616607666015625,1.145782470703125,0.0435638427734375,1.848451375961304,-0.540657639503479,-4.025538444519043,100.76068115234376,-68.07293701171875,271.96612548828125
1700076112,0.9711151123046876,1.1485595703125,-0.1350250244140625,1.76279878616333,-0.6899688243865967,-3.96249794960022,100.89437866210938,-67.34140014648438,272.00543212890625
1700076112,0.9997406005859376,1.0675048828125,-0.0691986083984375,1.5664920806884766,-0.8793923258781433,-3.741812229156494,101.0793914794922,-66.61647033691406,271.6825256347656
1700076112,1.063751220703125,0.896148681640625,0.008392333984375,1.1855440139770508,-0.8921719789505005,-3.402982711791992,100.9141082763672,-66.08308410644531,271.3121337890625
1700076112,1.10076904296875,0.7662200927734375,-0.035797119140625,0.8060576319694519,-0.7783176302909851,-2.9279046058654785,101.61083984375,-65.28411865234375,271.0430603027344
1700076112,1.10382080078125,0.7564239501953125,-0.13739013671875,0.4930011928081512,-0.7311128377914429,-2.4028120040893555,101.291748046875,-64.79403686523438,270.1179504394531
1700076112,1.0828399658203125,0.7802886962890625,-0.2537689208984375,0.2361315786838531,-0.7635956406593323,-1.9268966913223269,101.21038818359376,-63.91622924804688,268.096435546875
1700076112,1.0304412841796875,0.786865234375,-0.367828369140625,0.0778125077486038,-0.8214842677116394,-1.5597636699676514,100.9478759765625,-62.556396484375,266.53436279296875
1700076112,0.9640045166015624,0.7748565673828125,-0.3543853759765625,0.0971619710326194,-0.8525263071060181,-1.281317949295044,100.90151977539062,-62.25105285644531,267.16278076171875
1700076112,0.8673095703125,0.7786102294921875,-0.2558746337890625,0.166728526353836,-0.7811456322669983,-1.102097511291504,101.05744934082033,-62.45327758789063,267.128662109375
1700076112,0.76055908203125,0.7689971923828125,-0.2080535888671875,0.231079027056694,-0.6126359701156616,-0.8831007480621338,100.88864135742188,-63.31719970703125,266.53619384765625
1700076112,0.6247100830078125,0.732086181640625,-0.1816864013671875,0.4063954353332519,-0.4434922039508819,-0.6194491386413574,101.15306091308594,-63.63673400878906,266.44024658203125
1700076112,0.5495758056640625,0.61480712890625,-0.1223297119140625,0.6391791701316833,-0.3511580228805542,-0.3898425698280334,101.06637573242188,-63.24064636230469,266.3246459960937
1700076112,0.6570281982421875,0.43048095703125,-0.0353851318359375,0.8204584121704102,-0.3535511493682861,-0.1941532343626022,100.93594360351562,-62.90489196777344,266.0272216796875
1700076112,0.840972900390625,0.259307861328125,0.052459716796875,0.8709391355514526,-0.3316905796527862,0.0041726408526301,100.99166870117188,-62.13938903808594,265.9369506835937
1700076112,0.9200439453125,0.13653564453125,0.0464019775390625,0.5418227910995483,-0.2164257764816284,0.3065130710601806,101.056396484375,-61.11131286621094,264.9765625
1700076112,0.8722381591796875,0.131195068359375,-0.107177734375,0.0099517004564404,-0.1031157299876213,0.6125240921974182,100.50062561035156,-60.03337097167969,263.9449462890625
1700076112,0.7602996826171875,0.1150054931640625,-0.2608642578125,-0.568606436252594,0.0726734027266502,0.929638683795929,99.77815246582033,-59.17054748535156,263.27001953125
1700076112,0.6499176025390625,0.0783843994140625,-0.41778564453125,-1.2118650674819946,0.2359494119882583,1.1751205921173096,99.8587646484375,-58.82176208496094,262.5321655273437
1700076112,0.5738983154296875,0.00897216796875,-0.5173492431640625,-1.8229345083236688,0.2777967154979706,1.341850757598877,99.93185424804688,-58.37638854980469,262.08599853515625
1700076112,0.551025390625,-0.0677337646484375,-0.4778594970703125,-2.213146209716797,0.3750889301300049,1.579167127609253,99.9334716796875,-58.034271240234375,261.9442749023437
1700076112,0.5938873291015625,-0.0087432861328125,-0.4561767578125,-2.430281162261963,0.4224162399768829,1.7331069707870483,99.55842590332033,-57.62547302246094,261.49395751953125
1700076112,0.5546875,0.210174560546875,-0.4759674072265625,-2.2307446002960205,0.4928312599658966,1.9905033111572263,99.13563537597656,-56.92680358886719,261.53521728515625
1700076112,0.7173004150390625,0.539276123046875,-0.4740142822265625,0.0242568701505661,3.271903276443481,2.1509392261505127,98.78190612792967,-56.69107055664063,261.7286376953125
1700076112,0.187957763671875,0.9766845703125,-2.568099975585937,2.1723082065582275,2.1219418048858643,3.707320928573608,98.64891052246094,-56.408477783203125,261.69146728515625
1700076112,0.1661224365234375,2.9649810791015625,-2.2540283203125,-0.5896350741386414,-2.7632343769073486,3.41147780418396,98.70411682128906,-56.27894592285156,261.8621826171875
1700076112,4.090118408203125,1.4310150146484375,0.915557861328125,0.5415319800376892,1.267645239830017,0.03639742359519,98.61766052246094,-55.889984130859375,261.8123474121094
1700076112,3.4111328125,-2.181137084960937,0.332183837890625,2.3885271549224854,2.781898736953736,-1.2033817768096924,98.54109191894533,-55.97749328613281,261.7327880859375
1700076112,1.390960693359375,-1.4983978271484375,1.09588623046875,1.2412950992584229,2.321874618530273,-1.0652660131454468,98.768798828125,-55.675567626953125,261.67596435546875
1700076112,0.8857421875,-0.3549346923828125,-0.2313385009765625,-0.6878377795219421,1.2029272317886353,-0.076240174472332,98.6792449951172,-55.931488037109375,261.74688720703125
1700076112,0.5605621337890625,-0.251617431640625,-0.6501312255859375,-0.9669820666313172,0.5509387850761414,0.7463860511779785,98.64846801757812,-55.60919189453125,261.5057983398437
1700076112,0.8585357666015625,-0.6803436279296875,-0.439849853515625,-0.2717865109443664,0.5558453798294067,0.6712148785591125,98.5128173828125,-55.55435180664063,260.9554443359375
1700076112,1.5131683349609375,-1.2373809814453125,-0.1173553466796875,0.2557393610477447,0.6953891515731812,0.8155627250671387,98.56729125976562,-55.300323486328125,260.8964233398437
1700076112,1.8270416259765625,-1.0419464111328125,-0.1215362548828125,-0.2317482829093933,0.6844164133071899,1.7452317476272583,98.10870361328124,-55.13179016113281,261.36102294921875
1700076112,1.5576171875,-0.284820556640625,-0.1977081298828125,-0.9398980140686036,0.4917633533477783,2.290980100631714,98.20054626464844,-55.05194091796875,261.93084716796875
1700076112,1.1536102294921875,0.0352935791015625,-0.1440887451171875,-1.306822419166565,0.1196238696575164,2.168209314346313,98.1064910888672,-54.75877380371094,261.6782531738281
1700076112,0.77392578125,0.10906982421875,-0.144561767578125,-1.7040095329284668,0.078001856803894,1.367557406425476,98.0500946044922,-54.524749755859375,261.75640869140625
1700076112,0.949493408203125,0.0855865478515625,-0.350067138671875,-1.649032473564148,0.2688738107681274,1.120006799697876,97.91549682617188,-54.21868896484375,260.8885803222656
1700076112,1.8660430908203125,0.2981414794921875,0.0219573974609375,-0.9818877577781676,0.5592063069343567,1.2671674489974976,98.04550170898438,-54.2332763671875,261.8036499023437
1700076112,2.5975799560546875,0.4211578369140625,0.20318603515625,-0.2587535381317138,0.6381821036338806,1.6431562900543213,97.712890625,-54.06056213378906,261.3338623046875
1700076112,2.3205108642578125,0.7514801025390625,-0.118011474609375,0.1303763836622238,0.0178325269371271,1.489503026008606,97.85794067382812,-53.57301330566406,261.26171875
1700076112,1.3818511962890625,0.7262420654296875,-0.448211669921875,-0.0857298150658607,-0.5487624406814575,0.8776886463165283,97.4915771484375,-53.30918884277344,261.43115234375
1700076112,0.8272857666015625,0.5795440673828125,-0.5885162353515625,-0.2486902475357055,-0.2719806432723999,0.4009152054786682,97.34681701660156,-52.69358825683594,261.27764892578125
1700076112,0.4876251220703125,0.503692626953125,-0.2493743896484375,0.3996480703353882,0.2593905627727508,0.3106087446212768,97.1613311767578,-51.87959289550781,260.17633056640625
1700076112,0.33428955078125,0.179443359375,-0.064544677734375,0.6583709716796875,0.3368270099163055,0.3396880626678467,96.5357666015625,-51.536712646484375,260.4017944335937
1700076112,0.638916015625,0.0446624755859375,-0.3309326171875,0.5231497883796692,0.1094031929969787,0.4452216625213623,96.38681030273438,-50.90956115722656,259.92889404296875
1700076112,0.9936676025390624,0.021759033203125,-0.437957763671875,0.3283645510673523,0.0352493338286876,0.5044476985931396,95.9868621826172,-50.23345947265625,259.94207763671875
1700076112,1.1221923828125,-0.101409912109375,-0.4030609130859375,0.2521057426929474,0.0961427763104438,0.6582684516906738,96.01911926269533,-49.86663818359375,260.01318359375
1700076112,1.026702880859375,-0.0737457275390625,-0.346832275390625,0.2173224687576294,0.0989518836140632,0.8184868693351746,95.57737731933594,-49.045440673828125,259.6361083984375
1700076112,0.965789794921875,0.0481109619140625,-0.29534912109375,0.1079858541488647,0.1316134184598922,0.8934479355812073,94.57481384277344,-48.46321105957031,259.8861389160156
1700076112,0.978729248046875,0.139190673828125,-0.2809600830078125,0.0719271898269653,0.2258789390325546,0.9133241772651672,94.35888671875,-47.67149353027344,259.2601318359375
1700076112,0.9296112060546876,0.14190673828125,-0.231964111328125,0.1136639788746833,0.3031199276447296,1.0016939640045166,93.63758850097656,-46.93284606933594,259.39068603515625
1700076112,0.8329315185546875,0.11956787109375,-0.2550201416015625,0.1725818961858749,0.3162905871868133,1.134352684020996,93.22262573242188,-46.04667663574219,259.3560791015625
1700076112,0.784820556640625,0.0980987548828125,-0.313568115234375,0.262926697731018,0.3052968084812164,1.281700611114502,92.59559631347656,-45.700531005859375,258.550048828125
1700076112,0.739288330078125,0.1250152587890625,-0.3254547119140625,0.32692351937294,0.357518196105957,1.380768060684204,91.9078369140625,-44.49177551269531,259.0367431640625
1700076112,0.7277069091796875,0.143585205078125,-0.2714080810546875,0.3900793194770813,0.4818595945835113,1.401858925819397,91.2298583984375,-44.10299682617188,258.5531005859375
1700076112,0.7488555908203125,0.149749755859375,-0.2276611328125,0.5149474740028381,0.6342624425888062,1.4351378679275513,90.4140625,-43.430938720703125,258.2202453613281
1700076112,0.869781494140625,0.1324005126953125,-0.2383880615234375,0.6139848828315735,0.7550240159034729,1.5017187595367432,89.87129211425781,-42.75767517089844,258.3555908203125
1700076112,1.0588836669921875,0.129425048828125,-0.2726898193359375,0.6765182614326477,0.7897236347198486,1.6670844554901123,89.45552062988281,-42.02418518066406,258.48980712890625
1700076112,1.1399383544921875,0.14288330078125,-0.32421875,0.751213550567627,0.777658998966217,1.8847532272338867,88.53306579589844,-41.32806396484375,258.20965576171875
1700076112,1.0966796875,0.1241455078125,-0.3452301025390625,0.8264968395233154,0.784979522228241,2.1113500595092773,88.03939819335938,-40.82049560546875,258.0766906738281
1700076112,0.953125,0.11358642578125,-0.3728790283203125,0.8651015162467957,0.7885079383850098,2.280261993408203,87.21400451660156,-39.92549133300781,257.6541748046875
1700076112,0.78228759765625,0.18890380859375,-0.3970184326171875,0.8895967602729797,0.8729290962219238,2.2921032905578613,86.30947875976562,-39.16900634765625,257.689697265625
1700076112,0.7766265869140625,0.3562774658203125,-0.3701019287109375,0.9407904148101808,0.9888982772827148,2.238811731338501,85.46224975585938,-38.7254638671875,257.8053894042969
1700076112,0.9540252685546876,0.4759674072265625,-0.266937255859375,0.9965285062789916,1.0408523082733154,2.2530410289764404,84.47120666503906,-37.88163757324219,257.3804931640625
1700076112,1.2356414794921875,0.4519195556640625,-0.210174560546875,0.9544710516929626,1.0265308618545532,2.331092357635498,83.51673889160156,-37.01876831054688,257.5494384765625
1700076112,1.2910308837890625,0.296905517578125,-0.30950927734375,0.8051910400390625,1.027013659477234,2.526739835739136,82.45219421386719,-36.4781494140625,257.6026611328125
1700076112,0.974945068359375,0.2406463623046875,-0.4607391357421875,0.8331867456436157,1.0582195520401,2.6891562938690186,81.85885620117188,-36.27339172363281,258.23468017578125
1700076112,0.67059326171875,0.278167724609375,-0.4797210693359375,0.9662771224975586,1.105534911155701,2.6399834156036377,81.11332702636719,-35.55622863769531,258.5260009765625
1700076112,0.6452178955078125,0.5225677490234375,-0.4321136474609375,1.1174874305725098,1.1758769750595093,2.4458799362182617,80.06771850585938,-34.67645263671875,258.6205444335937
1700076112,0.833282470703125,0.6923370361328125,-0.342926025390625,1.3158553838729858,1.2105414867401123,2.346311330795288,79.05354309082031,-34.20533752441406,258.7415466308594
1700076112,1.0222320556640625,0.7231292724609375,-0.3163909912109375,1.3753660917282104,1.168521285057068,2.376563549041748,78.40147399902344,-34.049591064453125,258.2132873535156
1700076112,1.200958251953125,0.6633453369140625,-0.4008331298828125,1.237917184829712,1.0524921417236328,2.4869351387023926,77.53157043457031,-33.385833740234375,258.69012451171875
1700076112,1.3416900634765625,0.5693206787109375,-0.460479736328125,1.1269108057022097,0.8844522833824158,2.6476821899414062,76.52511596679688,-33.17315673828125,257.8396911621094
1700076112,1.474609375,0.5709228515625,-0.509613037109375,1.142571210861206,0.7912922501564026,2.7534048557281494,75.89997863769531,-33.15997314453125,257.42437744140625
1700076112,1.687164306640625,0.5761566162109375,-0.4799346923828125,1.092152714729309,0.688748836517334,2.8260817527771,75.4996337890625,-33.79051208496094,256.90264892578125
1700076112,1.8813629150390625,0.5086212158203125,-0.4686431884765625,1.0182255506515503,0.4873904287815094,2.9134457111358643,75.2384033203125,-33.57682800292969,256.22186279296875
1700076112,2.001739501953125,0.398284912109375,-0.4880828857421875,0.8931264877319336,0.2055728584527969,2.9758334159851074,75.12763977050781,-33.39677429199219,255.72398376464844
1700076112,2.029296875,0.2896575927734375,-0.4566802978515625,0.5983166694641113,-0.100287452340126,2.917420625686645,75.9666748046875,-33.79278564453125,256.0419921875
1700076112,1.9898223876953125,0.1840057373046875,-0.3990478515625,0.1695046126842498,-0.3385713994503021,2.610987663269043,76.72196960449219,-34.257659912109375,255.84950256347656
1700076112,1.751007080078125,0.051300048828125,-0.4137725830078125,-0.0938351452350616,-0.3575315177440643,2.2247533798217773,78.21247863769531,-34.698211669921875,255.89942932128903
1700076112,1.206207275390625,0.027801513671875,-0.6051177978515625,-0.3536648750305176,-0.2145935297012329,1.7236521244049072,79.45587158203125,-35.057525634765625,256.2431640625
1700076112,0.6448516845703125,-0.0391998291015625,-0.7995452880859375,-0.8040943741798401,-0.13689686357975,1.1675952672958374,80.69442749023438,-35.73976135253906,256.12811279296875
1700076112,0.215576171875,-0.1104888916015625,-0.82281494140625,-1.420963168144226,-0.2569857239723205,0.8987159132957458,82.3790283203125,-36.65069580078125,255.9460601806641
1700076112,-0.36041259765625,0.0125732421875,-0.714141845703125,-1.0723426342010498,-0.3425695896148681,0.3533175885677337,83.84519958496094,-37.57899475097656,256.3187866210937
1700076112,-0.8043670654296875,-0.1923980712890625,-0.1379547119140625,-0.0557639300823211,-0.4325628578662872,-0.5857175588607788,85.20195007324219,-38.66844177246094,255.69073486328125
1700076112,-1.0930328369140625,-0.4552764892578125,0.3840789794921875,0.2884440422058105,-0.5337342023849487,-1.5506750345230105,86.96914672851562,-39.92431640625,255.3109130859375
1700076112,-0.677001953125,-0.34503173828125,0.256805419921875,0.0259130895137786,-0.7393771409988403,-2.306936740875244,88.31929016113281,-41.57124328613281,255.1432037353516
1700076112,-0.0467987060546875,-0.330657958984375,-0.1018218994140625,-0.1345570087432861,-0.9091869592666626,-2.961456775665283,90.02557373046875,-42.70954895019531,254.8311462402344
1700076112,0.1886444091796875,-0.6258392333984375,-0.0603790283203125,-0.0287789180874824,-0.9173734784126282,-3.4020516872406006,91.1997528076172,-44.06344604492188,254.3453063964844
1700076112,0.178802490234375,-0.730743408203125,0.0392913818359375,0.0081348922103643,-0.984255075454712,-3.574514389038086,92.57365417480467,-45.73381042480469,253.7576904296875
1700076112,0.158416748046875,-0.512939453125,-0.0717010498046875,-0.023665115237236,-1.0500894784927368,-3.7628910541534415,93.81466674804688,-47.340911865234375,254.19940185546875
1700076113,0.236846923828125,-0.256439208984375,-0.2218170166015625,-0.0557165257632732,-1.0299495458602903,-4.112174034118652,94.7132568359375,-48.639434814453125,254.90237426757807
1700076113,0.337554931640625,-0.1381683349609375,-0.262298583984375,-0.0629651173949241,-0.9852524399757384,-4.499261379241943,96.12664794921876,-50.28482055664063,255.9607391357422
1700076113,0.457000732421875,-0.073883056640625,-0.215179443359375,0.0749629214406013,-0.9572639465332032,-4.8404459953308105,97.4290008544922,-52.00245666503906,256.44659423828125
1700076113,0.601593017578125,-0.06976318359375,-0.1449432373046875,0.3001907169818878,-0.888379693031311,-5.082423686981201,98.3440399169922,-54.17742919921875,256.8201904296875
1700076113,0.7225799560546875,-0.0283660888671875,-0.1352996826171875,0.4001047909259796,-0.8295842409133911,-5.088744640350342,99.40675354003906,-56.03276062011719,256.93603515625
1700076113,0.8118896484375,0.141845703125,-0.195098876953125,0.3519726991653442,-0.9309551119804382,-4.869992256164551,99.89483642578124,-57.90177917480469,257.3114013671875
1700076113,0.94573974609375,0.356170654296875,-0.189208984375,0.0256329253315925,-1.1757192611694336,-4.605901718139648,100.66258239746094,-60.06764221191406,256.74285888671875
1700076113,1.1768951416015625,0.5354461669921875,-0.16607666015625,-0.426039457321167,-1.352990984916687,-4.451963424682617,100.98257446289062,-61.598968505859375,256.02935791015625
1700076113,1.3768463134765625,0.6707000732421875,-0.204345703125,-0.4678569436073303,-1.4487404823303225,-4.455604076385498,101.12576293945312,-62.91285705566406,256.31951904296875
1700076113,1.4165802001953125,0.7962646484375,-0.1920928955078125,-0.066748671233654,-1.5817400217056274,-4.4302897453308105,101.42414855957033,-64.78813171386719,255.7006225585937
1700076113,1.4003143310546875,1.0249786376953125,-0.1081085205078125,0.2276787012815475,-1.6109788417816162,-4.40796422958374,101.5564422607422,-65.72846984863281,255.9508514404297
1700076113,1.437225341796875,1.29815673828125,-0.1044769287109375,0.1676358729600906,-1.5352582931518557,-4.459004878997803,101.78326416015624,-66.72035217285156,255.5358428955078
1700076113,1.5278167724609375,1.488800048828125,-0.1427459716796875,-0.0501249507069587,-1.414854884147644,-4.61052131652832,101.40541076660156,-67.70167541503906,255.7537536621093
1700076113,1.6226959228515625,1.38067626953125,-0.2356109619140625,-0.2815834879875183,-1.238306999206543,-4.698346614837647,101.41256713867188,-68.5390625,255.830078125
1700076113,1.598846435546875,1.0752410888671875,-0.3394775390625,-0.5597946047782898,-1.1372469663619995,-4.464747905731201,101.63931274414062,-68.73736572265625,256.0814208984375
1700076113,1.45947265625,0.931549072265625,-0.4571990966796875,-0.7330641150474548,-1.1434612274169922,-3.844740152359009,101.44041442871094,-68.83894348144531,256.1080322265625
1700076113,1.32000732421875,0.9245758056640624,-0.5596923828125,-0.7061978578567505,-1.2854708433151243,-3.111881971359253,101.51968383789062,-69.15696716308594,256.1270751953125
1700076113,1.216644287109375,0.939666748046875,-0.5963134765625,-0.6464333534240723,-1.4733270406723022,-2.4883158206939697,100.99697875976562,-69.42887878417969,255.3515472412109
1700076113,1.1500244140625,0.9762115478515624,-0.5854034423828125,-0.639352560043335,-1.5435359477996826,-2.0416464805603027,100.66273498535156,-68.90322875976562,255.3793334960937
1700076113,1.133758544921875,1.0180816650390625,-0.5121002197265625,-0.6251080632209778,-1.357327222824097,-1.863205552101136,100.35578918457033,-68.94366455078125,255.3227386474609
1700076113,1.0962371826171875,1.0115814208984375,-0.3871002197265625,-0.3082968592643738,-0.9498552680015564,-1.730372428894043,100.1416015625,-68.5206298828125,254.4234161376953
1700076113,0.95904541015625,0.97869873046875,-0.319183349609375,0.1502563506364822,-0.6075171232223511,-1.4967180490493774,99.60279846191406,-68.49530029296875,253.843505859375
1700076113,0.7698974609375,0.9273529052734376,-0.3793182373046875,0.4454368650913238,-0.3932777941226959,-1.226029396057129,99.00775146484376,-68.21176147460938,254.0472869873047
1700076113,0.650421142578125,0.8517303466796875,-0.4833526611328125,0.6143798232078552,-0.2220618277788162,-0.986485481262207,98.51071166992188,-67.68463134765625,253.6148681640625
1700076113,0.6344757080078125,0.7042236328125,-0.4832763671875,0.7498486638069153,-0.0451104864478111,-0.7484787702560425,97.87832641601562,-67.52005004882812,253.10079956054688
1700076113,0.6624755859375,0.5371551513671875,-0.3828277587890625,0.7901244759559631,0.1469958424568176,-0.5009467005729675,97.0033721923828,-65.798828125,251.8676147460937
1700076113,0.6793212890625,0.392242431640625,-0.30474853515625,0.712054431438446,0.300774484872818,-0.2283514142036438,96.96214294433594,-64.99819946289062,252.3195343017578
1700076113,0.679901123046875,0.2688140869140625,-0.2555694580078125,0.55089271068573,0.3744774758815765,0.1202318668365478,96.85755920410156,-65.33242797851562,252.7342987060547
1700076113,0.6758575439453125,0.199005126953125,-0.2170867919921875,0.2878842353820801,0.3952642381191253,0.5677704811096191,96.42414855957033,-65.62899780273438,252.4901123046875
1700076113,0.666778564453125,0.1860809326171875,-0.2376556396484375,-0.0880600810050964,0.4063392579555511,0.9898927211761476,96.1680908203125,-64.72859191894531,252.04542541503903
1700076113,0.643157958984375,0.199554443359375,-0.3498077392578125,-0.4896232187747955,0.7623285055160522,1.2110373973846436,95.49093627929688,-64.25518798828125,250.9644317626953
1700076113,0.5619964599609375,0.2503509521484375,-0.6633758544921875,-0.7586935758590698,0.7706564664840698,1.3205665349960327,94.9700164794922,-64.43905639648438,250.396224975586
1700076113,0.489227294921875,0.3228607177734375,-0.5225830078125,-0.8363249897956848,0.7831845283508301,1.501229166984558,94.4626922607422,-63.65835571289063,249.86737060546875
1700076113,0.858856201171875,0.3979644775390625,-0.42254638671875,-0.1765017956495285,4.483269214630127,1.9937702417373653,93.92575073242188,-64.03469848632812,249.46441650390625
1700076113,0.0395355224609375,0.9510650634765624,-3.2238006591796875,-0.0388784222304821,2.3158912658691406,2.9427781105041504,94.03329467773438,-63.57954406738281,249.5009307861328
1700076113,0.7557525634765625,1.9961700439453125,-1.2897491455078125,-1.20737624168396,-1.640573501586914,2.063350915908813,93.8699188232422,-63.7799072265625,249.51434326171875
1700076113,4.5069732666015625,0.0811920166015625,1.3337249755859375,0.3396073579788208,0.4327000379562378,-0.4559422433376312,93.85714721679688,-63.78587341308594,249.2902069091797
1700076113,3.2371368408203125,-1.643890380859375,-0.4287261962890625,1.7285728454589844,1.4356193542480469,-0.8532078266143799,93.71694946289062,-63.50498962402344,249.445053100586
1700076113,1.4561767578125,-1.0680084228515625,0.91192626953125,1.5170260667800903,1.5914323329925537,0.1357061713933944,93.50582885742188,-63.376251220703125,248.97427368164065
1700076113,0.5642242431640625,-0.51806640625,0.563446044921875,0.422826886177063,1.0985653400421145,1.0730386972427368,92.9986572265625,-63.00654602050781,248.8575134277344
1700076113,0.2457275390625,-0.41845703125,0.023223876953125,-0.3070915043354034,0.9423390626907348,1.3312947750091553,92.54745483398438,-62.483917236328125,248.2669982910156
1700076113,0.6143035888671875,-0.6117095947265625,-0.1301727294921875,-0.9576234817504884,1.053366780281067,1.4852765798568726,92.6332550048828,-61.71600341796875,248.0610809326172
1700076113,1.1939544677734375,-0.519378662109375,-0.1124725341796875,-1.6997345685958862,1.0545185804367063,1.947251439094544,91.94129943847656,-61.27316284179688,247.7665100097656
1700076113,1.6307373046875,-0.081024169921875,-0.16131591796875,-2.059007167816162,0.9461827874183656,2.1544575691223145,91.98829650878906,-60.78553771972656,247.9293212890625
1700076113,1.7119598388671875,0.1364898681640625,-0.3260498046875,-1.8744521141052248,0.554922878742218,1.764132738113403,91.9416961669922,-60.471771240234375,248.0430145263672
1700076113,1.4903106689453125,0.144927978515625,-0.3621673583984375,-1.3640908002853394,0.0686238035559654,1.1427546739578247,91.42076110839844,-59.96603393554688,247.4935760498047
1700076113,1.382354736328125,0.201080322265625,-0.2927093505859375,-0.8900302648544312,0.0622900053858757,0.9811689853668212,91.08706665039062,-59.45455932617188,247.77877807617188
1700076113,1.927032470703125,0.265167236328125,-0.0661163330078125,-0.2478175312280655,0.2607530355453491,1.1237775087356567,90.93565368652344,-59.11154174804688,247.8061065673828
1700076113,2.433334350585937,0.2478179931640625,0.1639862060546875,0.0496168211102485,0.5072110295295715,1.5031310319900513,90.6964874267578,-58.91123962402344,247.2725982666016
1700076113,2.017669677734375,0.38592529296875,-0.0535430908203125,0.024228373542428,0.3207125067710876,1.6688965559005735,90.68125915527344,-58.19407653808594,246.9754638671875
1700076113,1.195770263671875,0.4772186279296875,-0.25579833984375,0.0667103230953216,0.0248677991330623,1.4002668857574463,90.3053741455078,-57.99189758300781,246.8043212890625
1700076113,0.7321929931640625,0.4700775146484375,-0.3901214599609375,0.0296098235994577,0.0075873457826673,0.891834557056427,90.27180480957033,-57.36943054199219,247.05340576171875
1700076113,0.474517822265625,0.5467987060546875,-0.353515625,0.1479915976524353,0.3257485330104828,0.6060914993286133,89.75047302246094,-57.07853698730469,246.59336853027344
1700076113,0.3884124755859375,0.582000732421875,-0.141387939453125,0.4553571343421936,0.547608494758606,0.3823367059230804,89.52671813964844,-56.96458435058594,246.2689819335937
1700076113,0.633514404296875,0.2421112060546875,-0.1284637451171875,0.526749849319458,0.5199102759361267,0.3300732374191284,89.03846740722656,-57.04890441894531,246.6217803955078
1700076113,0.9288330078125,-0.007537841796875,-0.3365631103515625,0.4412109553813934,0.433810830116272,0.4247025549411773,88.92335510253906,-56.07440185546875,246.4950408935547
1700076113,1.1241912841796875,-0.118743896484375,-0.456634521484375,0.4089321196079254,0.3922668397426605,0.6388484239578247,88.64944458007812,-55.985626220703125,246.2426147460937
1700076113,1.106201171875,-0.1487579345703125,-0.46502685546875,0.4500150978565216,0.34549081325531,0.914828598499298,88.42819213867188,-54.93528747558594,246.1601409912109
1700076113,0.9879913330078124,-0.1202545166015625,-0.394439697265625,0.3714369237422943,0.350387305021286,1.165522575378418,87.97183227539062,-54.61686706542969,245.6846618652344
1700076113,0.9089813232421876,-0.0322723388671875,-0.3447113037109375,0.3143036067485809,0.396407276391983,1.2967681884765625,87.71990966796875,-54.20361328125,245.76129150390625
1700076113,0.8748931884765625,0.0633697509765625,-0.322479248046875,0.3772468864917755,0.4377427101135254,1.372416377067566,87.0985107421875,-53.47998046875,245.5186462402344
1700076113,0.82122802734375,0.16241455078125,-0.3152618408203125,0.5102694034576416,0.4465015828609466,1.4139611721038818,86.34681701660156,-53.21018981933594,245.4383850097656
1700076113,0.80474853515625,0.258026123046875,-0.2662200927734375,0.5975262522697449,0.5351449251174927,1.3972493410110474,86.21920776367188,-52.650909423828125,245.2587738037109
1700076113,0.822601318359375,0.29534912109375,-0.2388458251953125,0.6693738102912903,0.6552430987358093,1.368008017539978,85.52375793457031,-51.64938354492188,245.5155487060547
1700076113,0.854339599609375,0.269866943359375,-0.2101898193359375,0.7577865123748779,0.7664042115211487,1.4272950887680054,85.20330810546875,-51.07481384277344,245.05078125
1700076113,0.94757080078125,0.21392822265625,-0.2097930908203125,0.8184839487075806,0.8150439262390137,1.5523182153701782,84.17402648925781,-50.74629211425781,244.99444580078125
1700076113,1.013519287109375,0.1359100341796875,-0.300079345703125,0.7504020929336548,0.7977666854858398,1.68979012966156,83.63931274414062,-50.0394287109375,244.7709350585937
1700076113,0.968841552734375,0.10015869140625,-0.4399566650390625,0.7248693108558655,0.7666031718254089,1.868227243423462,83.1453857421875,-49.59243774414063,244.5758819580078
1700076113,0.828826904296875,0.1270751953125,-0.520050048828125,0.8166226744651794,0.7936467528343201,2.0387423038482666,82.27748107910156,-48.69618225097656,244.29934692382807
1700076113,0.7640838623046875,0.2215118408203125,-0.505706787109375,0.9632807970046996,0.8166530132293701,2.0687296390533447,81.92446899414062,-48.177642822265625,244.2608337402344
1700076113,0.9171600341796876,0.3618011474609375,-0.3298492431640625,1.014084815979004,0.8968749046325684,2.0717432498931885,81.4398193359375,-47.7119140625,244.5804138183593
1700076113,1.1235809326171875,0.4365081787109375,-0.2312469482421875,1.0220474004745483,0.9221397638320924,2.134012460708618,80.738525390625,-46.910400390625,244.0299835205078
1700076113,1.190582275390625,0.372772216796875,-0.2675323486328125,0.9668222665786744,0.9006725549697876,2.259255886077881,80.06971740722656,-46.28143310546875,244.130111694336
1700076113,1.0964202880859375,0.29986572265625,-0.4005584716796875,0.8580142855644226,0.9289052486419678,2.388784170150757,79.29731750488281,-45.68841552734375,244.0050048828125
1700076113,0.958038330078125,0.2431793212890625,-0.474151611328125,0.9209069609642028,1.0033611059188845,2.514216661453247,78.36146545410156,-44.960296630859375,243.984115600586
1700076113,0.7700042724609375,0.264373779296875,-0.470062255859375,1.069829344749451,1.074442982673645,2.482457160949707,78.09803771972656,-44.8858642578125,244.6124420166016
1700076113,0.8212127685546875,0.479827880859375,-0.43377685546875,1.255265474319458,1.118592381477356,2.4029157161712646,77.2518310546875,-43.75048828125,244.5573272705078
1700076113,1.125152587890625,0.6786651611328125,-0.333099365234375,1.320331573486328,1.120100736618042,2.40306043624878,76.74372863769531,-43.01388549804688,244.8830108642578
1700076113,1.4651947021484375,0.6339111328125,-0.249664306640625,1.2617372274398804,1.095342993736267,2.538203001022339,76.70733642578125,-42.296783447265625,245.7162628173828
1700076113,1.472900390625,0.4052886962890625,-0.305633544921875,1.1362310647964478,1.0941293239593506,2.778726577758789,76.41619873046875,-41.314544677734375,246.39450073242188
1700076113,1.4332733154296875,0.306976318359375,-0.42901611328125,1.0884565114974976,1.0083966255187988,2.9384355545043945,76.22538757324219,-41.000335693359375,247.263916015625
1700076113,1.6100616455078125,0.38311767578125,-0.5179595947265625,1.1709117889404297,0.8379007577896118,2.959969043731689,75.82954406738281,-40.233306884765625,247.2151641845703
1700076113,1.798309326171875,0.424285888671875,-0.5000762939453125,1.2340785264968872,0.665282666683197,2.776198625564575,75.88139343261719,-39.522491455078125,248.08053588867188
1700076113,2.0518798828125,0.25518798828125,-0.3902435302734375,1.1361961364746094,0.4719670116901397,2.5798397064208984,75.45654296875,-39.51966857910156,248.063217163086
1700076113,2.211334228515625,0.0643463134765625,-0.4037628173828125,0.7661435008049011,0.2332995682954788,2.585970163345337,75.83819580078125,-39.23365783691406,248.5873260498047
1700076113,1.9175262451171875,0.0595855712890625,-0.5871734619140625,0.2931604981422424,0.1253794878721237,2.7331552505493164,76.0242919921875,-39.39761352539063,248.9698486328125
1700076113,1.2440643310546875,0.1495819091796875,-0.765594482421875,-0.0626876130700111,0.0935453996062278,2.564520835876465,76.28323364257812,-39.04151916503906,249.3576202392578
1700076113,0.8197174072265625,-0.001495361328125,-0.6487884521484375,-0.2532826066017151,0.161123901605606,1.945056676864624,77.10719299316406,-39.09992980957031,249.5319366455078
1700076113,0.6471710205078125,-0.2555999755859375,-0.5153656005859375,-0.6633929014205933,0.0861995965242385,1.4222135543823242,77.68536376953125,-39.63365173339844,250.194564819336
1700076113,0.18194580078125,-0.2737274169921875,-0.5542449951171875,-0.90879625082016,-0.0772982463240623,0.8396166563034058,78.15525817871094,-40.32084655761719,249.55555725097656
1700076113,-0.3666839599609375,-0.3910369873046875,-0.332489013671875,-0.168318435549736,-0.0675257816910743,-0.0561271831393241,78.99851989746094,-41.21783447265625,249.753662109375
1700076113,-0.9384918212890624,-0.6917572021484375,0.3894195556640625,0.4152507185935974,-0.2650646865367889,-1.1408499479293823,80.11717224121094,-42.01634216308594,249.46554565429688
1700076113,-1.0725555419921875,-0.6757659912109375,0.7098236083984375,-0.0286172628402709,-0.6256787776947021,-2.0026700496673584,81.20573425292969,-43.09889221191406,248.2508239746093
1700076113,-0.250274658203125,-0.4253082275390625,0.091094970703125,-0.1269579529762268,-0.985815405845642,-2.926032543182373,82.41456604003906,-44.24261474609375,248.2256774902344
1700076113,0.365936279296875,-0.75201416015625,-0.0137176513671875,0.151408165693283,-1.0358713865280151,-3.704385995864868,83.21676635742188,-45.10343933105469,248.19873046875
1700076113,0.410247802734375,-0.97308349609375,0.164947509765625,0.1612429469823837,-1.0051838159561155,-3.853559255599976,84.44293212890625,-46.27326965332031,247.7681579589844
1700076113,0.2482452392578125,-0.637359619140625,0.0569000244140625,-0.090706467628479,-1.063018798828125,-3.916457414627075,85.53616333007812,-47.74652099609375,248.83462524414065
1700076113,0.2873992919921875,-0.292938232421875,-0.0982513427734375,-0.2003197818994522,-1.052152395248413,-4.2465033531188965,87.07881164550781,-48.45393371582031,248.4062957763672
1700076113,0.419219970703125,-0.1625823974609375,-0.168853759765625,-0.2120608538389206,-1.033109426498413,-4.675334930419922,87.95310974121094,-50.141387939453125,248.5646209716797
1700076114,0.5293426513671875,-0.0456390380859375,-0.157257080078125,-0.2818673551082611,-1.067428469657898,-5.071207523345947,89.51565551757812,-51.44853210449219,249.3253173828125
1700076114,0.6705474853515625,0.034210205078125,-0.074676513671875,-0.3675947785377502,-1.0906862020492554,-5.317962169647217,90.28849792480467,-53.06744384765625,248.7647399902344
1700076114,0.787200927734375,0.0836181640625,-0.0064849853515625,-0.3599235415458679,-1.1161526441574097,-5.332508563995361,91.54116821289062,-54.82344055175781,249.2191772460937
1700076114,0.87713623046875,0.17022705078125,0.038848876953125,-0.4084175825119018,-1.2073427438735962,-5.11301326751709,92.2807159423828,-56.32862854003906,249.583251953125
1700076114,0.9780120849609376,0.31329345703125,0.0345916748046875,-0.5084807872772217,-1.3272075653076172,-4.752738952636719,93.51287841796876,-58.02220153808594,249.7142028808593
1700076114,1.1063690185546875,0.503448486328125,-0.0234375,-0.4158068001270294,-1.5526835918426514,-4.372600078582764,94.40574645996094,-59.710693359375,249.643798828125
1700076114,1.2326507568359375,0.740264892578125,-0.043121337890625,0.1317391246557235,-1.5800836086273191,-4.184465408325195,95.73606872558594,-61.638519287109375,250.20005798339844
1700076114,1.3574066162109375,0.966888427734375,-0.2662506103515625,0.9327559471130372,-1.640737533569336,-4.393061637878418,96.30459594726562,-63.03044128417969,250.0453643798828
1700076114,1.426788330078125,1.1960906982421875,-0.44775390625,1.0254323482513428,-1.6814311742782593,-4.645260334014893,96.8216552734375,-65.14125061035156,250.50450134277344
1700076114,1.46636962890625,1.66790771484375,-0.444793701171875,0.4610230028629303,-1.6204367876052856,-4.681140422821045,97.29466247558594,-66.61007690429688,251.589584350586
1700076114,1.5473175048828125,2.092864990234375,-0.334564208984375,0.1583227962255478,-1.4886066913604736,-4.72245979309082,97.77854919433594,-68.51708984375,251.3242034912109
1700076114,1.6209869384765625,1.7570343017578125,-0.272186279296875,0.0367241911590099,-1.3190141916275024,-4.668020248413086,98.37567138671876,-69.78463745117188,251.3199615478516
1700076114,1.5272064208984375,1.1451416015625,-0.33673095703125,-0.3514376580715179,-1.2523962259292605,-4.238028526306152,98.3449249267578,-71.7760009765625,251.2433013916016
1700076114,1.3339996337890625,1.0366058349609375,-0.52044677734375,-0.7055193185806274,-1.394192814826965,-3.4063422679901123,98.22047424316406,-72.99685668945312,251.2239532470703
1700076114,1.102996826171875,1.1176300048828125,-0.5765228271484375,-1.106708288192749,-1.4848688840866089,-2.532470226287842,98.59600830078124,-74.66679382324219,251.24742126464844
1700076114,0.93634033203125,1.1136627197265625,-0.631866455078125,-1.32382333278656,-1.503690242767334,-1.7764722108840942,98.52975463867188,-75.75462341308594,251.1964263916016
1700076114,0.9244232177734376,1.1618499755859375,-0.584625244140625,-1.357338309288025,-1.379138708114624,-1.3313899040222168,98.08985900878906,-77.19911193847656,250.75987243652344
1700076114,0.9499969482421876,1.1902008056640625,-0.5294952392578125,-1.204135179519653,-1.0761677026748655,-1.1347795724868774,98.2782745361328,-78.38450622558594,250.2234039306641
1700076114,0.863983154296875,1.18505859375,-0.5105133056640625,-0.8427599668502808,-0.7242066860198975,-0.9849829077720642,97.99209594726562,-79.20634460449219,250.53582763671875
1700076114,0.714996337890625,1.1264801025390625,-0.533538818359375,-0.5246512293815613,-0.3939486443996429,-0.7161069512367249,98.2023468017578,-79.98472595214844,250.20416259765625
1700076114,0.5725250244140625,1.042572021484375,-0.581634521484375,-0.2847113609313965,0.0597054064273834,-0.2836229205131531,98.43122863769533,-80.60227966308594,249.5699157714844
1700076114,0.432281494140625,0.9910430908203124,-0.654449462890625,0.0483752563595771,0.7470347881317139,0.4588818252086639,97.88394165039062,-80.92340087890625,249.6807098388672
1700076114,0.2031707763671875,1.2502899169921875,-0.9687042236328124,0.0157789625227451,1.0561646223068235,1.368079662322998,97.96788024902344,-81.55488586425781,249.15188598632807
1700076114,0.1575775146484375,1.6537017822265625,-1.3153839111328125,0.4285193979740143,2.4533162117004395,2.0099432468414307,98.18167114257812,-81.20635986328125,249.93435668945312
1700076114,0.1640167236328125,1.785308837890625,-2.5708770751953125,0.5981819033622742,4.185153484344482,2.6569690704345703,97.93753051757812,-81.96611022949219,249.98760986328125
1700076114,0.1487274169921875,2.44049072265625,-3.7903900146484375,-1.5294193029403689,-1.2077083587646484,1.850353717803955,98.09934997558594,-81.89370727539062,249.66470336914065
1700076114,3.958908081054688,0.384368896484375,1.122650146484375,-0.4481583535671234,-0.0953187942504882,-1.072245955467224,98.07878112792967,-81.7935791015625,250.0146942138672
1700076114,3.988693237304688,-2.153182983398437,0.3145294189453125,1.934213638305664,1.6430436372756958,-2.115906953811645,98.33781433105467,-81.8887939453125,249.606689453125
1700076114,2.03106689453125,-2.029205322265625,1.132293701171875,1.9759403467178345,1.7237496376037598,-0.6958112716674805,98.58262634277344,-81.45252990722656,249.92776489257807
1700076114,0.8332977294921875,-1.160552978515625,0.537933349609375,1.2032065391540527,0.8141022324562073,1.3615185022354126,98.62857055664062,-80.92465209960938,250.079818725586
1700076114,0.505615234375,-0.98931884765625,0.1456756591796875,0.9339897632598876,0.7895971536636353,2.1519110202789307,98.39894104003906,-81.46087646484375,249.9376983642578
1700076114,1.019195556640625,-1.1748809814453125,0.4835968017578125,-0.3984245955944061,1.2806931734085083,2.5007214546203613,98.58865356445312,-81.82931518554688,250.01988220214844
1700076114,1.2891845703125,-0.565277099609375,0.218902587890625,-1.8817284107208248,1.5197714567184448,2.853955745697021,98.70358276367188,-81.70706176757812,249.9569396972656
1700076114,1.46636962890625,-0.043548583984375,0.0740509033203125,-2.474825620651245,1.6823111772537231,3.075730800628662,99.04847717285156,-80.92172241210938,250.53933715820312
1700076114,1.3708648681640625,0.230743408203125,-0.22198486328125,-1.7489535808563232,1.5263018608093262,2.6766774654388428,99.02439880371094,-80.61030578613281,249.565658569336
1700076114,1.0932769775390625,0.13751220703125,-0.59344482421875,-0.5176828503608704,0.8370972871780396,1.3777426481246948,99.17034912109376,-79.62840270996094,249.55186462402344
1700076114,0.9316253662109376,0.0611114501953125,-0.9991455078125,0.3412801027297973,0.0785046592354774,0.7773178815841675,99.56770324707033,-79.37115478515625,249.3443603515625
1700076114,1.3379669189453125,0.50982666015625,-0.6429290771484375,-0.1061860918998718,-0.5712067484855652,1.215795636177063,99.31182861328124,-78.89057922363281,248.80484008789065
1700076114,2.1890411376953125,0.880279541015625,0.009735107421875,-0.9258852005004884,-0.6081820726394653,1.480087399482727,99.62361145019533,-78.7169189453125,248.9628448486328
1700076114,2.6819305419921875,0.7418060302734375,0.095458984375,-0.505390465259552,0.1015503257513046,1.3660749197006226,100.11862182617188,-78.73652648925781,249.44273376464844
1700076114,2.034637451171875,0.5966644287109375,0.2577362060546875,0.1006070375442504,0.6268255710601807,1.190357685089111,99.75479125976562,-78.55990600585938,249.0956115722656
1700076114,0.9741363525390624,0.5663299560546875,0.18878173828125,0.314447671175003,0.7486870288848877,1.0014992952346802,99.6201171875,-78.22561645507812,249.1800842285156
1700076114,0.5525054931640625,0.38818359375,-0.1048583984375,0.4031999111175537,0.7538040280342102,0.8353867530822754,99.58692932128906,-77.99330139160156,249.13473510742188
1700076114,0.409759521484375,0.062103271484375,-0.3490753173828125,0.5074315071105957,0.7535232901573181,0.7567811608314514,99.86817932128906,-78.12469482421875,249.1343994140625
1700076114,0.3346710205078125,-0.165191650390625,-0.544677734375,0.7907977104187012,0.6651684045791626,0.9001702666282654,99.65950012207033,-77.556396484375,248.8246917724609
1700076114,0.5782012939453125,-0.16046142578125,-0.4586029052734375,0.8438878059387207,0.5546458959579468,1.1463172435760498,99.89207458496094,-77.43536376953125,248.5767364501953
1700076114,1.032073974609375,0.0135498046875,-0.3126678466796875,0.6228311061859131,0.5480298399925232,1.2214268445968628,99.95103454589844,-77.14022827148438,248.4050445556641
1700076114,1.2261505126953125,0.264251708984375,-0.384735107421875,0.6083751916885376,0.5507009625434875,1.1538387537002563,99.68370056152344,-76.70848083496094,249.10235595703125
1700076114,1.1800994873046875,0.3750762939453125,-0.3587646484375,0.8190831542015076,0.5962710976600647,1.0833581686019895,99.47021484375,-76.24595642089844,248.92434692382807
1700076114,1.132720947265625,0.2838134765625,-0.2584381103515625,0.9693251252174376,0.6052590012550354,1.1595076322555542,99.489013671875,-76.41801452636719,249.3204040527344
1700076114,0.96539306640625,0.12744140625,-0.3194732666015625,0.9624493718147278,0.5734880566596985,1.3417881727218628,99.75762939453124,-76.22244262695312,248.9526214599609
1700076114,0.7190704345703125,0.0306243896484375,-0.49017333984375,0.841471254825592,0.4846684038639068,1.5773417949676514,99.4217529296875,-76.07215881347656,249.114013671875
1700076114,0.54620361328125,0.1138458251953125,-0.5491180419921875,0.5526895523071289,0.4246929585933685,1.6964669227600098,99.75152587890624,-76.24256896972656,248.62730407714844
1700076114,0.576416015625,0.324920654296875,-0.409027099609375,0.2982615232467651,0.529452919960022,1.6071364879608154,99.55891418457033,-76.01983642578125,248.59361267089844
1700076114,0.704803466796875,0.475677490234375,-0.1673126220703125,0.1520992517471313,0.6745898723602295,1.4686156511306765,100.1385498046875,-75.59568786621094,248.7886657714844
1700076114,0.88177490234375,0.500396728515625,-0.150634765625,0.2588075995445251,0.7002862095832825,1.5442296266555786,99.87408447265624,-75.52482604980469,248.7870178222656
1700076114,1.195648193359375,0.390380859375,-0.28936767578125,0.4280970096588135,0.5851151347160339,1.7677290439605713,99.77091979980467,-75.73101806640625,249.01022338867188
1700076114,1.401397705078125,0.2248077392578125,-0.388336181640625,0.4243046641349792,0.5430081486701965,2.022368907928467,99.8013153076172,-75.17050170898438,249.301025390625
1700076114,1.17889404296875,0.0498809814453125,-0.4796905517578125,0.4556181132793426,0.6491806507110596,2.318811655044556,99.66717529296876,-75.52421569824219,249.02438354492188
1700076114,0.832977294921875,0.016876220703125,-0.4755859375,0.4882610142230987,0.705564022064209,2.433297872543335,99.94831848144533,-75.42985534667969,249.0741729736328
1700076114,0.737945556640625,0.266357421875,-0.4723052978515625,0.6188528537750244,0.7226862907409668,2.326692581176758,99.93641662597656,-75.13481140136719,249.248291015625
1700076114,0.82232666015625,0.575775146484375,-0.4075927734375,0.7556309700012207,0.7887318730354309,2.120692491531372,99.64613342285156,-75.13604736328125,249.2109832763672
1700076114,1.0310516357421875,0.7021026611328125,-0.262115478515625,0.935896337032318,0.840351402759552,2.0480892658233643,100.06985473632812,-75.26956176757812,248.62771606445312
1700076114,1.17962646484375,0.57403564453125,-0.2344818115234375,0.9893193244934082,0.8878244161605835,2.1877732276916504,100.32049560546876,-75.03662109375,249.03909301757807
1700076114,1.0581207275390625,0.354949951171875,-0.322906494140625,0.8207942247390747,0.891973614692688,2.3907148838043213,100.04086303710938,-74.88423156738281,249.2382202148437
1700076114,0.8844146728515625,0.3445892333984375,-0.402435302734375,0.7265045046806335,0.8776151537895203,2.469709634780884,100.45433044433594,-74.93905639648438,249.0547637939453
1700076114,0.9944000244140624,0.49957275390625,-0.417633056640625,0.8259514570236206,0.8873293399810791,2.4626686573028564,100.0162353515625,-74.6119384765625,249.2011566162109
1700076114,1.2508392333984375,0.639739990234375,-0.39288330078125,0.9408261179924012,0.8308237195014954,2.483393907546997,100.12728881835938,-74.16365051269531,248.7906646728516
1700076114,1.47723388671875,0.679840087890625,-0.4056854248046875,1.0492173433303833,0.7091699838638306,2.5919620990753174,100.00216674804688,-73.84872436523438,249.12301635742188
1700076114,1.6842041015625,0.669525146484375,-0.3790435791015625,1.0355653762817385,0.5714238286018372,2.721409559249878,100.38143920898438,-74.25308227539062,249.0204925537109
1700076114,1.9250640869140625,0.5683441162109375,-0.3060150146484375,0.934637725353241,0.4576690196990967,2.8406295776367188,100.32264709472656,-73.74601745605469,248.78982543945312
1700076114,2.171981811523437,0.3997650146484375,-0.272064208984375,0.8047729134559631,0.2719215154647827,2.964280366897583,100.17268371582033,-73.64785766601562,249.2987060546875
1700076114,2.467742919921875,0.2102508544921875,-0.2067718505859375,0.5962242484092712,-0.0722947046160698,2.872183561325073,100.380615234375,-73.56614685058594,249.5903778076172
1700076114,2.67120361328125,-0.0647125244140625,-0.1660308837890625,0.274589478969574,-0.3409549295902252,2.7074174880981445,100.39347839355467,-73.46331787109375,249.34669494628903
1700076114,2.317169189453125,-0.2112274169921875,-0.3349456787109375,-0.2605037689208984,-0.065927617251873,2.481707572937012,100.3311767578125,-73.45967102050781,249.02517700195312
1700076114,1.3905181884765625,-0.2526702880859375,-0.763580322265625,-0.6721701622009277,0.0302833374589681,2.311567783355713,100.49684143066406,-73.05010986328125,249.0970001220703
1700076114,0.43896484375,-0.1377410888671875,-1.0288238525390625,-1.7456490993499756,-0.0423498526215553,2.3892054557800293,100.36061096191406,-72.86231994628906,248.95684814453125
1700076114,-0.347076416015625,0.16937255859375,-1.4678802490234375,-2.3785550594329834,-0.2380549013614654,1.6786178350448608,100.49624633789062,-72.6209716796875,248.65695190429688
1700076114,-0.568023681640625,-0.0675811767578125,-1.05670166015625,-1.21317458152771,0.0002732403227128,0.3957635760307312,100.08094787597656,-72.50135803222656,248.767807006836
1700076114,-0.9228973388671876,-0.5197296142578125,0.3383941650390625,0.5317930579185486,-0.3020764887332916,-0.7196393609046936,100.31561279296876,-72.0963134765625,249.1213836669922
1700076114,-1.139007568359375,-0.7916107177734375,1.2005615234375,1.059649109840393,-0.8115141987800598,-1.6101990938186646,100.1986083984375,-71.88035583496094,249.0305938720703
1700076114,-0.1436614990234375,-0.5882568359375,0.695037841796875,0.7440778613090515,-1.145638942718506,-2.4199681282043457,100.0303955078125,-71.80096435546875,248.42575073242188
1700076114,0.3457794189453125,-0.5318145751953125,0.0531005859375,0.6574566960334778,-1.3129277229309082,-3.0672202110290527,100.0449676513672,-71.44410705566406,248.1363525390625
1700076114,0.2613525390625,-0.628631591796875,-0.0545654296875,0.7994623184204102,-1.304920673370361,-3.372089147567749,100.10275268554688,-71.51637268066406,248.0428009033203
1700076114,0.1102142333984375,-0.6333465576171875,0.0488739013671875,0.4559864401817322,-1.3551650047302246,-3.5810546875,99.99786376953124,-71.07855224609375,248.4667205810547
1700076114,0.0869598388671875,-0.541412353515625,-0.028961181640625,-0.0192421376705169,-1.457290530204773,-3.816516399383545,99.8974151611328,-70.82058715820312,248.28260803222656
1700076114,0.186187744140625,-0.39007568359375,-0.2054595947265625,-0.229177787899971,-1.5034809112548828,-4.116229057312012,100.08282470703124,-70.14491271972656,248.4869537353516
1700076114,0.2583465576171875,-0.2452392578125,-0.3594207763671875,-0.2884626984596252,-1.45212984085083,-4.479430675506592,100.15220642089844,-70.20390319824219,248.33123779296875
1700076114,0.30029296875,-0.1145172119140625,-0.460601806640625,-0.3784980475902557,-1.3358514308929443,-4.819496154785156,100.05085754394533,-70.06686401367188,247.6686248779297
1700076114,0.38555908203125,0.0019073486328125,-0.4449615478515625,-0.5098859071731567,-1.233142614364624,-5.072631359100342,99.87248229980467,-69.44497680664062,248.13693237304688
1700076114,0.5254669189453125,0.087860107421875,-0.372161865234375,-0.5660008192062378,-1.3392560482025146,-5.141350746154785,99.7929229736328,-69.31703186035156,247.21759033203125
1700076114,0.722320556640625,0.2218780517578125,-0.251556396484375,-0.6234561204910278,-1.5408974885940552,-4.92674446105957,99.96551513671876,-68.56217956542969,247.70437622070312
1700076114,0.9392547607421876,0.4390716552734375,-0.213775634765625,-0.8238813877105713,-1.648916721343994,-4.60881233215332,99.67219543457033,-68.15460205078125,247.63218688964844
1700076114,1.102783203125,0.590545654296875,-0.2849578857421875,-0.9977368116378784,-1.649760127067566,-4.275015830993652,99.57038879394533,-67.53544616699219,247.2561950683593
1700076114,1.257598876953125,0.7038421630859375,-0.3869171142578125,-0.8870523571968079,-1.6211111545562744,-3.9629855155944815,99.57505798339844,-67.1600341796875,247.1955108642578
1700076114,1.4390106201171875,0.838348388671875,-0.5296478271484375,-0.4337181448936462,-1.7454270124435425,-3.82731032371521,99.28507995605467,-66.42721557617188,247.0286865234375
1700076114,1.575408935546875,0.998016357421875,-0.63592529296875,-0.2877273857593536,-1.8719031810760496,-3.956925868988037,99.1614227294922,-65.95611572265625,246.70361328125
1700076114,1.5921173095703125,1.17559814453125,-0.79522705078125,-0.6723381876945496,-1.7257747650146484,-4.262966632843018,98.90785217285156,-65.08601379394531,246.3855438232422
1700076114,1.5751800537109375,1.4050445556640625,-0.9088134765625,-1.1718223094940186,-1.4338723421096802,-4.399588584899902,99.05162048339844,-64.28096008300781,245.470443725586
1700076114,1.4879913330078125,1.6187896728515625,-0.739959716796875,-1.020275354385376,-1.1630525588989258,-4.211282730102539,98.94898986816406,-63.32046508789063,245.5855865478516
1700076115,1.3590087890625,1.605560302734375,-0.5328369140625,-0.384827584028244,-0.9860316514968872,-3.784847259521485,98.5912628173828,-62.19932556152344,245.36721801757807
1700076115,1.214874267578125,1.512847900390625,-0.424468994140625,0.2717401683330536,-0.9452993869781494,-3.2512543201446533,98.6905517578125,-61.52201843261719,245.7168884277344
1700076115,1.084197998046875,1.498687744140625,-0.355255126953125,0.6054121255874634,-0.9521408081054688,-2.761705160140991,98.15753173828124,-60.39476013183594,245.2430419921875
1700076115,1.01611328125,1.4289093017578125,-0.3299713134765625,0.7736871838569641,-0.8326389193534851,-2.385091543197632,98.04762268066406,-59.55357360839844,244.73931884765625
1700076115,1.0015411376953125,1.2854766845703125,-0.35382080078125,0.972067892551422,-0.6372388005256653,-2.10367202758789,97.45770263671876,-58.28886413574219,244.9823608398437
1700076115,1.0335540771484375,1.0912322998046875,-0.4090576171875,1.02161705493927,-0.5017749667167664,-1.8488482236862185,96.87156677246094,-57.24479675292969,244.2034454345703
1700076115,1.0316925048828125,0.8962860107421875,-0.50164794921875,0.8223679065704346,-0.4372577667236328,-1.4878047704696655,96.47068786621094,-56.25181579589844,243.73670959472656
1700076115,0.9029998779296876,0.7541351318359375,-0.5767669677734375,0.4265622496604919,-0.3639752864837646,-1.1102046966552734,95.90122985839844,-54.82609558105469,243.1636962890625
1700076115,0.7558135986328125,0.6005859375,-0.59527587890625,0.0444614738225936,-0.2509904205799103,-0.7761668562889099,95.6920166015625,-53.64619445800781,242.78366088867188
1700076115,0.65850830078125,0.4244537353515625,-0.52783203125,-0.1913007199764251,-0.113426961004734,-0.4365584254264831,95.29884338378906,-52.89425659179688,242.7819366455078
1700076115,0.5785675048828125,0.318634033203125,-0.3884124755859375,-0.2822535336017608,0.0522123388946056,-0.0967869982123375,94.62068176269533,-51.93287658691406,241.79800415039065
1700076115,0.54656982421875,0.277374267578125,-0.2744598388671875,-0.2495882660150528,0.1867781430482864,0.1904855221509933,94.72103881835938,-50.85188293457031,241.8993225097656
1700076115,0.622650146484375,0.293792724609375,-0.17333984375,-0.1604796946048736,0.265438050031662,0.372535228729248,94.21629333496094,-49.93800354003906,241.7541961669922
1700076115,0.7473602294921875,0.3269500732421875,-0.0989837646484375,-0.0449938401579856,0.3945603668689728,0.495299756526947,93.867919921875,-49.17414855957031,241.1396026611328
1700076115,0.801422119140625,0.3462677001953125,-0.1568603515625,-0.1278125494718551,0.9596341252326964,0.5909562110900879,93.51638793945312,-48.19161987304688,241.5183258056641
1700076115,0.6878509521484375,0.4276275634765625,-0.60687255859375,-0.1403818726539611,1.0454730987548828,0.5912007093429565,93.64918518066406,-47.87803649902344,240.76632690429688
1700076115,0.568389892578125,0.4152679443359375,-0.58447265625,0.0285197924822568,1.2166416645050049,0.9165905117988586,93.63552856445312,-47.68038940429688,241.16043090820312
1700076115,0.8147430419921875,0.54034423828125,-0.6395111083984375,1.0806822776794434,4.37412166595459,1.7470656633377075,93.8467254638672,-47.68745422363281,241.2640838623047
1700076115,0.0261993408203125,1.2140655517578125,-2.9554595947265625,0.3003363907337188,1.438927173614502,2.384528398513794,94.34413146972656,-47.64198303222656,241.3502197265625
1700076115,1.2382659912109375,1.632781982421875,-0.91357421875,-0.5086387395858765,-1.144678235054016,1.0109620094299316,94.53228759765624,-47.95257568359375,241.0274200439453
1700076115,4.188735961914063,-0.4462738037109375,0.7804412841796875,0.6260697245597839,0.2370564937591552,-0.7153117656707764,95.03952026367188,-48.25270080566406,241.3230895996093
1700076115,2.785797119140625,-1.3297882080078125,-0.088134765625,1.456998586654663,0.8256004452705383,-0.479872852563858,95.9590301513672,-48.73164367675781,241.75477600097656
1700076115,1.1507720947265625,-0.9137420654296876,1.2633209228515625,1.2711347341537476,1.4471782445907593,0.8623003959655762,95.7796630859375,-49.13407897949219,241.31593322753903
1700076115,0.437744140625,-0.6971435546875,1.084503173828125,-0.1402857303619384,1.3003443479537964,1.672474980354309,96.4716339111328,-50.37867736816406,241.01632690429688
1700076115,0.3514862060546875,-0.623809814453125,0.1905364990234375,-1.4515599012374878,1.2974917888641355,1.8211318254470823,97.25376892089844,-51.18551635742188,240.65768432617188
1700076115,0.80224609375,-0.527557373046875,-0.2553558349609375,-1.9387482404708865,1.4397456645965576,1.861910462379456,97.76872253417967,-52.151458740234375,240.0648956298828
1700076115,1.3297882080078125,-0.28350830078125,-0.3712615966796875,-2.019464492797852,1.2300975322723389,2.0199689865112305,98.64736938476562,-53.56623840332031,240.80545043945312
1700076115,1.62908935546875,0.0934906005859375,-0.5155029296875,-1.903780937194824,0.5407548546791077,1.846035838127136,99.2031707763672,-55.18524169921875,240.319076538086
1700076115,1.5375213623046875,0.2948150634765625,-0.7238006591796875,-1.0689009428024292,-0.3379828333854675,1.2659029960632324,99.97052001953124,-57.06181335449219,239.83908081054688
1700076115,1.5835418701171875,0.254364013671875,-0.2889251708984375,-0.556948184967041,-0.4007644653320312,0.9786370992660522,100.31982421875,-58.51542663574219,240.01638793945312
1700076115,2.2874755859375,0.1085205078125,0.24798583984375,0.1512973755598068,0.453239381313324,1.060980200767517,100.41984558105467,-60.0849609375,239.4330291748047
1700076115,3.055572509765625,-0.2364654541015625,0.57598876953125,0.2177115529775619,1.2629964351654053,2.002657413482666,101.2336883544922,-61.798370361328125,239.5126342773437
1700076115,2.24609375,0.0595855712890625,0.09820556640625,-0.3708089590072632,0.9674515724182128,2.5493109226226807,101.84683227539062,-63.89010620117188,239.638412475586
1700076115,0.95330810546875,0.3069305419921875,-0.444366455078125,-0.3801441490650177,0.2631631791591644,2.193121671676636,102.13182067871094,-65.60050964355469,239.3998870849609
1700076115,0.453277587890625,0.244354248046875,-0.6356201171875,-0.3191524147987366,-0.0535340644419193,1.540980339050293,102.32023620605467,-67.86521911621094,240.2313537597656
1700076115,0.3241119384765625,0.416473388671875,-0.585845947265625,-0.0357960797846317,0.3787044286727905,1.1411583423614502,102.23640441894533,-69.62490844726562,240.0576934814453
1700076115,0.320526123046875,0.7310943603515625,-0.1751708984375,0.6219778060913086,0.7182279229164124,0.8501020669937134,102.71438598632812,-71.38945007324219,240.49493408203125
1700076115,0.5177154541015625,0.6551971435546875,-0.090850830078125,0.9019418358802797,0.5637803077697754,0.6556835770606995,102.80564880371094,-73.24501037597656,240.40142822265625
1700076115,0.8421630859375,0.4364013671875,-0.318878173828125,0.8069010376930237,0.447894424200058,0.6553975343704224,102.76023864746094,-74.92478942871094,240.9667816162109
1700076115,1.0995941162109375,0.2203826904296875,-0.3234710693359375,0.6977247595787048,0.584666907787323,0.6602972149848938,102.90916442871094,-76.22465515136719,241.24859619140625
1700076115,1.229644775390625,-0.00750732421875,-0.2748565673828125,0.5994858145713806,0.6574801206588745,0.8447844982147217,102.48664855957033,-77.47555541992188,241.070541381836
1700076115,1.1069488525390625,-0.043365478515625,-0.3179931640625,0.5306351184844971,0.5968024134635925,1.1884244680404663,102.41633605957033,-78.89601135253906,241.46424865722656
1700076115,0.892974853515625,0.006103515625,-0.4228668212890625,0.4747856855392456,0.5423463582992554,1.4187729358673096,102.36517333984376,-80.5626220703125,241.7093505859375
1700076115,0.832122802734375,0.05145263671875,-0.4603271484375,0.4361671805381775,0.52690190076828,1.493659734725952,102.31349182128906,-82.03778076171875,242.0406494140625
1700076115,0.834320068359375,0.2094573974609375,-0.4142913818359375,0.3973132669925689,0.5429754257202148,1.4715640544891355,101.51358032226562,-83.09915161132812,241.98846435546875
1700076115,0.816131591796875,0.354400634765625,-0.3707427978515625,0.5272997617721558,0.5938857197761536,1.3570009469985962,101.24105834960938,-84.85122680664062,243.0139617919922
1700076115,0.8573455810546875,0.4085235595703125,-0.2895965576171875,0.7409545183181763,0.6760634183883667,1.3096914291381836,101.1907196044922,-85.36021423339844,243.0362243652344
1700076115,0.94482421875,0.4129486083984375,-0.2814788818359375,0.8912966251373291,0.7487834095954895,1.3366384506225586,101.16470336914062,-86.10342407226562,243.4853515625
1700076115,1.0439300537109375,0.2469940185546875,-0.2893829345703125,0.9247163534164428,0.8455110192298889,1.4431954622268677,101.25698852539062,-87.21812438964844,243.4929351806641
1700076115,1.0828399658203125,0.067657470703125,-0.398529052734375,0.9064156413078308,0.8544715046882629,1.6943632364273071,101.3027801513672,-87.58346557617188,243.85435485839844
1700076115,0.9191741943359376,0.0264434814453125,-0.501190185546875,0.9176286458969116,0.8833087682723999,1.954297423362732,101.0854949951172,-88.32963562011719,243.86997985839844
1700076115,0.6868438720703125,0.1023712158203125,-0.5214996337890625,0.9078963994979858,0.8937744498252869,1.9783337116241453,101.34371948242188,-88.71054077148438,244.2139129638672
1700076115,0.61322021484375,0.3937835693359375,-0.4099578857421875,0.903258502483368,0.930460810661316,1.7830902338027954,100.818359375,-88.68595886230469,244.7108764648437
1700076115,0.735443115234375,0.700775146484375,-0.2982177734375,1.0360373258590698,0.9594943523406982,1.583422064781189,100.47412109375,-88.83120727539062,244.83541870117188
1700076115,1.023345947265625,0.7893218994140625,-0.2179412841796875,1.1715261936187744,0.9379149675369264,1.5380511283874512,100.878173828125,-88.86102294921875,245.0405731201172
1700076115,1.2912750244140625,0.649169921875,-0.279083251953125,1.1464996337890625,0.9110450148582458,1.6818474531173706,101.1724090576172,-88.56611633300781,245.0971069335937
1700076115,1.2731781005859375,0.3836212158203125,-0.3603973388671875,1.0209358930587769,0.9483511447906494,2.01059627532959,101.15057373046876,-88.20468139648438,244.8148803710937
1700076115,1.063262939453125,0.20001220703125,-0.467041015625,0.9419235587120056,0.9569579362869264,2.306171178817749,101.1401824951172,-87.92645263671875,245.2498016357422
1700076115,1.2273712158203125,0.2883148193359375,-0.5287933349609375,0.9825812578201294,0.9923044443130492,2.4409618377685547,101.21755981445312,-87.87753295898438,245.3957672119141
1700076115,1.48175048828125,0.33721923828125,-0.4915313720703125,1.045124053955078,1.0358353853225708,2.5551319122314453,101.01408386230467,-87.73602294921875,245.74465942382807
1700076115,1.3603515625,0.298797607421875,-0.554046630859375,1.1465827226638794,1.0119801759719849,2.636666774749756,101.4882354736328,-88.00364685058594,246.5853576660156
1700076115,1.2649078369140625,0.402587890625,-0.6454315185546875,1.291554570198059,0.9414551258087158,2.6437466144561768,101.5880889892578,-87.70588684082031,246.8318786621093
1700076115,1.3148193359375,0.5666046142578125,-0.6605072021484375,1.3613543510437012,0.7834916114807129,2.5554959774017334,101.62826538085938,-87.73481750488281,247.321029663086
1700076115,1.4923095703125,0.6014862060546875,-0.6523895263671875,1.5084762573242188,0.663856029510498,2.447301387786865,101.6594696044922,-87.13436889648438,246.8577117919922
1700076115,1.7235107421875,0.4926300048828125,-0.5578460693359375,1.645569086074829,0.523240864276886,2.4188756942749023,101.1444091796875,-85.05876159667969,243.9995574951172
1700076115,1.90338134765625,0.342041015625,-0.42901611328125,1.5817887783050537,0.3763427436351776,2.335442066192627,102.12321472167967,-83.73883056640625,245.379135131836
1700076115,1.97247314453125,0.126953125,-0.40362548828125,1.424934148788452,0.3606833517551422,1.9982171058654783,103.24610900878906,-84.02006530761719,246.67105102539065
1700076115,1.889068603515625,-0.2061309814453125,-0.4791259765625,1.4829144477844238,0.2780329585075378,1.4178794622421265,102.63565063476562,-83.61189270019531,244.8700561523437
1700076115,1.536224365234375,-0.4215087890625,-0.45465087890625,0.9274146556854248,0.1649617850780487,1.930922031402588,101.78515625,-83.76559448242188,243.2448272705078
1700076115,0.5474700927734375,0.2126312255859375,-0.7509307861328125,-0.1032028198242187,0.2927351891994476,2.505415439605713,101.30059814453124,-83.68083190917969,243.323471069336
