timestamp,acc-x,acc-y,acc-z,gyr-x,gyr-y,gyr-z,mag-x,mag-y,mag-z
1700075224,0.309356689453125,-0.1031494140625,-0.219818115234375,-1.6613216400146484,0.0083066653460264,-0.3223567306995392,83.580078125,-40.293731689453125,279.3915710449219
1700075224,0.302337646484375,-0.042938232421875,-0.2553558349609375,-1.7083441019058228,-0.087219588458538,-0.565543532371521,83.14422607421875,-40.00837707519531,278.7262268066406
1700075224,0.2925872802734375,0.00323486328125,-0.2662353515625,-1.7420862913131714,-0.1496302336454391,-0.8611067533493042,82.88018798828125,-39.703155517578125,277.3002319335937
1700075224,0.2902984619140625,-0.0267333984375,-0.2421112060546875,-1.7059592008590698,-0.2197163850069046,-1.104562520980835,82.86189270019531,-39.459869384765625,276.5865173339844
1700075224,0.2543792724609375,-0.03338623046875,-0.234405517578125,-1.6016777753829956,-0.311611145734787,-1.2479015588760376,82.31674194335938,-39.164459228515625,276.1426696777344
1700075224,0.1837921142578125,-0.0344085693359375,-0.2342529296875,-1.5387784242630005,-0.3529396951198578,-1.4684712886810305,82.238037109375,-39.474945068359375,275.4378662109375
1700075224,0.1893157958984375,-0.0563812255859375,-0.3127288818359375,-1.4186139106750488,-0.4197059273719787,-1.6984306573867798,82.27313232421875,-39.48817443847656,274.966796875
1700075224,0.2037200927734375,0.0033721923828125,-0.3188934326171875,-1.2484397888183594,-0.4581878185272217,-1.92850923538208,82.19082641601562,-39.13783264160156,274.34625244140625
1700075224,0.21087646484375,0.0393524169921875,-0.291168212890625,-1.0369789600372314,-0.4802377223968506,-2.1349880695343018,82.62446594238281,-39.64311218261719,273.54766845703125
1700075224,0.2028350830078125,0.07232666015625,-0.290740966796875,-0.8275573253631592,-0.5163595080375671,-2.317756175994873,82.65950012207031,-40.10317993164063,273.03936767578125
1700075224,0.2068939208984375,0.140350341796875,-0.3179779052734375,-0.671252965927124,-0.5333847999572754,-2.4889941215515137,83.46998596191406,-39.94406127929688,272.8792724609375
1700075224,0.23468017578125,0.1977996826171875,-0.3484649658203125,-0.5711820125579834,-0.5485238432884216,-2.62191128730774,83.83113098144531,-40.41319274902344,272.89996337890625
1700075224,0.253570556640625,0.2316741943359375,-0.366058349609375,-0.4967778027057647,-0.5637107491493225,-2.661257266998291,84.11996459960938,-40.84967041015625,272.0394287109375
1700075224,0.253875732421875,0.2990264892578125,-0.3784942626953125,-0.5039553046226501,-0.5301975607872009,-2.5981969833374023,84.51280212402344,-41.56735229492188,271.9785461425781
1700075224,0.2978973388671875,0.405426025390625,-0.4389801025390625,-0.5023965239524841,-0.5154559016227722,-2.4602675437927246,85.04983520507812,-41.67315673828125,271.41314697265625
1700075224,0.318115234375,0.5687408447265625,-0.4706268310546875,-0.4559827148914337,-0.5110059976577759,-2.3477461338043213,86.00265502929688,-42.4620361328125,271.81268310546875
1700075224,0.3196258544921875,0.7371368408203125,-0.5165863037109375,-0.2897956073284149,-0.516140341758728,-2.231499433517456,86.93205261230469,-43.06344604492188,272.1298828125
1700075224,0.3499908447265625,0.8994293212890625,-0.5305328369140625,-0.0194029919803142,-0.4889901876449585,-2.0474512577056885,87.4412841796875,-43.56320190429688,272.23663330078125
1700075224,0.38385009765625,1.04559326171875,-0.5260467529296875,0.2736331522464752,-0.4280051290988922,-1.8162031173706048,88.10025024414062,-44.10464477539063,271.87115478515625
1700075224,0.395843505859375,1.1600494384765625,-0.54449462890625,0.5327509641647339,-0.3581025004386902,-1.638006567955017,88.79562377929688,-44.4996337890625,271.8333740234375
1700075224,0.4224090576171875,1.1898956298828125,-0.56121826171875,0.7922019958496094,-0.2822205126285553,-1.3759815692901611,89.49174499511719,-45.24015808105469,271.879150390625
1700075224,0.42388916015625,1.1909637451171875,-0.5797119140625,0.9058971405029296,-0.2814766764640808,-1.025045394897461,90.09413146972656,-46.09794616699219,272.15167236328125
1700075224,0.3746795654296875,1.347991943359375,-0.6100006103515625,0.5462979674339294,0.1834795475006103,-0.8321624398231506,90.72691345214844,-46.894134521484375,272.43865966796875
1700075225,0.3855133056640625,1.4303131103515625,-1.0409088134765625,1.2244250774383545,0.4733566343784332,-0.2893133163452148,91.1220703125,-47.24273681640625,272.88018798828125
1700075225,0.3090362548828125,1.73236083984375,-1.3593292236328125,1.8093801736831665,0.2267388701438903,0.5099559426307678,91.97158813476562,-47.55364990234375,273.1153564453125
1700075225,0.712066650390625,2.2633819580078125,-1.1692047119140625,0.9273611307144164,-0.2584017217159271,0.4960395693778991,92.45010375976562,-48.55201721191406,273.60894775390625
1700075225,1.8559417724609373,1.8958282470703125,-0.2271270751953125,0.6460506319999695,-0.7340574860572815,-0.0173624791204929,92.27545166015624,-48.62742614746094,274.5440673828125
1700075225,2.1464996337890625,0.9351806640625,0.78558349609375,0.3384792506694793,-0.4934107661247253,-0.0539753511548042,92.86355590820312,-49.238616943359375,274.46099853515625
1700075225,1.3548126220703125,0.0393829345703125,0.70538330078125,-0.2474241703748703,-0.3672778606414795,0.4440568089485168,93.04164123535156,-49.58360290527344,274.71002197265625
1700075225,0.582275390625,-0.18841552734375,-0.176727294921875,-0.7099441289901733,-0.4581723511219024,0.4970662295818329,93.29031372070312,-49.68815612792969,275.5060119628906
1700075225,0.6039581298828125,-0.310760498046875,-0.88653564453125,-0.4315199851989746,-0.3387042880058288,0.5554432272911072,93.52801513671876,-49.73028564453125,275.25103759765625
1700075225,0.70440673828125,-0.351470947265625,-1.000030517578125,-0.269428551197052,-0.2103351354598999,0.6681445240974426,93.8288116455078,-49.692291259765625,275.04248046875
1700075225,0.6166839599609375,-0.1862945556640625,-0.7838287353515625,0.0685257986187934,-0.1286288201808929,0.5561753511428833,94.0433349609375,-49.5262451171875,275.68182373046875
1700075225,0.61260986328125,0.2491455078125,-0.425811767578125,0.4255244135856628,-0.1307140737771988,0.5051156282424927,94.2080535888672,-49.3988037109375,275.33319091796875
1700075225,1.017486572265625,0.8149871826171875,-0.020355224609375,-0.0779991969466209,-0.2181858569383621,0.3490663766860962,94.29948425292967,-49.18502807617188,275.25372314453125
1700075225,1.6296844482421875,1.1085357666015625,0.095001220703125,-0.523544192314148,-0.0618979893624782,-0.0584486611187458,94.2234344482422,-49.55780029296875,275.8236694335937
1700075225,1.6770172119140625,0.88702392578125,-0.216461181640625,-0.4453441798686981,0.0236906819045543,-0.3394542336463928,93.88706970214844,-49.02671813964844,276.15936279296875
1700075225,1.12445068359375,0.42095947265625,-0.5402984619140625,-0.2503565847873688,-0.0291118118911981,-0.3150122761726379,93.96237182617188,-48.31748962402344,275.8891906738281
1700075225,0.7933349609375,0.077056884765625,-0.6046295166015625,-0.0576941892504692,-0.0889024436473846,-0.1345298439264297,94.2388153076172,-48.22138977050781,275.99530029296875
1700075225,0.7437591552734375,-0.066192626953125,-0.5301666259765625,-0.1678638309240341,-0.1607513278722763,-0.0118824923411011,93.808837890625,-48.23524475097656,276.0775146484375
1700075225,0.770751953125,0.094085693359375,-0.4468231201171875,-0.3712047040462494,-0.1552257984876632,-0.0918388441205024,93.41651916503906,-47.78752136230469,276.1209716796875
1700075225,0.8602294921875,0.33673095703125,-0.405853271484375,-0.4393973350524902,-0.1155990362167358,-0.2843201458454132,93.06475830078124,-47.31632995605469,275.90948486328125
1700075225,0.9588470458984376,0.413787841796875,-0.3878326416015625,-0.3379426300525665,-0.1345034837722778,-0.4225238263607025,92.94615173339844,-47.366973876953125,275.8743591308594
1700075225,0.9792327880859376,0.3788909912109375,-0.414947509765625,-0.1988278776407241,-0.2049009501934051,-0.4838982224464416,93.22979736328124,-47.17768859863281,275.9325561523437
1700075225,0.9501800537109376,0.3062896728515625,-0.4564666748046875,-0.1481519192457199,-0.2870719730854034,-0.5099924206733704,92.88706970214844,-47.00434875488281,275.5497131347656
1700075225,0.9503631591796876,0.2594451904296875,-0.4623565673828125,-0.1412274241447448,-0.3578889071941376,-0.5191672444343567,93.16114807128906,-47.32823181152344,275.7757873535156
1700075225,0.963043212890625,0.24737548828125,-0.4569549560546875,-0.1384196579456329,-0.4196310937404632,-0.5348474383354187,93.43205261230467,-47.09504699707031,276.1392822265625
1700075225,0.97216796875,0.2523040771484375,-0.452056884765625,-0.1356065571308136,-0.4663834273815155,-0.5655209422111511,93.35877990722656,-47.36329650878906,276.01629638671875
1700075225,0.98504638671875,0.258575439453125,-0.43768310546875,-0.1184949576854705,-0.4936648309230804,-0.5887879133224487,93.47239685058594,-47.141204833984375,276.167236328125
1700075225,0.9805755615234376,0.2617034912109375,-0.407745361328125,-0.1347772628068924,-0.4936390221118927,-0.624042272567749,93.3944091796875,-47.14035034179688,276.254150390625
1700075225,0.9755859375,0.2356414794921875,-0.3816986083984375,-0.1211362779140472,-0.4760653376579284,-0.6396145820617676,93.10653686523438,-47.19451904296875,275.41180419921875
1700075225,0.9483795166015624,0.199951171875,-0.3774566650390625,-0.0839082151651382,-0.4600400328636169,-0.6381104588508606,93.6092529296875,-47.22566223144531,276.2083740234375
1700075225,0.90106201171875,0.1912384033203125,-0.375732421875,-0.070467509329319,-0.460140973329544,-0.6473132371902466,93.54859924316406,-47.335723876953125,275.65631103515625
1700075225,0.88372802734375,0.185638427734375,-0.3539886474609375,-0.0516341663897037,-0.4316973388195038,-0.6603773832321167,93.52130126953124,-47.44772338867188,275.32476806640625
1700075225,0.89581298828125,0.187744140625,-0.3524017333984375,-0.0223923902958631,-0.4249235987663269,-0.6629316210746765,93.75596618652344,-47.451507568359375,275.8154296875
1700075225,0.918304443359375,0.1986846923828125,-0.3632659912109375,-0.0060837250202894,-0.4388963878154754,-0.659604549407959,93.50640869140624,-47.80070495605469,276.0194091796875
1700075225,0.9362030029296876,0.198638916015625,-0.3664703369140625,-0.021142303943634,-0.4583023190498352,-0.6726282238960266,93.44865417480467,-48.06463623046875,276.2047119140625
1700075225,0.9437255859375,0.1834564208984375,-0.381134033203125,-0.0350780934095382,-0.4684260785579681,-0.6777489185333252,93.88435363769533,-47.698822021484375,275.8085632324219
1700075225,0.9241790771484376,0.17388916015625,-0.38861083984375,-0.061320349574089,-0.4821346998214721,-0.6850262880325317,93.77000427246094,-47.84031677246094,275.9126892089844
1700075225,0.9232940673828124,0.1678924560546875,-0.3606414794921875,-0.0850224792957305,-0.4794661998748779,-0.6858561038970947,93.90809631347656,-48.47737121582031,275.474853515625
1700075225,0.9419708251953124,0.157073974609375,-0.3421478271484375,-0.0867040008306503,-0.4752506911754608,-0.6861932873725891,94.01597595214844,-48.22898864746094,276.0364990234375
1700075225,0.943084716796875,0.1338348388671875,-0.3423919677734375,-0.0887687504291534,-0.4812659621238708,-0.658115565776825,93.92010498046876,-48.37303161621094,275.7094116210937
1700075225,0.934112548828125,0.1199493408203125,-0.346435546875,-0.1344882994890213,-0.4915239214897156,-0.642189085483551,94.32369995117188,-49.02798461914063,275.6652526855469
1700075225,0.9396209716796876,0.0986480712890625,-0.333740234375,-0.1830009818077087,-0.4763939678668976,-0.6168831586837769,94.00672912597656,-48.868499755859375,276.6085205078125
1700075225,0.94720458984375,0.0672607421875,-0.32330322265625,-0.1722180992364883,-0.4587079286575317,-0.6028709411621094,94.47265625,-48.95843505859375,276.1376647949219
1700075225,0.948150634765625,0.041290283203125,-0.3273773193359375,-0.1128863394260406,-0.444933533668518,-0.5616310834884644,94.34304809570312,-49.13591003417969,276.4720458984375
1700075225,0.9427032470703124,0.0557861328125,-0.304168701171875,-0.0864946767687797,-0.4598482847213745,-0.5400712490081787,94.28079223632812,-49.3555908203125,276.7762756347656
1700075225,0.9506683349609376,0.0768280029296875,-0.274383544921875,-0.038063496351242,-0.4039405584335327,-0.524217426776886,94.54583740234376,-49.87019348144531,276.8863525390625
1700075225,0.9510040283203124,0.0989837646484375,-0.267669677734375,0.0319446176290512,-0.3728686571121216,-0.5227462649345398,94.53973388671876,-49.839874267578125,276.6885986328125
1700075225,0.9292144775390624,0.1051177978515625,-0.238311767578125,0.1004051640629768,-0.3376728594303131,-0.4838279187679291,94.75404357910156,-49.98822021484375,276.1268310546875
1700075225,0.9387969970703124,0.08209228515625,-0.2581939697265625,0.1825935095548629,-0.3104611933231354,-0.4341964423656463,94.98616027832033,-50.15849304199219,276.91900634765625
1700075225,0.9563751220703124,0.0311431884765625,-0.2718505859375,0.2565484344959259,-0.3054858744144439,-0.3821678757667541,94.9556121826172,-50.65290832519531,276.6785888671875
1700075225,0.9453277587890624,-0.014251708984375,-0.2667388916015625,0.2200311720371246,-0.3034565448760986,-0.3226377069950104,94.93962097167967,-51.09764099121094,277.0413513183594
1700075225,0.916046142578125,-0.021209716796875,-0.2984161376953125,0.1730122566223144,-0.2884323298931122,-0.2798819839954376,94.87319946289062,-51.224853515625,277.37255859375
1700075225,0.9140625,-0.015167236328125,-0.3118133544921875,0.2010345757007599,-0.256840318441391,-0.2277000099420547,95.28506469726562,-51.57858276367188,276.947509765625
1700075225,0.9308319091796876,0.0002899169921875,-0.2819061279296875,0.267561137676239,-0.2572704255580902,-0.2399196475744247,95.56448364257812,-51.769287109375,277.0477905273437
1700075225,0.980926513671875,-0.029205322265625,-0.2227783203125,0.2338974475860595,-0.2397287040948867,-0.2018380463123321,95.6357421875,-51.7977294921875,277.1186218261719
1700075225,1.0018310546875,-0.029266357421875,-0.219085693359375,0.1869333982467651,-0.2062724828720092,-0.1146022155880928,95.46717834472656,-51.98095703125,277.87255859375
1700075225,0.9511871337890624,-0.0059051513671875,-0.26318359375,0.154512345790863,-0.1924277693033218,-0.0293680094182491,95.36178588867188,-52.606292724609375,278.2123413085937
1700075225,0.913604736328125,0.018798828125,-0.2682647705078125,0.1517221480607986,-0.2022476494312286,-0.0393567271530628,95.52125549316406,-52.738800048828125,277.6635437011719
1700075225,0.9300537109375,-0.0240478515625,-0.2428436279296875,0.1996529251337051,-0.1596192270517349,-0.0367886424064636,95.48721313476562,-52.38258361816406,278.01904296875
1700075225,0.951019287109375,-0.045257568359375,-0.2505950927734375,0.2761538326740265,-0.131259486079216,0.0165105331689119,95.5032196044922,-52.85792541503906,277.90203857421875
1700075225,0.9763031005859376,-0.031158447265625,-0.225738525390625,0.2687483727931976,-0.1238617599010467,0.1148706600069999,95.853759765625,-52.9635009765625,277.9999389648437
1700075225,0.99237060546875,-0.01202392578125,-0.2054443359375,0.2484287172555923,-0.0883154794573783,0.2167181968688964,95.81990051269533,-53.172943115234375,278.3238525390625
1700075225,0.9563751220703124,-0.0464324951171875,-0.2154541015625,0.177678644657135,-0.0555277056992054,0.3335662484169006,95.66615295410156,-52.791046142578125,278.7335510253906
1700075225,0.9122772216796876,-0.1053619384765625,-0.2328948974609375,0.083613134920597,-0.0419344007968902,0.4392870962619781,95.53944396972656,-53.52406311035156,278.54058837890625
1700075225,0.9283905029296876,-0.1536865234375,-0.26507568359375,0.142464205622673,-0.0230677686631679,0.4968718290328979,95.79635620117188,-53.14649963378906,278.5600280761719
1700075225,0.9939117431640624,-0.1855926513671875,-0.271759033203125,0.1475311368703842,-0.0321984179317951,0.5814557075500488,95.48995971679688,-53.10630798339844,278.5101318359375
1700075225,1.044342041015625,-0.0365753173828125,-0.2748260498046875,0.1408183723688125,-0.0352860838174819,0.6221114993095398,95.54025268554688,-53.28242492675781,278.424560546875
1700075225,1.0678863525390625,0.1033782958984375,-0.1996002197265625,0.1510800570249557,0.01104546058923,0.615523636341095,96.01551818847656,-53.36880493164063,279.0136108398437
1700075225,1.046356201171875,0.1443634033203125,-0.1621246337890625,0.2090972959995269,0.039547674357891,0.6411229968070984,95.8625946044922,-53.21455383300781,279.0772705078125
1700075225,1.033782958984375,0.0819854736328125,-0.1748809814453125,0.298420786857605,0.0299357939511537,0.7084178924560547,95.42657470703124,-53.15272521972656,279.1879272460937
1700075225,1.0629730224609375,-0.011810302734375,-0.2147674560546875,0.341458261013031,0.0173323843628168,0.7863720655441284,95.40390014648438,-53.29020690917969,278.9302062988281
1700075225,1.1329498291015625,-0.0675506591796875,-0.26348876953125,0.3929123878479004,-0.0107474531978368,0.8801637887954712,95.12200927734376,-53.08541870117188,278.90191650390625
1700075225,1.227081298828125,-0.0523529052734375,-0.252655029296875,0.4560612738132477,-0.0963076278567314,0.9696713089942932,95.28672790527344,-52.9698486328125,278.9948425292969
1700075225,1.3295135498046875,0.0527496337890625,-0.198577880859375,0.3464953601360321,-0.1713094264268875,0.9971447587013244,95.51014709472656,-52.83058166503906,279.22235107421875
1700075225,1.4342193603515625,0.1410675048828125,-0.1596527099609375,0.2807331383228302,-0.174519881606102,0.9671333432197572,95.55047607421876,-52.916107177734375,278.7552185058594
1700075225,1.49151611328125,0.1530303955078125,-0.062530517578125,0.2677273154258728,-0.1649351567029953,0.9744197130203248,95.3580322265625,-52.80281066894531,279.55621337890625
1700075225,1.505218505859375,0.1380615234375,0.0052337646484375,0.2611096203327179,-0.2003911584615707,1.0159677267074585,95.21041870117188,-52.357177734375,279.233154296875
1700075225,1.5083465576171875,0.067169189453125,-0.0240325927734375,0.2227499932050705,-0.253326267004013,1.0747170448303225,95.36964416503906,-52.411468505859375,279.3897399902344
1700075225,1.5117340087890625,-0.0221405029296875,-0.057830810546875,0.2046229094266891,-0.2801722586154938,1.082524061203003,95.06492614746094,-52.3275146484375,279.9125366210937
1700075225,1.528411865234375,-0.1604766845703125,-0.1001739501953125,0.2642550766468048,-0.2829150557518005,1.041562557220459,94.87701416015624,-52.02348327636719,279.32452392578125
1700075225,1.5542755126953125,-0.3111724853515625,-0.1219482421875,0.3577291071414947,-0.3042376637458801,1.0054913759231567,94.4372100830078,-52.0928955078125,279.47955322265625
1700075225,1.5767822265625,-0.421173095703125,-0.11334228515625,0.3631278574466705,-0.40298792719841,1.0773767232894895,94.41798400878906,-51.89985656738281,279.27618408203125
1700075225,1.545684814453125,-0.4341278076171875,-0.0479583740234375,0.3435240685939789,-0.4519293904304504,1.1068813800811768,94.5364227294922,-51.85394287109375,280.24151611328125
1700075225,1.4785003662109375,-0.4972991943359375,0.022247314453125,0.2452667504549026,-0.38474902510643,1.141993284225464,94.1624755859375,-51.98551940917969,279.985595703125
1700075225,1.3422088623046875,-0.504547119140625,-0.0331878662109375,-0.0886387899518013,-0.0065377941355109,1.21625018119812,94.25146484375,-52.02470397949219,280.3007202148437
1700075225,1.142791748046875,-0.4056396484375,-0.442626953125,-0.5610633492469788,0.4626214504241943,1.423449993133545,93.6697998046875,-52.29457092285156,280.3023681640625
1700075225,0.9636993408203124,-0.19268798828125,-0.981842041015625,-1.1207658052444458,0.7047054171562195,1.7729952335357666,93.21292114257812,-51.63491821289063,280.121826171875
1700075225,0.8825225830078125,0.009735107421875,-1.2226409912109375,-1.5393164157867432,0.7935088276863098,2.017670154571533,93.12335205078124,-51.900146484375,280.60418701171875
1700075225,1.01702880859375,0.0675506591796875,-1.2428436279296875,-1.668881058692932,0.8009688854217529,2.247185468673706,93.02963256835938,-51.6328125,280.67987060546875
1700075225,1.13714599609375,0.1968231201171875,-1.1096038818359375,-1.3499877452850342,0.7165043354034424,2.6604371070861816,92.61331176757812,-51.41461181640625,280.56256103515625
1700075225,1.1591033935546875,0.47662353515625,-0.80426025390625,-0.9538561701774596,0.4740945994853973,2.915563106536865,92.28646850585938,-51.30288696289063,280.3028564453125
1700075225,1.2969818115234375,0.7009429931640625,-0.30645751953125,-0.5977163910865784,0.7273103594779968,2.889517068862915,92.1434326171875,-51.57850646972656,280.66802978515625
1700075225,1.4056549072265625,0.8680419921875,-0.190643310546875,0.0224158260971307,1.0840173959732056,2.754305124282837,91.98062133789062,-51.17906188964844,280.7383117675781
1700075225,1.4832763671875,1.0224609375,-0.2947540283203125,0.4637269079685211,1.0236070156097412,2.5622899532318115,91.314208984375,-51.21009826660156,280.7973022460937
1700075225,1.5531463623046875,1.098480224609375,-0.2923736572265625,0.6513721942901611,1.085360050201416,2.255728244781494,90.77214050292967,-50.55856323242188,279.6420288085937
1700075225,1.5579071044921875,0.85491943359375,-0.517059326171875,0.9311854243278505,1.1980924606323242,2.0181779861450195,90.56344604492188,-49.85699462890625,279.52899169921875
1700075225,1.467193603515625,0.4992218017578125,-0.6283416748046875,0.982147455215454,1.2315924167633057,2.0277137756347656,90.0640869140625,-48.99681091308594,278.993408203125
1700075225,1.3304901123046875,0.3913726806640625,-0.7039031982421875,0.81770259141922,1.1473572254180908,2.2273547649383545,89.95088195800781,-48.4066162109375,278.1849670410156
1700075225,1.26043701171875,0.3549041748046875,-0.71905517578125,0.6019372344017029,0.9849501252174376,2.361741304397583,89.23611450195312,-47.34205627441406,277.673828125
1700075225,1.3123016357421875,0.2696990966796875,-0.612701416015625,0.3627235889434814,0.8483720421791077,2.31326675415039,88.57728576660156,-46.66207885742188,276.72314453125
1700075226,1.35986328125,0.1904296875,-0.482421875,0.1407203674316406,0.8385865688323975,2.1315064430236816,88.13417053222656,-45.55625915527344,276.37890625
1700075226,1.28778076171875,0.205596923828125,-0.4096221923828125,0.0243647284805774,0.8586974143981934,1.939493656158448,87.62898254394531,-45.14739990234375,276.1587829589844
1700075226,1.140411376953125,0.2700653076171875,-0.349853515625,-0.0208418983966112,0.8240677714347839,1.750913143157959,87.03886413574219,-44.99241638183594,275.864013671875
1700075226,1.017364501953125,0.3158416748046875,-0.3034515380859375,-0.1031383723020553,0.7734925150871277,1.5005258321762085,86.19912719726562,-44.69963073730469,275.14306640625
1700075226,0.94451904296875,0.3335723876953125,-0.261749267578125,-0.1864194124937057,0.6696281433105469,1.153429388999939,85.96778869628906,-43.959014892578125,275.1578369140625
1700075226,0.8916168212890625,0.2764892578125,-0.165435791015625,-0.2856477200984955,0.5625794529914856,0.8334048390388489,85.30067443847656,-43.64595031738281,275.05255126953125
1700075226,0.77105712890625,0.183929443359375,-0.1198272705078125,-0.4235997498035431,0.4896240234375,0.5941799879074097,84.45913696289062,-43.01095581054688,274.750732421875
1700075226,0.598541259765625,0.07373046875,-0.140960693359375,-0.5963539481163025,0.4138347208499908,0.3752801418304443,84.22946166992188,-42.87596130371094,274.3486328125
1700075226,0.4548492431640625,-0.0424346923828125,-0.151214599609375,-0.8063415288925171,0.3219189047813415,0.1921249628067016,83.4864501953125,-42.19039916992188,273.978515625
1700075226,0.3427886962890625,-0.12127685546875,-0.1446685791015625,-1.071955919265747,0.2449176013469696,-0.0049865026958286,82.32545471191406,-41.80439758300781,273.4442443847656
1700075226,0.2767486572265625,-0.1716156005859375,-0.165802001953125,-1.254720687866211,0.1703086197376251,-0.2268943935632705,82.01359558105469,-41.66758728027344,272.68670654296875
1700075226,0.272247314453125,-0.2073211669921875,-0.163482666015625,-1.3559556007385254,0.0663055181503295,-0.4178832471370697,80.99020385742188,-41.65974426269531,272.50799560546875
1700075226,0.26361083984375,-0.155303955078125,-0.1512908935546875,-1.424832463264465,-0.0528070218861103,-0.6568226218223572,80.06230163574219,-40.98509216308594,272.10894775390625
1700075226,0.27154541015625,-0.0594482421875,-0.1468963623046875,-1.4617326259613037,-0.16593037545681,-0.948697865009308,79.412841796875,-40.864105224609375,271.2098083496094
1700075226,0.282684326171875,-0.0230560302734375,-0.1197662353515625,-1.4606826305389404,-0.2622318863868713,-1.2265348434448242,78.8104248046875,-40.46910095214844,270.3243408203125
1700075226,0.26123046875,-0.0494232177734375,-0.09466552734375,-1.4733864068984983,-0.3491673171520233,-1.4630781412124634,77.88148498535156,-40.365142822265625,270.0331726074219
1700075226,0.2093963623046875,-0.069854736328125,-0.13262939453125,-1.4965451955795288,-0.4499706327915191,-1.6709535121917725,77.54483032226562,-40.6063232421875,269.464599609375
1700075226,0.183380126953125,-0.075469970703125,-0.1622772216796875,-1.480517864227295,-0.5400621891021729,-1.8419638872146609,76.71876525878906,-40.28309631347656,268.182861328125
1700075226,0.163238525390625,-0.0724029541015625,-0.1427001953125,-1.4388388395309448,-0.6376582384109497,-2.053296566009521,76.85260009765625,-40.2607421875,267.77886962890625
1700075226,0.1693267822265625,-0.03033447265625,-0.148101806640625,-1.319000005722046,-0.7268954515457153,-2.24113130569458,76.79975891113281,-40.85884094238281,266.9865417480469
1700075226,0.1773529052734375,0.050933837890625,-0.1391754150390625,-1.1940953731536863,-0.7880216240882874,-2.420540332794189,76.24102783203125,-40.74362182617188,265.9242858886719
1700075226,0.173736572265625,0.127044677734375,-0.14111328125,-1.109608769416809,-0.8124814629554749,-2.600397109985352,76.28504943847656,-40.956451416015625,265.10107421875
1700075226,0.167816162109375,0.1661224365234375,-0.1690216064453125,-1.044851303100586,-0.8547630906105042,-2.7262558937072754,75.62127685546875,-41.08009338378906,264.0541381835937
1700075226,0.1777191162109375,0.20196533203125,-0.2061614990234375,-0.9520124197006226,-0.912761688232422,-2.78421688079834,75.79402160644531,-41.83126831054688,262.6617736816406
1700075226,0.2018280029296875,0.2815093994140625,-0.2459869384765625,-0.8516570925712585,-0.9815152287483216,-2.812883377075196,76.12594604492188,-41.94898986816406,261.89825439453125
1700075226,0.2534027099609375,0.374908447265625,-0.2838134765625,-0.6986156105995178,-1.0222761631011963,-2.775317668914795,76.29936218261719,-42.4805908203125,261.1976623535156
1700075226,0.3208465576171875,0.4893646240234375,-0.3380584716796875,-0.5163267254829407,-1.0361427068710327,-2.6564414501190186,76.32785034179688,-42.83634948730469,259.8945617675781
1700075226,0.3678131103515625,0.6284332275390625,-0.4062957763671875,-0.3999072015285492,-0.9927228689193726,-2.490771532058716,76.7076416015625,-43.07987976074219,259.81854248046875
1700075226,0.3952484130859375,0.760528564453125,-0.4951019287109375,-0.2998269200325012,-0.9350377321243286,-2.283273935317993,77.00634765625,-43.76295471191406,259.3082275390625
1700075226,0.420379638671875,0.8905487060546875,-0.6102294921875,-0.1984145492315292,-0.8417935371398926,-2.017223358154297,77.96446228027344,-44.40010070800781,258.5695495605469
1700075226,0.45361328125,1.026763916015625,-0.718963623046875,-0.1131846085190773,-0.7412858009338379,-1.7048606872558594,78.70367431640625,-45.12748718261719,257.9421691894531
1700075226,0.4799041748046875,1.1773529052734375,-0.8063201904296875,0.0270720981061458,-0.622919499874115,-1.4769880771636963,79.12113952636719,-45.78268432617188,257.3969116210937
1700075226,0.5160980224609375,1.2540435791015625,-0.839080810546875,0.0668386816978454,-0.479045420885086,-1.113370418548584,80.01164245605469,-46.10310363769531,257.38360595703125
1700075226,0.4670867919921875,1.3979339599609375,-0.8687744140625,0.0517140589654445,-0.356548011302948,-0.7929196953773499,81.24549865722656,-46.97065734863281,257.608642578125
1700075226,0.42694091796875,1.5072479248046875,-0.8274993896484375,0.1329937428236007,-0.1856865137815475,-0.6109043955802917,81.90098571777344,-47.79399108886719,257.6078491210937
1700075226,0.4278106689453125,1.418212890625,-0.7336883544921875,0.2925799489021301,-0.0809726119041442,-0.3540928363800049,83.11941528320312,-48.33126831054688,257.5609436035156
1700075226,0.36865234375,1.3160858154296875,-0.634063720703125,0.1527653038501739,0.2075092494487762,-0.229846253991127,84.21676635742188,-49.003997802734375,258.0361328125
1700075226,0.3603515625,1.130462646484375,-0.756134033203125,0.0792551413178443,0.7038899660110474,-0.115323930978775,85.21560668945312,-49.59327697753906,258.132080078125
1700075226,0.2374114990234375,1.0043182373046875,-1.2883453369140625,0.3829029202461242,0.3743658661842346,0.2244552075862884,86.08432006835938,-49.94660949707031,257.7963256835937
1700075226,0.5079345703125,1.0930938720703125,-0.95574951171875,0.3202027678489685,-0.2408621460199356,0.1208260208368301,87.06988525390625,-51.01730346679688,258.40594482421875
1700075226,1.6410369873046875,0.85589599609375,-0.1119232177734375,0.0861649811267852,-0.3935478329658508,-0.242898404598236,87.7041015625,-51.48065185546875,258.544189453125
1700075226,2.0665435791015625,0.33514404296875,0.195770263671875,0.1385320425033569,-0.3067469000816345,-0.0762079507112503,88.88021850585938,-52.07208251953125,259.0008544921875
1700075226,1.4989013671875,0.141998291015625,0.16162109375,0.4232596457004547,-0.0857188999652862,0.4458235502243042,89.62467956542969,-52.62591552734375,259.05291748046875
1700075226,1.1889495849609375,0.15216064453125,-0.3359375,0.5136023163795471,-0.2872914373874664,0.8755584359169006,90.37045288085938,-52.90692138671875,259.419921875
1700075226,1.63519287109375,0.2406158447265625,-0.52801513671875,0.0001752359967213,-0.5692538619041443,0.8103740811347961,90.64923095703124,-53.03819274902344,259.84796142578125
1700075226,1.8205108642578125,0.03387451171875,-0.258148193359375,-0.4366705417633056,-0.324830025434494,0.7433798909187317,91.08396911621094,-53.3582763671875,259.94512939453125
1700075226,0.9622955322265624,0.0698089599609375,-0.2620086669921875,-0.2122872322797775,-0.0902502685785293,0.6500174403190613,91.45489501953124,-52.99470520019531,260.6806945800781
1700075226,0.3723602294921875,0.192596435546875,-0.4979705810546875,0.127466082572937,-0.2256592214107513,0.5467632412910461,91.64112854003906,-52.72053527832031,260.4469909667969
1700075226,0.4889984130859375,0.4121551513671875,-0.4912109375,0.0229708291590213,-0.3029170036315918,0.3616490066051483,91.87565612792967,-52.505401611328125,260.7091369628906
1700075226,0.88446044921875,0.666351318359375,-0.3065032958984375,-0.2130968272686004,-0.2341696172952652,0.0416449159383773,91.6631317138672,-52.55961608886719,261.1614990234375
1700075226,1.160064697265625,0.698333740234375,-0.2752532958984375,-0.1793481856584549,-0.1984915137290954,-0.2171751856803894,92.12199401855467,-52.59547424316406,261.38739013671875
1700075226,1.1975555419921875,0.4633941650390625,-0.3389739990234375,-0.0508011281490325,-0.2395004779100418,-0.2451559603214264,91.98904418945312,-52.51849365234375,261.9613952636719
1700075226,0.988311767578125,0.249786376953125,-0.4199371337890625,-0.0189638379961252,-0.2972117066383362,-0.1820808500051498,91.99639892578124,-52.06451416015625,262.53448486328125
1700075226,0.867279052734375,0.1266937255859375,-0.4430084228515625,-0.1118596866726875,-0.3024855554103851,-0.118787370622158,92.14128112792967,-51.887603759765625,262.26275634765625
1700075226,0.880157470703125,0.084869384765625,-0.4052886962890625,-0.2379840612411499,-0.2812921404838562,-0.0906734466552734,91.85897827148438,-51.58119201660156,261.7789306640625
1700075226,0.91070556640625,0.1283111572265625,-0.3795928955078125,-0.2782020568847656,-0.2822495400905609,-0.1064537391066551,91.84539794921876,-51.21945190429688,261.7401733398437
1700075226,0.96051025390625,0.1937408447265625,-0.374847412109375,-0.2206077426671981,-0.3014466762542724,-0.153578370809555,91.78323364257812,-51.08566284179688,262.1271057128906
1700075226,0.993011474609375,0.252960205078125,-0.37811279296875,-0.1286194920539856,-0.3406731486320495,-0.2392219007015228,91.82057189941406,-50.86305236816406,262.5802001953125
1700075226,0.9982147216796876,0.287750244140625,-0.3831939697265625,-0.0952892377972602,-0.3869378566741943,-0.3305648565292358,91.73109436035156,-50.69984436035156,261.97918701171875
1700075226,0.98052978515625,0.3121490478515625,-0.4019927978515625,-0.0583836808800697,-0.4188955426216125,-0.4277382791042328,91.50218200683594,-50.555023193359375,262.1181030273437
1700075226,0.9615936279296876,0.30914306640625,-0.39825439453125,-0.0107202883809804,-0.446881890296936,-0.5081279277801514,91.78652954101562,-50.83135986328125,262.7470092773437
1700075226,0.9551849365234376,0.286773681640625,-0.3664398193359375,0.0185063071548938,-0.4473218321800232,-0.5657254457473755,92.0749969482422,-50.580078125,262.11651611328125
1700075226,0.961334228515625,0.2427520751953125,-0.3336639404296875,0.0194069873541593,-0.4267601072788238,-0.5698517560958862,91.87315368652344,-50.9088134765625,262.44537353515625
1700075226,0.951263427734375,0.2022247314453125,-0.32745361328125,0.0010439591715112,-0.4160310328006744,-0.5559473633766174,91.81797790527344,-50.73779296875,262.61639404296875
1700075226,0.9410400390625,0.1697540283203125,-0.3416290283203125,-0.0409469008445739,-0.4242109358310699,-0.5322950482368469,91.98274230957033,-51.02239990234375,262.4752502441406
1700075226,0.9368133544921876,0.142730712890625,-0.35211181640625,-0.0537665598094463,-0.4287742674350738,-0.5115846991539001,92.16355895996094,-51.15826416015625,261.8784484863281
1700075226,0.9306488037109376,0.1185302734375,-0.338226318359375,-0.0717636719346046,-0.4222875833511352,-0.4933252930641174,92.24156188964844,-51.23310852050781,261.93426513671875
1700075226,0.9283599853515624,0.1119842529296875,-0.3245697021484375,-0.0704232975840568,-0.421000212430954,-0.476207822561264,92.05996704101562,-51.27610778808594,262.2846374511719
1700075226,0.927154541015625,0.134033203125,-0.3288116455078125,-0.0452585592865943,-0.4326171875,-0.4656470417976379,92.25042724609376,-51.5853271484375,261.734375
1700075226,0.933685302734375,0.177490234375,-0.3393096923828125,-0.0533122234046459,-0.464367926120758,-0.5044415593147278,92.38160705566406,-51.38348388671875,262.2181396484375
1700075226,0.9507598876953124,0.201812744140625,-0.3382720947265625,-0.0545553863048553,-0.4667386710643768,-0.5545012950897217,92.3665771484375,-51.88319396972656,261.85626220703125
1700075226,0.9611053466796876,0.20343017578125,-0.3255767822265625,-0.0187079068273305,-0.4798955023288727,-0.5921370983123779,92.70474243164062,-52.19454956054688,262.3980712890625
1700075226,0.957305908203125,0.194580078125,-0.2879180908203125,-0.0511382855474948,-0.4833187162876129,-0.6065130829811096,92.72821044921876,-51.96728515625,262.6412353515625
1700075226,0.974212646484375,0.1566162109375,-0.26605224609375,-0.075539231300354,-0.4737590551376343,-0.5858195424079895,92.66275024414062,-52.56169128417969,262.42022705078125
1700075226,0.9679412841796876,0.11981201171875,-0.3100738525390625,-0.0693495124578476,-0.4785716533660888,-0.5326306223869324,92.91189575195312,-52.7515869140625,262.66461181640625
1700075226,0.94683837890625,0.1067352294921875,-0.340789794921875,-0.1097739040851593,-0.4980025887489319,-0.5109423398971558,92.81822204589844,-53.12489318847656,263.1687927246094
1700075226,0.9533538818359376,0.0936737060546875,-0.2947998046875,-0.1059650480747222,-0.461047500371933,-0.5068738460540771,93.3056640625,-53.100616455078125,262.29986572265625
1700075226,0.9639434814453124,0.08367919921875,-0.2381591796875,-0.0603837147355079,-0.3958458602428436,-0.462796151638031,93.27023315429688,-53.297760009765625,262.5916442871094
1700075226,0.9498291015625,0.1061248779296875,-0.2096405029296875,0.0685135498642921,-0.353636622428894,-0.4455305933952331,93.23629760742188,-53.23805236816406,263.12652587890625
1700075226,0.9493865966796876,0.09063720703125,-0.1806488037109375,0.1806797683238983,-0.3366632461547851,-0.4085222482681274,93.34896850585938,-53.986602783203125,262.884033203125
1700075226,0.9427947998046876,0.07440185546875,-0.195556640625,0.2217180132865905,-0.330848217010498,-0.3552379906177521,93.61244201660156,-54.16169738769531,262.7719421386719
1700075226,0.9343719482421876,0.0430908203125,-0.249176025390625,0.2891966700553894,-0.3253259062767029,-0.3041732013225555,93.6645050048828,-54.35104370117188,262.9447021484375
1700075226,0.9202728271484376,0.0054779052734375,-0.2940216064453125,0.247909665107727,-0.3330820798873901,-0.2687547504901886,93.69837951660156,-54.57838439941406,263.17889404296875
1700075226,0.9295196533203124,-0.00103759765625,-0.28271484375,0.1187463551759719,-0.3103799819946289,-0.2114744335412979,93.73696899414062,-54.514190673828125,263.1200561523437
1700075226,0.9447479248046876,0.024627685546875,-0.2610321044921875,0.0524424351751804,-0.2895351350307464,-0.1652044057846069,93.8441925048828,-54.99250793457031,263.2472229003906
1700075226,0.9526214599609376,0.018951416015625,-0.2236175537109375,0.0439581349492073,-0.2777498662471771,-0.125126227736473,94.042236328125,-55.08753967285156,263.2292175292969
1700075226,0.95953369140625,-0.01617431640625,-0.209197998046875,0.075201541185379,-0.2557129859924316,-0.062928631901741,94.423828125,-55.175537109375,263.5613098144531
1700075226,0.9417266845703124,-0.016204833984375,-0.221343994140625,0.1337833702564239,-0.2210066765546798,-0.0184083022177219,94.66781616210938,-55.52069091796875,264.18505859375
1700075226,0.9339752197265624,-0.0165557861328125,-0.191131591796875,0.1175183728337287,-0.1793846637010574,0.0415562316775321,94.75320434570312,-55.80596923828125,264.2367553710937
1700075226,0.9158172607421876,0.0148468017578125,-0.196014404296875,0.0982922166585922,-0.1496712565422058,0.0992339104413986,94.49171447753906,-55.75483703613281,264.2745056152344
1700075226,0.92047119140625,0.0277557373046875,-0.21368408203125,0.137755736708641,-0.1339972168207168,0.1629793345928192,94.23617553710938,-55.84922790527344,264.36138916015625
1700075226,0.9320068359375,0.0167083740234375,-0.203125,0.1657370328903198,-0.1061203107237815,0.2531222701072693,94.47622680664062,-56.23516845703125,264.18865966796875
1700075226,0.936553955078125,-1.52587890625e-05,-0.2092742919921875,0.2153453379869461,-0.0928897261619567,0.3251815438270569,94.6922607421875,-56.602081298828125,264.29254150390625
1700075226,0.91656494140625,-0.040557861328125,-0.2096405029296875,0.2134046852588653,-0.0658498555421829,0.4307202398777008,94.6357421875,-56.51463317871094,264.4315795898437
1700075226,0.8975067138671875,-0.064117431640625,-0.177337646484375,0.0879351794719696,-0.0258515700697898,0.5194271802902222,94.67015075683594,-56.62692260742188,264.6156616210937
1700075226,0.91436767578125,-0.1063232421875,-0.1881561279296875,-0.0073726950213313,0.0066054384224116,0.623590350151062,94.81689453125,-56.38945007324219,265.06427001953125
1700075226,0.924560546875,-0.154510498046875,-0.234588623046875,0.0039145806804299,0.0139182126149535,0.7325330972671509,94.66053771972656,-56.627685546875,264.94305419921875
1700075226,0.930389404296875,-0.101654052734375,-0.2928314208984375,-0.0469528622925281,-0.0196381490677595,0.7903864979743958,95.20442199707033,-57.08003234863281,265.3114624023437
1700075226,0.9597625732421876,0.0782318115234375,-0.2657623291015625,-0.1171111762523651,0.0007805725326761,0.7628257274627686,94.78842163085938,-56.84858703613281,265.1658935546875
1700075226,0.9983062744140624,0.2225189208984375,-0.161163330078125,0.0074746944010257,0.072903499007225,0.7087340354919434,94.95103454589844,-57.16822814941406,265.3103942871094
1700075227,0.985382080078125,0.2530517578125,-0.098297119140625,0.1755545139312744,0.0970722213387489,0.6991322636604309,95.05165100097656,-57.18788146972656,265.8128356933594
1700075227,0.9783782958984376,0.1910552978515625,-0.1043243408203125,0.1587944477796554,0.0992110073566436,0.7596325874328613,95.01417541503906,-57.026947021484375,265.3402709960937
1700075227,0.9852142333984376,0.092681884765625,-0.1785125732421875,0.0969619676470756,0.0735136345028877,0.8235231637954712,94.7247314453125,-57.16937255859375,265.6217956542969
1700075227,0.993194580078125,0.0018768310546875,-0.2586669921875,0.0170514211058616,0.0223849341273307,0.8480468988418579,94.9498291015625,-57.03985595703125,265.9950866699219
1700075227,1.0335235595703125,-0.031982421875,-0.3403167724609375,0.1117789968848228,-0.0238512698560953,0.8585887551307678,95.13662719726562,-56.78463745117188,265.708251953125
1700075227,1.0596771240234375,0.0695648193359375,-0.3614349365234375,0.18393574655056,-0.0896734297275543,0.7918861508369446,95.02229309082033,-57.49630737304688,265.90057373046875
1700075227,1.1024627685546875,0.2411346435546875,-0.26043701171875,0.1625183373689651,-0.0988339036703109,0.7390812635421753,94.97251892089844,-57.19378662109375,265.87847900390625
1700075227,1.149200439453125,0.3860321044921875,-0.1315155029296875,0.2242040783166885,-0.1179921478033065,0.7125926613807678,94.98014831542967,-57.18931579589844,265.9183349609375
1700075227,1.1721343994140625,0.406005859375,-0.1034698486328125,0.3380565941333771,-0.1896940320730209,0.7179698348045349,94.71076965332033,-57.18214416503906,265.670166015625
1700075227,1.21551513671875,0.2711029052734375,-0.1496124267578125,0.393640786409378,-0.2901705801486969,0.7708938121795654,94.61058044433594,-56.98133850097656,265.61114501953125
1700075227,1.2929534912109375,0.170166015625,-0.1930389404296875,0.2816918790340423,-0.3512120842933655,0.8159999847412109,94.2143096923828,-56.829498291015625,266.2683410644531
1700075227,1.41827392578125,0.12493896484375,-0.172637939453125,0.130733773112297,-0.3963220417499542,0.8218861222267151,94.42120361328124,-56.51371765136719,266.42120361328125
1700075227,1.525848388671875,0.098907470703125,-0.1389617919921875,0.0775150284171104,-0.487155020236969,0.8476455807685852,94.59432983398438,-56.51580810546875,265.80712890625
1700075227,1.58123779296875,0.133880615234375,-0.1955718994140625,0.1782144755125045,-0.5643858909606934,0.8237010836601257,94.31117248535156,-56.05142211914063,265.75616455078125
1700075227,1.6484527587890625,0.1157989501953125,-0.1395416259765625,0.369621992111206,-0.6258162260055542,0.7519446015357971,94.74327087402344,-55.90287780761719,266.3539123535156
1700075227,1.721099853515625,0.050201416015625,-0.034149169921875,0.527880072593689,-0.7300885915756226,0.71079421043396,94.1918487548828,-55.58494567871094,265.50787353515625
1700075227,1.76025390625,0.024688720703125,-0.0283050537109375,0.678357720375061,-0.8248488903045654,0.6838076114654541,94.32652282714844,-55.37886047363281,265.5479736328125
1700075227,1.82025146484375,-0.027984619140625,0.04986572265625,0.7455500960350037,-0.8688048720359802,0.6428990960121155,94.29286193847656,-55.1881103515625,265.7926330566406
1700075227,1.8826141357421875,-0.0914764404296875,0.2064056396484375,0.6261749267578125,-0.9340880513191224,0.5927008986473083,94.2169189453125,-55.04084777832031,265.82525634765625
1700075227,1.84912109375,-0.1787872314453125,0.300048828125,0.449497640132904,-1.0270967483520508,0.5460396409034729,93.70985412597656,-55.04121398925781,266.29156494140625
1700075227,1.6835784912109375,-0.35174560546875,0.3695526123046875,0.126437559723854,-0.9312275052070618,0.5826610326766968,93.6889190673828,-54.45271301269531,266.354736328125
1700075227,1.3910980224609375,-0.500091552734375,0.2407073974609375,-0.4513472020626068,-0.6252186298370361,0.7228825688362122,93.54367065429688,-54.12220764160156,266.77545166015625
1700075227,1.0466461181640625,-0.5545501708984375,-0.2700653076171875,-1.2272729873657229,-0.2414158135652542,1.1524174213409424,93.63655090332033,-54.34803771972656,265.9880065917969
1700075227,0.7626495361328125,-0.4548492431640625,-0.923431396484375,-1.9123786687850952,-0.047298539429903,1.871742844581604,92.90773010253906,-54.296966552734375,265.9349975585937
1700075227,0.6302490234375,-0.253265380859375,-1.1618499755859375,-2.381638765335083,0.2176369875669479,2.444500684738159,92.86843872070312,-53.98165893554688,266.5682373046875
1700075227,0.760406494140625,-0.1681060791015625,-1.093048095703125,-2.7425625324249268,0.4035309553146362,2.964085817337036,92.52430725097656,-53.96574401855469,266.365966796875
1700075227,1.0143585205078125,0.1750640869140625,-0.9356689453125,-2.8275039196014404,0.4976955354213714,3.644178867340088,92.40606689453124,-53.8087158203125,266.79669189453125
1700075227,1.05615234375,0.65155029296875,-0.8950347900390625,-2.356709718704224,0.5250509977340698,4.253103256225586,92.21377563476562,-53.29995727539063,266.7551574707031
1700075227,1.090728759765625,1.010040283203125,-0.8879547119140625,-1.888407826423645,0.5169906616210938,4.564340591430664,92.02850341796876,-53.04168701171875,266.66815185546875
1700075227,1.1919403076171875,1.3755035400390625,-0.769561767578125,-1.7596458196640017,0.8394664525985718,4.44736385345459,92.17878723144533,-53.42770385742188,266.45379638671875
1700075227,1.32122802734375,1.6474609375,-0.741943359375,-1.413805603981018,1.200994610786438,4.327915668487549,92.09585571289062,-53.44734191894531,266.9182434082031
1700075227,1.4381256103515625,1.7665252685546875,-0.6959991455078125,-0.8809108138084412,1.206903100013733,4.199981212615967,91.90835571289062,-53.16560363769531,267.1481018066406
1700075227,1.53778076171875,1.2866058349609375,-0.5454864501953125,-0.3707338571548462,1.183613419532776,3.942659854888916,91.59173583984376,-52.95716857910156,266.39215087890625
1700075227,1.6141357421875,0.615081787109375,-0.4884185791015625,-0.0645752623677253,1.1499513387680054,3.7468011379241934,91.37411499023438,-52.369964599609375,265.577392578125
1700075227,1.5673065185546875,0.3131256103515625,-0.465545654296875,0.1170227602124214,1.0094258785247805,3.7249624729156494,91.21875,-52.03875732421875,264.93511962890625
1700075227,1.4298248291015625,0.2038726806640625,-0.4156646728515625,0.2507030665874481,0.8576262593269348,3.76666522026062,91.16519165039062,-51.21565246582031,264.830810546875
1700075227,1.302337646484375,0.136871337890625,-0.3796539306640625,0.3732723891735077,0.7341938018798828,3.7214105129241934,90.82463073730467,-50.422393798828125,264.9010314941406
1700075227,1.191925048828125,0.06439208984375,-0.36053466796875,0.4342334866523742,0.6790706515312195,3.5922069549560547,90.56411743164062,-49.79875183105469,264.731201171875
1700075227,1.058807373046875,0.03192138671875,-0.367431640625,0.3962104618549347,0.6065021753311157,3.411570310592652,90.1440887451172,-49.26185607910156,263.96826171875
1700075227,0.969635009765625,0.0324554443359375,-0.3377532958984375,0.276002824306488,0.5028200149536133,3.192122220993042,90.19441223144533,-48.583587646484375,264.13824462890625
1700075227,0.9100341796875,0.0135345458984375,-0.322113037109375,0.0980844870209693,0.3406582474708557,2.961633443832397,89.32844543457031,-47.921234130859375,264.1882019042969
1700075227,0.8632659912109375,-0.0146942138671875,-0.297210693359375,-0.1093730926513671,0.0922827944159507,2.7012081146240234,89.08242797851562,-47.23912048339844,263.6627197265625
1700075227,0.8319091796875,-0.0606536865234375,-0.2459564208984375,-0.3510802686214447,-0.1640541851520538,2.3953278064727783,89.04521179199219,-46.94830322265625,263.347412109375
1700075227,0.8016815185546875,-0.128326416015625,-0.1970062255859375,-0.5657550096511841,-0.4024715423583984,2.050114631652832,88.44749450683594,-46.35487365722656,263.5089111328125
1700075227,0.7501373291015625,-0.2384033203125,-0.1218719482421875,-0.8443208336830139,-0.6468815803527832,1.666939377784729,87.90664672851562,-46.21131896972656,263.3660583496094
1700075227,0.666961669921875,-0.3516387939453125,-0.091278076171875,-1.2479602098464966,-0.8931565880775452,1.278716802597046,87.628662109375,-45.30718994140625,263.2901306152344
1700075227,0.569976806640625,-0.43408203125,-0.1431884765625,-1.7186517715454102,-1.0746816396713257,0.9108216166496276,87.4105224609375,-44.97554016113281,263.3311767578125
1700075227,0.4835052490234375,-0.4915008544921875,-0.2133941650390625,-2.0819509029388428,-1.1841706037521362,0.5669547915458679,86.76095581054688,-44.74113464355469,262.8509826660156
1700075227,0.4131927490234375,-0.5442657470703125,-0.2421112060546875,-2.263643741607666,-1.2729833126068115,0.2626239061355591,86.35140991210938,-44.22624206542969,262.9548034667969
1700075227,0.353607177734375,-0.5915985107421875,-0.224884033203125,-2.337053298950196,-1.401150822639465,-0.0131560154259204,85.82878112792969,-43.66755676269531,262.57537841796875
1700075227,0.3245697021484375,-0.620849609375,-0.222930908203125,-2.364963293075561,-1.5770856142044067,-0.3169886171817779,85.70533752441406,-43.547119140625,262.69921875
1700075227,0.320098876953125,-0.6171112060546875,-0.228118896484375,-2.448115110397339,-1.7537996768951416,-0.6878383159637451,85.5294189453125,-43.05998229980469,262.81610107421875
1700075227,0.3416595458984375,-0.5332183837890625,-0.2441558837890625,-2.5469348430633545,-1.9366108179092407,-1.0188697576522827,85.40371704101562,-43.100006103515625,261.9476318359375
1700075227,0.346435546875,-0.416778564453125,-0.2431793212890625,-2.6072468757629395,-2.1335930824279785,-1.328023910522461,85.21690368652344,-43.08590698242188,262.10308837890625
1700075227,0.353515625,-0.3116607666015625,-0.2458038330078125,-2.605987310409546,-2.3171839714050293,-1.6152876615524292,85.59468078613281,-42.84649658203125,262.3551025390625
1700075227,0.3622894287109375,-0.2100372314453125,-0.2601470947265625,-2.5378077030181885,-2.490496635437012,-1.8817880153656008,85.541259765625,-42.77101135253906,261.44073486328125
1700075227,0.368194580078125,-0.1206512451171875,-0.268310546875,-2.4552807807922363,-2.643937587738037,-2.1376686096191406,85.36489868164062,-42.95880126953125,261.14471435546875
1700075227,0.38739013671875,-0.06512451171875,-0.2737274169921875,-2.3922739028930664,-2.779096364974976,-2.3866004943847656,85.71952819824219,-43.21824645996094,260.5775146484375
1700075227,0.41632080078125,-0.04083251953125,-0.2959136962890625,-2.3069536685943604,-2.8923869132995605,-2.625336170196533,85.71524047851562,-43.08689880371094,260.3919982910156
1700075227,0.4636077880859375,-0.0380859375,-0.33453369140625,-2.2057785987854004,-2.98682165145874,-2.858006238937378,86.19346618652344,-43.26588439941406,259.7957763671875
1700075227,0.5362548828125,-0.0296630859375,-0.378326416015625,-2.0725250244140625,-3.062949180603028,-3.0747478008270264,87.00669860839844,-43.64936828613281,259.804931640625
1700075227,0.62493896484375,-0.016876220703125,-0.4002838134765625,-1.9820746183395384,-3.1208674907684326,-3.2884414196014404,87.48930358886719,-43.96507263183594,259.8023681640625
1700075227,0.7203521728515625,-0.02227783203125,-0.41790771484375,-1.979776859283448,-3.1677815914154053,-3.472839832305908,87.84922790527344,-43.764678955078125,259.8746643066406
1700075227,0.806610107421875,-0.0358734130859375,-0.4425811767578125,-1.9548898935317995,-3.1979591846466064,-3.6214852333068848,88.41557312011719,-44.93009948730469,259.6469116210937
1700075227,0.8865814208984375,-0.0457763671875,-0.486297607421875,-1.8668482303619385,-3.2101528644561768,-3.744601011276245,89.02359008789062,-45.566802978515625,259.4985046386719
1700075227,0.959564208984375,-0.0252532958984375,-0.5646820068359375,-1.866889715194702,-3.2036375999450684,-3.8583054542541504,89.99276733398438,-45.699310302734375,259.5763244628906
1700075227,1.0411376953125,0.0370635986328125,-0.6652984619140625,-2.034275531768799,-3.162817001342773,-3.981343507766724,90.78485107421876,-46.08921813964844,260.135498046875
1700075227,1.15093994140625,0.0945281982421875,-0.7626953125,-2.3487541675567627,-3.1118741035461426,-4.06073522567749,91.7273406982422,-46.77833557128906,260.0992126464844
1700075227,1.2799224853515625,0.150146484375,-0.8632354736328125,-2.7116639614105225,-3.116939783096313,-4.078675746917725,92.38932800292967,-47.16957092285156,259.8641662597656
1700075227,1.4135894775390625,0.2156524658203125,-0.95263671875,-2.9879279136657715,-3.200423002243042,-4.01923418045044,93.28858947753906,-47.70166015625,259.80841064453125
1700075227,1.5352325439453125,0.2877960205078125,-1.0221099853515625,-3.148947238922119,-3.303370952606201,-3.998169422149658,94.2239227294922,-48.51776123046875,260.3830871582031
1700075227,1.641265869140625,0.3228302001953125,-1.061920166015625,-3.270203351974488,-3.3452813625335693,-4.012555122375488,95.21426391601562,-48.90312194824219,260.6334228515625
1700075227,1.6524810791015625,0.362213134765625,-1.0602874755859375,-3.349125623703003,-3.2507879734039307,-4.05159854888916,96.35914611816406,-49.644775390625,261.22320556640625
1700075227,1.5771026611328125,0.4017791748046875,-1.003753662109375,-3.218531847000122,-3.068774700164795,-4.0732927322387695,97.08905029296876,-50.601318359375,260.6557922363281
1700075227,1.5053558349609375,0.4420166015625,-0.8843536376953125,-2.901184320449829,-2.857029914855957,-4.051891803741455,97.93814086914062,-50.74530029296875,261.3948059082031
1700075227,1.472381591796875,0.493988037109375,-0.8170166015625,-2.5250699520111084,-2.6323156356811523,-4.015197277069092,98.41091918945312,-50.80714416503906,261.80926513671875
1700075227,1.4753875732421875,0.5376129150390625,-0.8158111572265625,-2.177272319793701,-2.3998043537139893,-4.001287937164307,99.06819152832033,-51.45283508300781,261.94189453125
1700075227,1.478515625,0.57940673828125,-0.784576416015625,-1.8610457181930544,-2.1576859951019287,-3.934680223464966,99.64950561523438,-52.04219055175781,262.0955810546875
1700075227,1.453277587890625,0.6438140869140625,-0.703857421875,-1.5634320974349976,-1.967111110687256,-3.7936606407165527,100.11868286132812,-52.17112731933594,262.197509765625
1700075227,1.4207305908203125,0.7086181640625,-0.588287353515625,-1.2533153295516968,-1.7907257080078125,-3.6100313663482666,100.45402526855467,-52.07785034179688,263.0455017089844
1700075227,1.364990234375,0.725189208984375,-0.516632080078125,-1.0039105415344238,-1.589812397956848,-3.3783628940582275,100.92214965820312,-52.14764404296875,262.6318664550781
1700075227,1.2882232666015625,0.7166290283203125,-0.509613037109375,-0.8953068256378174,-1.3618804216384888,-3.0928761959075928,100.86213684082033,-51.896514892578125,263.11138916015625
1700075227,1.205902099609375,0.68792724609375,-0.53076171875,-0.9257723093032836,-1.098872423171997,-2.7017581462860107,100.99436950683594,-51.72776794433594,262.8131103515625
1700075227,1.11614990234375,0.65771484375,-0.5596923828125,-1.021844506263733,-0.8774436712265015,-2.2584123611450195,101.22370910644533,-51.54051208496094,261.9105224609375
1700075227,1.00927734375,0.6209869384765625,-0.57989501953125,-1.1251602172851562,-0.6654885411262512,-1.7911946773529053,101.54185485839844,-51.43450927734375,262.3916015625
1700075227,0.898712158203125,0.6343536376953125,-0.585296630859375,-1.1820584535598757,-0.4417502582073211,-1.316139817237854,101.32815551757812,-51.42573547363281,262.263671875
1700075227,0.8157196044921875,0.72039794921875,-0.57257080078125,-1.1164785623550415,-0.2321701198816299,-0.811286985874176,101.16300964355467,-51.3646240234375,262.2506103515625
1700075227,0.7575836181640625,0.8226318359375,-0.557708740234375,-1.0364367961883545,-0.0206027459353208,-0.3608918786048889,101.441162109375,-51.48033142089844,263.29217529296875
1700075227,0.7224578857421875,0.9000396728515625,-0.5904998779296875,-1.0487885475158691,0.2196636497974395,0.0697220861911773,101.06730651855467,-51.01339721679688,262.6575927734375
1700075227,0.665557861328125,0.9591522216796876,-0.6318359375,-1.0476747751235962,0.4720562100410461,0.4943836331367492,101.249755859375,-50.68862915039063,263.1278686523437
1700075227,0.641815185546875,0.9347381591796876,-0.6639862060546875,-0.9712082147598268,0.6966277956962585,0.8715306520462036,101.3341827392578,-50.343017578125,263.3228759765625
1700075227,0.6952362060546875,0.831207275390625,-0.6758575439453125,-0.8015081286430359,0.841316819190979,1.1792341470718384,101.15118408203124,-50.06733703613281,263.52392578125
1700075227,0.8116912841796875,0.7258148193359375,-0.6595611572265625,-0.8347209692001343,0.9761098027229308,1.5612571239471436,100.89060974121094,-49.83296203613281,263.554931640625
1700075227,0.9065704345703124,0.68389892578125,-0.6067352294921875,-0.8727242946624756,0.9290059208869934,1.574162840843201,100.67745971679688,-49.502716064453125,263.0326232910156
1700075227,0.99761962890625,0.499298095703125,-0.41839599609375,-0.7317426800727844,0.4610254168510437,0.846552312374115,101.07330322265624,-49.224212646484375,263.64373779296875
1700075227,1.4932098388671875,-0.4061737060546875,0.477691650390625,-0.1185261160135269,0.0567394457757473,-0.701595664024353,101.14511108398438,-49.25657653808594,263.5604248046875
1700075227,1.965301513671875,-1.5886383056640625,1.4691619873046875,-0.2540993988513946,0.7512034177780151,-0.968803644180298,101.0577392578125,-49.67913818359375,263.7562866210937
1700075227,1.6631011962890625,-1.530364990234375,0.7275390625,-1.0464822053909302,1.4204493761062622,1.0855377912521362,101.05265808105467,-49.39778137207031,263.5172119140625
1700075227,1.14910888671875,-0.35137939453125,-0.2380523681640625,-1.0157359838485718,1.4464820623397827,2.950681686401367,100.64117431640624,-49.412872314453125,263.7767028808594
1700075228,1.2882080078125,0.1670684814453125,-0.2130584716796875,-0.2964558899402618,1.1795669794082642,2.8718950748443604,101.0186767578125,-49.66860961914063,264.1965637207031
1700075228,1.46295166015625,-0.1962738037109375,0.0028533935546875,-0.0348011218011379,0.9170603156089784,2.0591862201690674,101.2524871826172,-49.74253845214844,264.06982421875
1700075228,1.2837066650390625,-0.0296630859375,-0.2104339599609375,-0.2217904478311538,0.8360552191734314,1.5033248662948608,101.07969665527344,-49.8892822265625,263.6952514648437
1700075228,1.072509765625,0.450164794921875,-0.0500335693359375,-0.3309185206890106,1.1792346239089966,1.2056779861450195,101.1030731201172,-49.96257019042969,264.2198181152344
1700075228,0.9051055908203124,0.731048583984375,0.124755859375,-0.1287976652383804,1.5853300094604492,0.9155404567718506,101.44166564941406,-50.056549072265625,264.15264892578125
1700075228,0.8314056396484375,0.5833740234375,-0.1415252685546875,0.0744928792119026,1.6954489946365356,0.7336457371711731,101.48616027832033,-50.23115539550781,264.36279296875
1700075228,0.9432525634765624,0.3143157958984375,-0.3773651123046875,-0.0594761110842227,1.4283368587493896,0.6477276682853699,101.5190887451172,-50.278564453125,264.632080078125
1700075228,1.0883026123046875,0.18341064453125,-0.5269775390625,-0.3567109704017639,0.9710500240325928,0.6386297345161438,101.6832275390625,-50.60655212402344,264.50982666015625
1700075228,1.182586669921875,0.01922607421875,-0.6031646728515625,-0.4347099065780639,0.6357266306877136,0.6876585483551025,101.73171997070312,-51.049591064453125,264.7294311523437
1700075228,1.1724395751953125,-0.16033935546875,-0.4427337646484375,-0.1958376765251159,0.5010841488838196,0.7609279751777649,101.51170349121094,-51.27378845214844,264.793701171875
1700075228,1.1258697509765625,-0.2978973388671875,-0.165069580078125,-0.0600955598056316,0.5371337532997131,0.931714117527008,101.57888793945312,-51.79548645019531,265.1224975585937
1700075228,1.0052490234375,-0.2429351806640625,-0.0678863525390625,-0.1177205070853233,0.5560203790664673,0.958914279937744,101.87611389160156,-51.81382751464844,265.51141357421875
1700075228,0.948089599609375,-0.0723724365234375,-0.0458984375,-0.1815261244773864,0.5279911160469055,0.8359279036521912,101.6832275390625,-51.81787109375,265.42657470703125
1700075228,1.0020904541015625,0.09124755859375,0.02978515625,-0.2733726799488067,0.5741687417030334,0.6885195374488831,102.20901489257812,-52.19154357910156,265.3896789550781
1700075228,1.050506591796875,0.235809326171875,0.0999603271484375,-0.3460338413715362,0.6789356470108032,0.4885963201522827,102.0773468017578,-52.38401794433594,265.5380249023437
1700075228,1.07464599609375,0.2407989501953125,0.0652923583984375,-0.4308075904846191,0.7075470089912415,0.4142355322837829,101.81027221679688,-52.7904052734375,265.0695495605469
1700075228,1.0807647705078125,0.165374755859375,-0.0159912109375,-0.5201987028121948,0.6642014384269714,0.4046478867530823,102.09434509277344,-52.78192138671875,265.18438720703125
1700075228,1.097381591796875,0.0952301025390625,-0.1345062255859375,-0.509946882724762,0.5566856265068054,0.3675599098205566,101.84269714355467,-53.29212951660156,265.93865966796875
1700075228,1.1253509521484375,0.0115814208984375,-0.190673828125,-0.3628775477409363,0.4673890173435211,0.3760388791561126,102.1255340576172,-53.57785034179688,265.861328125
1700075228,1.076324462890625,-0.0021514892578125,-0.181396484375,-0.1187767162919044,0.4182044267654419,0.3586124777793884,102.02311706542967,-53.82763671875,266.458251953125
1700075228,1.017120361328125,-0.0181732177734375,-0.1337127685546875,0.1053812801837921,0.397455483675003,0.3333374857902527,102.35560607910156,-54.26701354980469,266.3909912109375
1700075228,0.9753265380859376,-0.0591278076171875,-0.108551025390625,0.2399614602327346,0.370926946401596,0.3306207954883575,102.3953094482422,-54.24703979492188,266.3981018066406
1700075228,0.949920654296875,-0.1014404296875,-0.138671875,0.2754803001880646,0.3261530697345733,0.3499894440174103,102.60476684570312,-54.53654479980469,266.301025390625
1700075228,0.95159912109375,-0.1178131103515625,-0.1834869384765625,0.1664390414953231,0.2856578528881073,0.3540171980857849,102.60772705078124,-54.83421325683594,267.0997314453125
1700075228,0.9920501708984376,-0.13427734375,-0.19378662109375,0.0332706049084663,0.2686511576175689,0.3562667667865753,102.64920043945312,-55.0740966796875,266.95477294921875
1700075228,1.0228271484375,-0.126190185546875,-0.1847991943359375,-0.1012749522924423,0.261246770620346,0.358944833278656,102.59225463867188,-55.07508850097656,267.03082275390625
1700075228,1.0372161865234375,-0.0956268310546875,-0.1497344970703125,-0.2132896333932876,0.2688897848129272,0.4013508856296539,103.089111328125,-55.514984130859375,267.09844970703125
1700075228,1.02056884765625,-0.03485107421875,-0.10400390625,-0.2429055869579315,0.2748342156410217,0.4320275783538818,103.24012756347656,-55.77632141113281,267.2569274902344
1700075228,1.005584716796875,0.0103759765625,-0.076873779296875,-0.0768074318766594,0.2964298129081726,0.4414852559566498,102.64704895019533,-55.606964111328125,267.1094970703125
1700075228,1.0000457763671875,0.011627197265625,-0.0535125732421875,0.1207242906093597,0.3306170701980591,0.4386737644672394,102.88688659667967,-55.956298828125,267.92742919921875
1700075228,0.9906463623046876,-0.0195159912109375,-0.0411376953125,0.199286475777626,0.3648088574409485,0.4610123634338379,102.92425537109376,-56.08319091796875,268.31365966796875
1700075228,0.968292236328125,-0.1061553955078125,-0.101104736328125,0.1779092848300933,0.3698142766952514,0.5514886975288391,102.93862915039062,-56.355560302734375,268.78009033203125
1700075228,0.9432220458984376,-0.176116943359375,-0.1820831298828125,0.1549427062273025,0.3504118025302887,0.6562593579292297,102.81857299804688,-56.099212646484375,268.2857666015625
1700075228,0.9499664306640624,-0.213653564453125,-0.1941375732421875,0.1521650403738021,0.3421576023101806,0.7390908598899841,103.14456176757812,-56.62541198730469,268.84307861328125
1700075228,0.9517822265625,-0.2019500732421875,-0.1942291259765625,0.1532265692949295,0.3305094838142395,0.7980263233184814,103.00115966796876,-56.48402404785156,267.9349670410156
1700075228,0.9439697265625,-0.1251220703125,-0.2064056396484375,0.1657812446355819,0.3130476474761963,0.8421485424041748,102.71261596679688,-55.88017272949219,269.177734375
1700075228,0.9662628173828124,-0.045257568359375,-0.1801910400390625,0.1961711049079895,0.3090763390064239,0.8611275553703308,102.87629699707033,-56.392669677734375,268.4961242675781
1700075228,1.0057220458984375,0.0272064208984375,-0.1599273681640625,0.161896750330925,0.2876911759376526,0.863888680934906,102.49432373046876,-55.9478759765625,268.8211669921875
1700075228,1.022125244140625,0.1005706787109375,-0.166046142578125,0.1748034954071045,0.2822471261024475,0.8513766527175903,102.73753356933594,-55.90492248535156,269.01812744140625
1700075228,1.014739990234375,0.13037109375,-0.158233642578125,0.1738724559545517,0.2742187678813934,0.8432473540306091,102.7125244140625,-55.60536193847656,268.9889221191406
1700075228,0.98931884765625,0.1382904052734375,-0.1501312255859375,0.1286921948194503,0.2687547504901886,0.8413365483283997,102.7892608642578,-55.53150939941406,268.7518310546875
1700075228,0.9503021240234376,0.1077423095703125,-0.1622161865234375,0.0735977888107299,0.2771770060062408,0.8465616703033447,102.63124084472656,-55.240570068359375,268.7968444824219
1700075228,0.923187255859375,0.0392913818359375,-0.198944091796875,0.0182863287627697,0.2690311968326568,0.8498077988624573,102.62278747558594,-54.98800659179688,269.0570068359375
1700075228,0.92926025390625,-0.0233154296875,-0.2594757080078125,-0.031958732753992,0.2350460737943649,0.8538144826889038,102.54168701171876,-54.85081481933594,268.2973022460937
1700075228,0.9705047607421876,-0.04547119140625,-0.2718353271484375,-0.0844067558646202,0.1824068278074264,0.8877120018005371,102.58038330078124,-54.829132080078125,268.28399658203125
1700075228,0.98455810546875,0.0204925537109375,-0.27764892578125,-0.1457633227109909,0.1127446591854095,0.8948253393173218,102.4451141357422,-54.2503662109375,268.6832275390625
1700075228,0.9914398193359376,0.123626708984375,-0.2700653076171875,-0.1603454649448394,0.0568286627531051,0.8822402954101562,102.3984832763672,-53.75108337402344,268.7424011230469
1700075228,0.99285888671875,0.20013427734375,-0.2291259765625,-0.1546012908220291,0.0483920350670814,0.8502035140991211,101.90797424316406,-53.67156982421875,268.1781311035156
1700075228,0.9692535400390624,0.235076904296875,-0.1771240234375,-0.1403829455375671,0.0701250284910202,0.8366613388061523,102.01071166992188,-52.98532104492188,268.90167236328125
1700075228,0.9250946044921876,0.2166290283203125,-0.1550140380859375,-0.1094442009925842,0.0941744372248649,0.8279951810836792,101.69192504882812,-52.56950378417969,268.7391357421875
1700075228,0.9093170166015624,0.1559600830078125,-0.156524658203125,-0.1071227267384529,0.1063040718436241,0.842364490032196,101.81706237792967,-52.3251953125,269.0608825683594
1700075228,0.9310150146484376,0.1272125244140625,-0.1222686767578125,-0.1818198710680008,0.1194169446825981,0.8838227391242981,101.7536163330078,-51.91496276855469,268.34539794921875
1700075228,0.9613494873046876,0.142852783203125,-0.132171630859375,-0.2212136089801788,0.1248929351568222,0.906627893447876,101.63117980957033,-51.67439270019531,268.732421875
1700075228,0.9753570556640624,0.14599609375,-0.1880035400390625,-0.2002771645784378,0.1119134873151779,0.9042782187461852,101.67620849609376,-51.70167541503906,268.65447998046875
1700075228,0.987213134765625,0.1417388916015625,-0.1940460205078125,-0.1610812991857528,0.1023506075143814,0.9218130111694336,101.51722717285156,-51.43360900878906,268.7574157714844
1700075228,0.9895477294921876,0.1593475341796875,-0.1880340576171875,-0.140057772397995,0.0675556063652038,0.9415294528007508,101.07632446289062,-50.668212890625,268.81298828125
1700075228,0.9944610595703124,0.1879730224609375,-0.20379638671875,-0.0992815792560577,0.0277543999254703,0.9457476139068604,101.17263793945312,-50.391937255859375,269.5184326171875
1700075228,1.0288848876953125,0.2040557861328125,-0.18951416015625,0.0292526930570602,0.0283570736646652,0.9429606199264526,100.78921508789062,-50.212005615234375,269.6444702148437
1700075228,1.0633392333984375,0.2215576171875,-0.1554412841796875,0.1872977167367935,0.0260366611182689,0.9429568648338318,100.6279754638672,-49.86224365234375,269.3249816894531
1700075228,1.0843353271484375,0.2498931884765625,-0.1296234130859375,0.2785216271877289,0.008379902690649,0.9670294523239136,100.08103942871094,-49.312408447265625,269.56231689453125
1700075228,1.0530548095703125,0.2501220703125,-0.134429931640625,0.2815547287464142,0.0089354384690523,1.042222261428833,100.1968231201172,-49.223968505859375,269.8785400390625
1700075228,1.003662109375,0.2087860107421875,-0.14324951171875,0.2848655581474304,0.0099317263811826,1.130171537399292,99.73406982421876,-49.23487854003906,270.4403076171875
1700075228,0.9934539794921876,0.11517333984375,-0.1435546875,0.2591487467288971,-0.001038899179548,1.2567890882492063,99.83584594726562,-49.04331970214844,270.71221923828125
1700075228,1.0220947265625,0.05682373046875,-0.1831512451171875,0.2748496830463409,-0.0293778628110885,1.3872959613800049,99.28741455078124,-48.58636474609375,271.00762939453125
1700075228,1.111907958984375,0.03778076171875,-0.217987060546875,0.3734420239925384,-0.0764601528644561,1.5175753831863403,99.25074768066406,-48.441925048828125,271.2596740722656
1700075228,1.202362060546875,0.069549560546875,-0.2263946533203125,0.440381109714508,-0.1278205513954162,1.6024298667907717,99.08815002441406,-48.47853088378906,271.577880859375
1700075228,1.2847747802734375,0.1352081298828125,-0.1620941162109375,0.4909175336360931,-0.1343444883823394,1.6793276071548462,99.2084503173828,-48.77812194824219,272.24609375
1700075228,1.32574462890625,0.1860504150390625,-0.087615966796875,0.5223409533500671,-0.1244868040084838,1.775889277458191,99.0552215576172,-48.78358459472656,272.4168395996094
1700075228,1.3397979736328125,0.180267333984375,-0.025177001953125,0.5288974046707153,-0.1453063338994979,1.9193540811538696,99.24197387695312,-48.06910705566406,272.5046081542969
1700075228,1.36572265625,0.142333984375,0.016937255859375,0.4815104305744171,-0.1736876368522644,2.114543199539185,98.85212707519533,-47.83421325683594,272.6568603515625
1700075228,1.4129486083984375,0.0869293212890625,0.0340728759765625,0.3828999698162079,-0.2039741724729538,2.314256191253662,98.74282836914062,-47.27033996582031,272.76171875
1700075228,1.48486328125,0.0053863525390625,0.058807373046875,0.3318855166435241,-0.2538362741470337,2.503427028656006,98.2294921875,-46.29669189453125,271.298583984375
1700075228,1.5863800048828125,-0.0667877197265625,0.0830230712890625,0.2728480398654938,-0.3336562514305115,2.634610414505005,97.54251098632812,-45.058990478515625,270.7679443359375
1700075228,1.77069091796875,-0.1641693115234375,0.063629150390625,0.1652283668518066,-0.3951191008090973,2.712982654571533,96.74781799316406,-43.36041259765625,269.8700866699219
1700075228,2.00360107421875,-0.293487548828125,0.023284912109375,0.001923334901221,-0.5359593033790588,2.764808416366577,96.06967163085938,-42.15989685058594,269.1415405273437
1700075228,2.23675537109375,-0.468048095703125,0.117828369140625,-0.1740144044160843,-0.6162629127502441,2.7712674140930176,94.84066772460938,-40.76966857910156,268.12811279296875
1700075228,2.42803955078125,-0.6927490234375,0.1458892822265625,-0.1721525937318802,-0.4484172165393829,2.7209930419921875,93.68016052246094,-39.38983154296875,267.58917236328125
1700075228,2.3837432861328125,-0.9503173828125,-0.05810546875,-0.2791144549846649,-0.2174489647150039,2.9804821014404297,91.96188354492188,-37.84364318847656,266.4330444335937
1700075228,1.960845947265625,-0.97222900390625,-0.45245361328125,-0.6459484100341797,-0.0360554717481136,3.3092947006225586,91.21287536621094,-36.51710510253906,265.6221923828125
1700075228,1.555755615234375,-0.8936614990234375,-0.9754791259765624,-1.1503782272338867,0.1549006402492523,3.7055318355560303,89.87556457519531,-35.59623718261719,264.7308349609375
1700075228,1.3087158203125,-0.6300201416015625,-1.4245758056640625,-1.6195968389511108,-0.0647228062152862,3.787464141845703,88.2567138671875,-34.61549377441406,264.31854248046875
1700075228,1.1464080810546875,-0.4371185302734375,-1.512115478515625,-2.2176859378814697,-0.1607353538274765,3.553326368331909,86.87034606933594,-33.745330810546875,264.26678466796875
1700075228,1.198150634765625,-0.3268280029296875,-1.5911102294921875,-2.796505928039551,-0.0668778344988823,3.479465246200561,85.87489318847656,-32.680999755859375,263.9568176269531
1700075228,1.1444244384765625,-0.0722198486328125,-1.6193389892578125,-2.944027900695801,-0.0958514288067817,3.4671318531036377,84.76496887207031,-31.602523803710938,263.1441955566406
1700075228,0.959716796875,0.158599853515625,-1.44775390625,-2.99782943725586,-0.3293518126010895,3.2341089248657227,83.15838623046875,-30.680160522460938,262.8695678710937
1700075228,0.934356689453125,0.303375244140625,-1.112060546875,-2.961742401123047,-0.6412042379379272,2.933951139450073,82.02801513671875,-29.958724975585938,263.468994140625
1700075228,0.9779205322265624,0.5799102783203125,-0.6185455322265625,-3.1245105266571045,-0.6446051001548767,2.6545004844665527,80.9586181640625,-29.380172729492188,263.11376953125
1700075228,0.931610107421875,1.0137176513671875,-0.360992431640625,-3.2382702827453613,-0.5824607610702515,1.95606541633606,79.65113830566406,-28.515350341796875,262.7354431152344
1700075228,0.9558868408203124,0.995086669921875,-0.2499542236328125,-2.4473094940185547,-0.736182689666748,1.2609319686889648,78.77497863769531,-28.048416137695312,262.4491577148437
1700075228,0.9200897216796876,0.3870086669921875,-0.1076202392578125,-1.8301074504852293,-0.9231112599372864,0.9137443900108336,77.55908203125,-27.41510009765625,262.68316650390625
1700075228,0.7450714111328125,0.0760650634765625,-0.2686767578125,-1.71208393573761,-1.100366711616516,0.974767804145813,76.82170104980469,-26.909652709960938,261.9202880859375
1700075228,0.53375244140625,0.0774688720703125,-0.5190887451171875,-1.923046827316284,-1.269307017326355,1.1352070569992063,76.25802612304688,-26.675567626953125,261.7495422363281
1700075228,0.48431396484375,0.0838165283203125,-0.705352783203125,-2.329244375228882,-1.4512137174606323,1.1154860258102417,75.93305969238281,-26.363601684570312,261.5669250488281
1700075228,0.547149658203125,0.042694091796875,-0.8643646240234375,-2.890765905380249,-1.5959192514419556,0.8903703689575195,75.38978576660156,-26.166519165039062,260.1743469238281
1700075228,0.631256103515625,0.0117645263671875,-0.9457855224609376,-3.3888657093048096,-1.6854795217514038,0.5987364053726196,75.179931640625,-25.50567626953125,260.2589111328125
1700075228,0.70745849609375,0.0122833251953125,-0.906982421875,-3.638806819915772,-1.784179925918579,0.4319159984588623,75.33706665039062,-25.619842529296875,259.53125
1700075228,0.7177276611328125,0.0766448974609375,-0.84405517578125,-3.725234031677246,-1.9229484796524048,0.3515681624412536,75.64959716796875,-25.6328125,258.0849304199219
1700075228,0.6508331298828125,0.2244720458984375,-0.9174957275390624,-3.747124433517456,-2.083700656890869,0.2341392636299133,75.85617065429688,-25.792633056640625,257.266845703125
1700075228,0.5493927001953125,0.416778564453125,-1.0459747314453125,-3.670504093170166,-2.224302291870117,0.0215433742851018,76.59576416015625,-26.04742431640625,256.5863037109375
1700075228,0.4947052001953125,0.575897216796875,-1.0731964111328125,-3.5081701278686523,-2.3131980895996094,-0.2394999414682388,77.12059020996094,-25.741226196289062,255.60400390625
1700075229,0.4613189697265625,0.67010498046875,-1.000152587890625,-3.252166271209717,-2.3527510166168213,-0.489542543888092,78.24739074707031,-26.41157531738281,254.8435821533203
1700075229,0.4397430419921875,0.6806793212890625,-0.9039154052734376,-2.883103847503662,-2.40067720413208,-0.7003213167190552,79.30085754394531,-26.808273315429688,253.7727203369141
1700075229,0.4465789794921875,0.597137451171875,-0.8608551025390625,-2.571986198425293,-2.459466457366944,-0.8415101766586304,80.72140502929688,-27.594284057617188,252.9438934326172
1700075229,0.4554901123046875,0.5041046142578125,-0.8953704833984375,-2.40406346321106,-2.511309862136841,-0.9444139003753662,81.92539978027344,-27.951644897460938,252.77996826171875
1700075229,0.458587646484375,0.4312744140625,-0.9293670654296876,-2.3461151123046875,-2.544013261795044,-1.0296779870986938,83.28504943847656,-28.327651977539062,251.82736206054688
1700075229,0.4331512451171875,0.382293701171875,-0.9550323486328124,-2.3063337802886963,-2.5509591102600098,-1.1290063858032229,85.11994934082031,-29.116714477539062,251.8425445556641
1700075229,0.3911285400390625,0.339569091796875,-0.960174560546875,-2.2185609340667725,-2.5549116134643555,-1.251147985458374,86.95355224609375,-29.790573120117188,251.26377868652344
1700075229,0.355438232421875,0.3107757568359375,-0.937286376953125,-2.137724637985229,-2.537449836730957,-1.3943792581558228,89.19601440429688,-30.64643859863281,250.88772583007807
1700075229,0.329254150390625,0.2863006591796875,-0.9121551513671876,-2.112394332885742,-2.509473323822021,-1.5335794687271118,90.91302490234376,-32.05311584472656,250.7263946533203
1700075229,0.33056640625,0.262847900390625,-0.8953857421875,-2.1489744186401367,-2.4764204025268555,-1.6818344593048096,93.51017761230467,-33.41963195800781,251.036849975586
1700075229,0.3526763916015625,0.2310638427734375,-0.905364990234375,-2.230021715164185,-2.430257797241211,-1.8506956100463867,95.2267608642578,-34.812835693359375,251.09860229492188
1700075229,0.369873046875,0.190704345703125,-0.914306640625,-2.2918684482574463,-2.38613224029541,-2.009678363800049,97.8307647705078,-36.36616516113281,251.5001983642578
1700075229,0.370513916015625,0.1513214111328125,-0.870635986328125,-2.2977659702301025,-2.3341176509857178,-2.141319513320923,100.04753112792967,-38.49302673339844,251.9172515869141
1700075229,0.361419677734375,0.1368255615234375,-0.8130035400390625,-2.25833797454834,-2.263311624526977,-2.237143993377685,101.90408325195312,-40.42742919921875,251.90879821777344
1700075229,0.356597900390625,0.17205810546875,-0.7822418212890625,-2.2007393836975098,-2.1891210079193115,-2.335702896118164,104.02392578125,-42.20005798339844,252.4356231689453
1700075229,0.3952789306640625,0.2395477294921875,-0.768463134765625,-2.115709066390991,-2.1188714504241943,-2.4518585205078125,105.83795166015624,-44.24592590332031,253.4169921875
1700075229,0.4195709228515625,0.3104248046875,-0.7647705078125,-2.0596275329589844,-2.0385658740997314,-2.5767531394958496,107.77377319335938,-47.45454406738281,253.4646759033203
1700075229,0.3975830078125,0.34130859375,-0.7593536376953125,-2.0367159843444824,-1.929638624191284,-2.670941114425659,109.00131225585938,-49.99565124511719,254.24609375
1700075229,0.3542633056640625,0.3400421142578125,-0.75189208984375,-2.06521224975586,-1.8133876323699951,-2.6969151496887207,110.22686767578124,-52.67948913574219,254.4452209472656
1700075229,0.339752197265625,0.33087158203125,-0.7492218017578125,-2.0579943656921387,-1.712754487991333,-2.6269350051879883,111.60777282714844,-55.74623107910156,255.9560394287109
1700075229,0.36627197265625,0.369598388671875,-0.7624359130859375,-1.950382828712464,-1.6496328115463257,-2.546804428100586,112.79788208007812,-58.56990051269531,257.251708984375
1700075229,0.40252685546875,0.490478515625,-0.815460205078125,-1.7390120029449463,-1.5979235172271729,-2.564594268798828,113.4522705078125,-61.04953002929688,258.6108093261719
1700075229,0.4600067138671875,0.614837646484375,-0.852996826171875,-1.5506449937820437,-1.4719626903533936,-2.586507558822632,113.23751831054688,-64.12031555175781,259.7977600097656
1700075229,0.4685211181640625,0.748931884765625,-0.855010986328125,-1.3171344995498655,-1.293264627456665,-2.555116415023804,113.99114990234376,-66.81809997558594,260.6883544921875
1700075229,0.4644927978515625,0.8361663818359375,-0.8173370361328125,-1.0655933618545532,-1.0962178707122805,-2.416389942169189,114.10220336914062,-69.54421997070312,261.67822265625
1700075229,0.4809722900390625,0.900543212890625,-0.8351898193359375,-0.8919139504432678,-0.928143322467804,-2.2143187522888184,113.9103546142578,-71.85202026367188,262.80322265625
1700075229,0.5263824462890625,0.938385009765625,-0.8808135986328125,-0.8122068643569946,-0.7855738997459412,-1.9414916038513184,113.89564514160156,-74.38069152832031,263.434326171875
1700075229,0.610504150390625,0.9517974853515624,-0.89544677734375,-0.804555356502533,-0.6323997974395752,-1.592531442642212,113.96762084960938,-76.18621826171875,265.42095947265625
1700075229,0.6576690673828125,0.998504638671875,-0.920745849609375,-0.8161765933036804,-0.4955679476261139,-1.2612831592559814,112.96612548828124,-77.96466064453125,265.6533508300781
1700075229,0.7012176513671875,1.0330810546875,-0.8858795166015625,-0.8079327344894409,-0.365744411945343,-0.970070779323578,112.59568786621094,-79.78639221191406,265.8670654296875
1700075229,0.733245849609375,1.0428619384765625,-0.8118133544921875,-0.7290206551551819,-0.2457325309514999,-0.6363410353660583,112.16056823730467,-80.99455261230469,266.59088134765625
1700075229,0.7222747802734375,1.07000732421875,-0.760040283203125,-0.5683587789535522,-0.128847986459732,-0.3107711970806122,111.52384948730467,-81.98152160644531,267.04852294921875
1700075229,0.708251953125,1.107635498046875,-0.76849365234375,-0.4985064566135406,-0.0280039384961128,-0.0503601096570491,111.58258056640624,-82.62782287597656,267.791259765625
1700075229,0.7096405029296875,1.1550445556640625,-0.7609405517578125,-0.4435526728630066,0.0539732202887535,0.1147380322217941,110.96685791015624,-83.33528137207031,267.5470275878906
1700075229,0.7091064453125,1.173583984375,-0.65386962890625,-0.1679325401782989,0.1905097663402557,0.1845618486404419,110.8105010986328,-83.50473022460938,267.6469116210937
1700075229,0.6711578369140625,1.08660888671875,-0.559478759765625,0.1601446568965912,0.3179801106452942,0.3292261064052582,110.56385803222656,-83.59223937988281,267.9290771484375
1700075229,0.5506439208984375,1.0000152587890625,-0.6113433837890625,0.1900964379310608,0.3366821408271789,0.5676879286766052,110.74162292480467,-83.38137817382812,267.46905517578125
1700075229,0.451446533203125,1.0327606201171875,-0.592315673828125,0.1200699508190155,0.3535636663436889,0.6656333804130554,110.32333374023438,-82.73797607421875,267.8102111816406
1700075229,0.4827880859375,0.9075927734375,-0.472625732421875,0.0643531531095504,0.4055736064910888,0.6530629992485046,110.59063720703124,-82.45550537109375,266.9673767089844
1700075229,0.496368408203125,0.6639862060546875,-0.4388275146484375,-0.2404080778360366,0.8443610668182373,0.5249063968658447,110.39274597167967,-82.01254272460938,266.637939453125
1700075229,0.3708343505859375,0.4640350341796875,-0.9019775390625,-0.5648149251937866,0.7086679339408875,0.2763189375400543,110.28082275390624,-80.95138549804688,266.3705444335937
1700075229,0.504608154296875,0.193511962890625,-0.92388916015625,1.1360254287719729,-0.3572414815425873,0.3811761140823364,110.30165100097656,-80.75784301757812,265.4062194824219
1700075229,2.1407470703125,0.009124755859375,0.9241180419921876,1.310893416404724,-0.1397424489259719,1.3789438009262085,110.31695556640624,-81.16050720214844,265.5960388183594
1700075229,4.342544555664063,0.367950439453125,1.0724334716796875,-0.2940814197063446,0.7537070512771606,1.562727451324463,109.78807067871094,-81.40667724609375,265.7928161621094
1700075229,4.2879638671875,0.0034332275390625,-0.168426513671875,-0.71205735206604,0.2116885483264923,1.8904012441635127,110.12301635742188,-81.25779724121094,265.249267578125
1700075229,1.5988922119140625,0.0725555419921875,-0.1681060791015625,-0.5263926982879639,-0.3136713802814483,1.7040451765060425,110.01959228515624,-79.84587097167969,264.7987670898437
1700075229,-0.2887725830078125,0.1485443115234375,-0.7789459228515625,0.2765900492668152,-0.1038739308714866,0.9814382195472716,109.96978759765624,-78.25228881835938,264.2117614746094
1700075229,-0.845245361328125,0.1384124755859375,-0.5028228759765625,0.3083461225032806,0.7043980956077576,0.7289173007011414,109.9686279296875,-76.91007995605469,262.8248291015625
1700075229,-0.118133544921875,0.4753875732421875,0.0807647705078125,0.2583521902561188,0.598706841468811,0.5397918820381165,110.00372314453124,-76.18968200683594,262.87457275390625
1700075229,1.006072998046875,0.6853485107421875,0.164825439453125,0.2883377969264984,0.4061413705348968,0.3633393347263336,109.7965850830078,-75.62651062011719,262.522216796875
1700075229,1.607391357421875,0.6042327880859375,-0.18133544921875,0.4611644148826599,0.4043855667114258,0.2496772110462188,109.82492065429688,-75.0797119140625,261.8902587890625
1700075229,1.633087158203125,0.523468017578125,-0.3448944091796875,0.5980956554412842,0.4461122453212738,0.0252821873873472,109.69767761230467,-74.40011596679688,261.0426940917969
1700075229,1.3944244384765625,0.2997589111328125,-0.35638427734375,0.5164772272109985,0.4530929028987884,-0.0639888346195221,109.60359191894533,-74.20219421386719,260.03826904296875
1700075229,1.0262908935546875,0.08917236328125,-0.29296875,0.2412421852350235,0.4768978357315063,0.0077162426896393,109.2853546142578,-73.7445068359375,259.52593994140625
1700075229,0.847686767578125,-0.0342559814453125,-0.2985076904296875,-0.0532232746481895,0.4898168444633484,0.1082364618778228,109.34048461914062,-73.8031005859375,258.86737060546875
1700075229,0.8414154052734375,-0.113037109375,-0.433349609375,-0.1260929554700851,0.3710672855377197,0.2790201902389526,109.36102294921876,-73.30821228027344,259.275390625
1700075229,0.894378662109375,-0.073394775390625,-0.4733123779296875,-0.1510574221611023,0.2282006740570068,0.258707731962204,109.234375,-72.77685546875,258.8330078125
1700075229,0.977569580078125,0.0206298828125,-0.4374542236328125,-0.1695972830057144,0.1335841566324234,0.1393962353467941,109.01223754882812,-72.27439880371094,258.1630859375
1700075229,1.0042724609375,0.1705780029296875,-0.4037017822265625,-0.0898270905017852,0.0980250984430313,0.0022905848454684,108.84049987792967,-71.8037109375,258.2242431640625
1700075229,0.976806640625,0.2871551513671875,-0.3457794189453125,0.0307672340422868,0.0814943239092826,-0.141717180609703,108.82560729980467,-71.53373718261719,257.92242431640625
1700075229,0.9893035888671876,0.2776336669921875,-0.2958221435546875,0.0866635218262672,0.0716568753123283,-0.2485807836055755,108.77035522460938,-71.48443603515625,257.2157897949219
1700075229,0.9619293212890624,0.2230224609375,-0.3293609619140625,0.0565572865307331,0.0348964631557464,-0.2850740849971771,108.67637634277344,-71.24653625488281,257.044921875
1700075229,0.9328460693359376,0.14422607421875,-0.3559722900390625,-0.0042709112167358,-0.0199026018381118,-0.2561934292316437,109.11589050292967,-70.92912292480469,256.7095947265625
1700075229,0.938323974609375,0.091156005859375,-0.34210205078125,-0.062980830669403,-0.0595256462693214,-0.2186806797981262,108.57814025878906,-70.98930358886719,256.207763671875
1700075229,0.9752197265625,0.0753173828125,-0.3125152587890625,-0.0836847797036171,-0.0531202107667923,-0.19654181599617,108.7642059326172,-70.7332763671875,255.7703552246093
1700075229,0.990478515625,0.09832763671875,-0.3005828857421875,-0.050910584628582,-0.039038211107254,-0.2104115635156631,108.5639190673828,-70.60295104980469,255.39097595214844
1700075229,0.9806060791015624,0.140838623046875,-0.284759521484375,0.0176208056509494,-0.0357979461550712,-0.247558131814003,108.59494018554688,-70.21006774902344,255.56500244140625
1700075229,0.972564697265625,0.183563232421875,-0.2539520263671875,0.0727072283625602,-0.0426097773015499,-0.3076781928539276,108.74371337890624,-70.05267333984375,255.19715881347656
1700075229,0.9853057861328124,0.2089691162109375,-0.229644775390625,0.0823835581541061,-0.0402741841971874,-0.4016510248184204,109.05296325683594,-69.82791137695312,255.2343597412109
1700075229,1.0152587890625,0.181976318359375,-0.22601318359375,0.074782095849514,-0.0196906141936779,-0.4566362500190735,108.0792236328125,-69.64300537109375,255.6321563720703
1700075229,0.991973876953125,0.1201171875,-0.2670135498046875,0.096100702881813,-0.0334972403943538,-0.4330419600009918,108.56358337402344,-69.55104064941406,255.4485015869141
1700075229,0.9552001953125,0.049713134765625,-0.311676025390625,0.0804184079170227,-0.0872656628489494,-0.3731874227523803,108.00309753417967,-69.04495239257812,255.5217437744141
1700075229,0.9484405517578124,0.0040283203125,-0.351104736328125,0.0113440006971359,-0.1343772560358047,-0.3581661283969879,108.1309814453125,-69.13157653808594,255.09783935546875
1700075229,0.9579010009765624,-0.01727294921875,-0.351776123046875,-0.0398699194192886,-0.1457004696130752,-0.3566468060016632,108.12657165527344,-69.0770263671875,254.7522430419922
1700075229,0.951934814453125,0.006500244140625,-0.3203125,-0.0396704487502574,-0.1329857409000396,-0.3498658537864685,107.91143798828124,-68.94395446777344,254.89898681640625
1700075229,0.9445648193359376,0.0467376708984375,-0.2978973388671875,-0.0032740901224315,-0.1405240893363952,-0.3624634146690368,108.27105712890624,-68.60040283203125,254.53765869140625
1700075229,0.96051025390625,0.06396484375,-0.279571533203125,0.0646450370550155,-0.1479393988847732,-0.3742753267288208,108.01123046875,-68.46560668945312,254.3222503662109
1700075229,0.9627685546875,0.0751190185546875,-0.2816619873046875,0.095972865819931,-0.170991450548172,-0.3718446493148803,108.04426574707033,-68.02780151367188,254.4030914306641
1700075229,0.959442138671875,0.084136962890625,-0.2708892822265625,0.0564542226493358,-0.1594825983047485,-0.3724673092365265,107.74494934082033,-67.86634826660156,253.861557006836
1700075229,0.9713897705078124,0.0722503662109375,-0.2639007568359375,0.0505800880491733,-0.1498938947916031,-0.3991780281066894,107.76577758789062,-67.40934753417969,253.9354248046875
1700075229,0.9813995361328124,0.02423095703125,-0.25555419921875,0.1043794006109237,-0.145586758852005,-0.3707697987556457,107.341552734375,-66.89530944824219,253.5606842041016
1700075229,0.9691162109375,0.000579833984375,-0.268035888671875,0.0965233445167541,-0.1445579826831817,-0.280827134847641,107.31976318359376,-66.3404541015625,253.72830200195312
1700075229,0.95184326171875,0.04833984375,-0.2963714599609375,0.0631446167826652,-0.1639330089092254,-0.3013119101524353,107.14505004882812,-66.03988647460938,253.18276977539065
1700075229,0.969573974609375,0.026092529296875,-0.2639923095703125,0.0928841307759285,-0.1367274820804596,-0.3233855068683624,106.8673095703125,-65.65191650390625,253.51138305664065
1700075229,0.9700775146484376,0.0115966796875,-0.240753173828125,0.0535841323435306,-0.1048521101474762,-0.28765469789505,106.9249267578125,-65.08729553222656,253.2624969482422
1700075229,0.946197509765625,0.0439910888671875,-0.2611236572265625,0.0744476020336151,-0.0731778070330619,-0.1871539056301117,106.68296813964844,-64.47372436523438,253.32872009277344
1700075229,0.953338623046875,0.04473876953125,-0.2466888427734375,0.1846500039100647,-0.0898569151759147,-0.1754221469163894,106.60079956054688,-64.2945556640625,253.17575073242188
1700075229,0.97747802734375,-0.04046630859375,-0.2095794677734375,0.1625156700611114,-0.0676576048135757,-0.1330816149711609,106.58522033691406,-64.033203125,252.94911193847656
1700075229,0.97393798828125,-0.084320068359375,-0.2781524658203125,0.1428663432598114,-0.087137296795845,-0.0804290622472763,106.6400146484375,-63.34638977050781,252.96920776367188
1700075229,0.944427490234375,-0.1036224365234375,-0.30126953125,0.1246218234300613,-0.1099004000425338,-0.0567716695368289,106.2951202392578,-63.101806640625,251.8972625732422
1700075229,0.9527130126953124,-0.120697021484375,-0.2785186767578125,0.0700451284646987,-0.0799986943602562,-0.0081657841801643,106.17025756835938,-62.43479919433594,252.2117919921875
1700075229,0.94342041015625,-0.1009063720703125,-0.2663116455078125,0.095403753221035,-0.0123120602220296,0.079824261367321,106.21527099609376,-62.15605163574219,252.2953948974609
1700075229,0.937744140625,-0.0684051513671875,-0.213897705078125,0.2221949845552444,-0.0029819414485245,0.1263946890830993,106.1060028076172,-61.40200805664063,252.4264068603516
1700075229,0.9430389404296876,-0.0646820068359375,-0.129547119140625,0.2162468135356903,0.0587029941380023,0.1876615136861801,105.783203125,-60.866943359375,252.1614532470703
1700075229,0.9323272705078124,-0.05865478515625,-0.1754608154296875,0.1873821467161178,0.0725583583116531,0.253549188375473,105.62554931640624,-61.046783447265625,251.78854370117188
1700075229,0.8939666748046875,-0.0206756591796875,-0.2912139892578125,0.1468184739351272,0.02937120385468,0.2687358558177948,105.58908081054688,-60.717041015625,252.34527587890625
1700075229,0.92828369140625,-0.0107574462890625,-0.294403076171875,0.1044166833162307,0.0221742782741785,0.2695910036563873,105.21119689941406,-60.272369384765625,252.1018981933593
1700075229,0.9662322998046876,0.00677490234375,-0.2482757568359375,0.0715998858213424,0.0634796395897865,0.2843041718006134,105.22801208496094,-59.71119689941406,251.69679260253903
1700075229,0.9747161865234376,0.0109405517578125,-0.1986236572265625,0.086586557328701,0.1008065044879913,0.3279195427894592,105.1092529296875,-59.11572265625,251.63619995117188
1700075229,0.9544677734375,-0.00994873046875,-0.24383544921875,0.1185226514935493,0.0790577977895736,0.3850374221801758,105.03311157226562,-59.28985595703125,251.6774139404297
1700075230,0.9433746337890624,-0.0051116943359375,-0.260772705078125,0.0596936903893947,0.0899080485105514,0.4362180531024933,104.68600463867188,-59.02359008789063,251.7774658203125
1700075230,0.9829254150390624,0.00262451171875,-0.2196502685546875,0.0052275187335908,0.1358595639467239,0.4682042300701141,104.32838439941406,-58.103546142578125,252.0900421142578
1700075230,0.9920501708984376,-0.0162353515625,-0.2205810546875,0.0095016257837414,0.1554963886737823,0.5154319405555725,104.19566345214844,-58.10362243652344,251.95773315429688
1700075230,0.987457275390625,-0.030792236328125,-0.2466583251953125,0.0423890016973018,0.1473694741725921,0.5661278367042542,104.20005798339844,-57.85015869140625,251.5827178955078
1700075230,0.99188232421875,-0.009613037109375,-0.2570037841796875,0.0879266560077667,0.1462608128786087,0.6062856912612915,104.02523803710938,-57.19622802734375,251.78790283203125
1700075230,1.0063323974609375,0.0261077880859375,-0.2310333251953125,0.1170499250292778,0.1595369279384613,0.6166349649429321,103.66957092285156,-56.31178283691406,251.2161560058593
1700075230,1.013519287109375,0.0618743896484375,-0.2193145751953125,0.1629284620285034,0.1695586740970611,0.6090553402900696,103.403564453125,-56.20082092285156,252.0633239746093
1700075230,1.0406494140625,0.0611724853515625,-0.2352142333984375,0.1981998980045318,0.1441414654254913,0.6232995390892029,103.10287475585938,-55.698577880859375,252.5335998535156
1700075230,1.08880615234375,0.04425048828125,-0.264495849609375,0.2917932271957397,0.1240566968917846,0.6369538307189941,102.68978881835938,-55.167877197265625,252.07167053222656
1700075230,1.12445068359375,0.014984130859375,-0.2843170166015625,0.3702741861343384,0.0804591551423072,0.6681599617004395,102.46533203125,-54.70628356933594,252.65338134765625
1700075230,1.1654815673828125,0.037017822265625,-0.2777557373046875,0.3897701203823089,-0.0057343184016644,0.694789707660675,102.29646301269533,-54.07200622558594,252.78863525390625
1700075230,1.242095947265625,0.0855560302734375,-0.2304229736328125,0.3561796844005584,-0.0437373593449592,0.701600193977356,101.92942810058594,-52.96574401855469,252.810791015625
1700075230,1.333099365234375,0.1019134521484375,-0.1734161376953125,0.3162796795368194,-0.0272641107439994,0.6800762414932251,101.41590881347656,-52.579620361328125,252.63800048828125
1700075230,1.3600616455078125,0.109375,-0.1763153076171875,0.3489068448543548,-0.0520938262343406,0.643317461013794,101.37803649902344,-51.97554016113281,252.83316040039065
1700075230,1.402679443359375,0.1109466552734375,-0.1552886962890625,0.4104644954204559,-0.1035373136401176,0.6164336204528809,100.59646606445312,-50.682220458984375,252.8392639160156
1700075230,1.4657745361328125,0.0987701416015625,-0.1223297119140625,0.4859485924243927,-0.1490009278059005,0.5876046419143677,100.05339050292967,-49.79933166503906,252.9467163085937
1700075230,1.5083465576171875,0.06103515625,-0.1070404052734375,0.6373210549354553,-0.211634486913681,0.5434510111808777,99.83279418945312,-48.84364318847656,252.96844482421875
1700075230,1.5546112060546875,-0.001312255859375,-0.0585479736328125,0.7867238521575928,-0.2696061730384826,0.5357673168182373,99.45509338378906,-48.066986083984375,253.66696166992188
1700075230,1.607269287109375,-0.012939453125,0.04010009765625,0.8837958574295044,-0.3687610030174255,0.536476731300354,98.61907958984376,-46.64219665527344,253.28135681152344
1700075230,1.5877532958984375,-0.011962890625,0.161346435546875,0.838025689125061,-0.3575602769851684,0.5853945016860962,97.53131103515624,-45.68907165527344,253.4493103027344
1700075230,1.5556793212890625,-0.0388336181640625,0.145965576171875,0.4987331032752991,-0.3052568435668945,0.7091502547264099,97.1256866455078,-44.74615478515625,254.2014923095703
1700075230,1.4322509765625,-0.0835723876953125,0.00311279296875,0.090889424085617,-0.2075731605291366,0.8208110332489014,95.90907287597656,-43.42007446289063,254.04544067382807
1700075230,1.212554931640625,-0.26556396484375,-0.0897369384765625,-0.375532329082489,0.0719168037176132,0.929799258708954,95.21505737304688,-42.61466979980469,253.9478912353516
1700075230,1.0502471923828125,-0.37152099609375,-0.32098388671875,-0.7570186853408813,0.453347235918045,1.1568318605422974,94.04083251953124,-41.48670959472656,254.0851287841797
1700075230,0.9279022216796876,-0.325927734375,-0.609771728515625,-1.127548336982727,0.7243713140487671,1.6767842769622805,92.74647521972656,-40.50910949707031,253.61138916015625
1700075230,0.889007568359375,-0.1331939697265625,-0.87030029296875,-1.427249789237976,0.9150869250297546,2.360020637512207,91.73731994628906,-39.727325439453125,253.7108154296875
1700075230,1.045196533203125,0.0618133544921875,-1.06329345703125,-1.3746070861816406,0.9573978781700134,2.9225666522979736,89.80152893066406,-38.56135559082031,253.00149536132807
1700075230,1.232696533203125,0.2927398681640625,-1.089874267578125,-0.93949955701828,0.8031044602394104,3.070736885070801,88.50997924804688,-38.20396423339844,252.2147521972656
1700075230,1.3776092529296875,0.4457244873046875,-0.913604736328125,-0.4776991903781891,0.7800430655479431,3.0276269912719727,87.16230773925781,-38.081298828125,250.8419342041016
1700075230,1.4356536865234375,0.6145782470703125,-0.737884521484375,-0.0065527078695595,0.9036020040512084,2.937554121017456,85.75343322753906,-37.7694091796875,249.6587371826172
1700075230,1.419769287109375,0.838775634765625,-0.5132904052734375,0.507932722568512,1.0837606191635132,2.7654058933258057,84.68034362792969,-37.703125,248.53993225097656
1700075230,1.48663330078125,1.032073974609375,-0.2796783447265625,1.0253889560699463,1.396601915359497,2.5475914478302,83.20823669433594,-38.0697021484375,247.2040863037109
1700075230,1.551544189453125,1.0664825439453125,-0.2746124267578125,1.6388208866119385,1.4947577714920044,2.3937487602233887,82.48896789550781,-38.76594543457031,246.49264526367188
1700075230,1.5351409912109375,0.8592376708984375,-0.3194732666015625,2.1134397983551025,1.440924882888794,2.25179409980774,81.77099609375,-39.21769714355469,245.140625
1700075230,1.546722412109375,0.5685577392578125,-0.4066162109375,2.2972328662872314,1.2858718633651731,2.22500228881836,80.90786743164062,-39.997802734375,244.8514709472656
1700075230,1.5181121826171875,0.4083099365234375,-0.4817962646484375,2.1437530517578125,1.0958220958709717,2.324908971786499,80.53469848632812,-40.49378967285156,244.0758514404297
1700075230,1.4806060791015625,0.32049560546875,-0.520843505859375,1.8117657899856567,0.9453433752059937,2.412529945373535,80.5885009765625,-41.22877502441406,244.29562377929688
1700075230,1.4499053955078125,0.2154388427734375,-0.534912109375,1.4102686643600464,0.8342088460922241,2.4011237621307373,80.18304443359375,-41.9163818359375,243.4079742431641
1700075230,1.388397216796875,0.09375,-0.489410400390625,0.9739276170730592,0.7956079244613647,2.293440580368042,79.89823913574219,-42.69169616699219,243.55517578125
1700075230,1.305419921875,-0.013336181640625,-0.441314697265625,0.5572957396507263,0.7727524042129517,2.193788290023804,79.56840515136719,-43.48190307617188,243.0145874023437
1700075230,1.1819610595703125,-0.059356689453125,-0.375885009765625,0.1497056037187576,0.7593252658843994,2.155885696411133,79.367919921875,-44.939544677734375,242.2714385986328
1700075230,1.030792236328125,-0.0449066162109375,-0.3448638916015625,-0.2528916299343109,0.7439236640930176,2.0182576179504395,79.63671875,-45.68263244628906,241.19708251953125
1700075230,0.9564971923828124,-0.0542755126953125,-0.3408660888671875,-0.5952942371368408,0.6720460057258606,1.7510942220687866,79.95126342773438,-47.32440185546875,241.20474243164065
1700075230,0.939361572265625,-0.0644989013671875,-0.29742431640625,-0.8797377347946167,0.5692365765571594,1.481360673904419,80.07987976074219,-48.73501586914063,241.13526916503903
1700075230,0.875885009765625,-0.0365447998046875,-0.2843017578125,-1.1236209869384766,0.5241883993148804,1.2068474292755127,80.35426330566406,-49.79908752441406,240.53469848632807
1700075230,0.767333984375,-0.01715087890625,-0.282745361328125,-1.256971001625061,0.4770975708961487,0.8603286147117615,80.78927612304688,-51.19984436035156,240.1508026123047
1700075230,0.66815185546875,-0.05084228515625,-0.2180023193359375,-1.2531083822250366,0.3885629177093506,0.543574869632721,80.95036315917969,-52.36128234863281,240.294921875
1700075230,0.5639495849609375,-0.0557861328125,-0.1305389404296875,-1.161418080329895,0.2821366190910339,0.2628649175167084,81.39572143554688,-53.90509033203125,239.6158142089844
1700075230,0.484893798828125,-0.0523681640625,-0.100311279296875,-1.0929772853851318,0.2405580133199691,0.0378027707338333,81.91535949707031,-54.59281921386719,240.6895904541016
1700075230,0.448699951171875,-0.0453948974609375,-0.130859375,-1.0811285972595217,0.1467119455337524,-0.1908458471298217,82.40983581542969,-55.77409362792969,240.93914794921875
1700075230,0.446044921875,-0.052947998046875,-0.1514739990234375,-1.1277952194213867,0.0468250289559364,-0.4455500543117523,83.15997314453125,-56.92413330078125,241.4176483154297
1700075230,0.453338623046875,-0.0630340576171875,-0.1961517333984375,-1.1249144077301023,-0.0620487220585346,-0.6841040253639221,83.46220397949219,-58.13462829589844,241.8818359375
1700075230,0.4305572509765625,-0.0663604736328125,-0.190399169921875,-1.1281344890594482,-0.165870726108551,-0.9113070964813232,83.93876647949219,-58.76506042480469,242.45700073242188
1700075230,0.3946685791015625,-0.0763702392578125,-0.178253173828125,-1.121791124343872,-0.2460036426782608,-1.114878535270691,84.76759338378906,-59.98748779296875,242.54080200195312
1700075230,0.3521575927734375,-0.0790252685546875,-0.1623077392578125,-1.1082462072372437,-0.3230102658271789,-1.3146487474441528,85.26295471191406,-60.980987548828125,243.20233154296875
1700075230,0.321044921875,-0.0497283935546875,-0.1696014404296875,-1.1355502605438232,-0.4049296379089355,-1.5405797958374023,85.94723510742188,-61.51974487304688,243.9751892089844
1700075230,0.2987518310546875,-0.0007781982421875,-0.216552734375,-1.1590652465820312,-0.4850572347640991,-1.7830039262771606,86.36250305175781,-62.40132141113281,244.58282470703125
1700075230,0.2848663330078125,0.0146026611328125,-0.20477294921875,-1.158178687095642,-0.5731426477432251,-2.009887218475342,86.78291320800781,-63.424224853515625,245.09796142578125
1700075230,0.27288818359375,-0.0044097900390625,-0.18206787109375,-1.1163060665130615,-0.6643872857093811,-2.1783387660980225,87.38534545898438,-64.71696472167969,245.86073303222656
1700075230,0.2353668212890625,0.019500732421875,-0.181121826171875,-1.0191086530685425,-0.7649828791618347,-2.330195426940918,87.82546997070312,-65.59297180175781,246.5603485107422
1700075230,0.1993865966796875,0.0937652587890625,-0.2022247314453125,-0.9303686618804932,-0.8526991605758667,-2.5377321243286133,88.15931701660156,-66.90512084960938,247.54356384277344
1700075230,0.2123565673828125,0.1849365234375,-0.2435760498046875,-0.8426883220672607,-0.8934303522109985,-2.7112154960632324,88.70703125,-67.70135498046875,248.1102905273437
1700075230,0.2350006103515625,0.238525390625,-0.256591796875,-0.8010817766189575,-0.9271278381347656,-2.7913286685943604,88.92547607421875,-68.77069091796875,249.0144805908203
1700075230,0.251556396484375,0.2599029541015625,-0.2669677734375,-0.8452396392822266,-0.955932080745697,-2.7800498008728027,88.98257446289062,-69.54258728027344,248.83238220214844
1700075230,0.2561492919921875,0.3179779052734375,-0.32220458984375,-0.8839311003684998,-0.992245078086853,-2.739467144012451,89.72795104980469,-70.75592041015625,249.73863220214844
1700075230,0.255615234375,0.4266357421875,-0.3737640380859375,-0.8102289438247681,-1.0232278108596802,-2.6788811683654785,89.53768920898438,-72.07780456542969,250.6384735107422
1700075230,0.2867889404296875,0.5650634765625,-0.3989105224609375,-0.6204683184623718,-1.0085526704788208,-2.5625967979431152,89.77857971191406,-73.07318115234375,251.5970458984375
1700075230,0.3078155517578125,0.707855224609375,-0.4382171630859375,-0.4317846894264221,-0.9307875633239746,-2.4003167152404785,89.53399658203125,-73.18218994140625,252.35508728027344
1700075230,0.332427978515625,0.809844970703125,-0.5203094482421875,-0.2658897340297699,-0.854165256023407,-2.173701524734497,89.60195922851562,-74.31729125976562,252.19618225097656
1700075230,0.3708038330078125,0.9155731201171876,-0.6372222900390625,-0.1347080171108245,-0.7926944494247437,-1.9449377059936523,89.55488586425781,-75.21873474121094,252.99386596679688
1700075230,0.414642333984375,1.0216522216796875,-0.7229461669921875,0.0502059124410152,-0.734184741973877,-1.714338779449463,89.67147827148438,-75.97589111328125,254.0730438232422
1700075230,0.4174957275390625,1.1453857421875,-0.757171630859375,0.2208687365055084,-0.6112460494041443,-1.4877514839172363,89.62284851074219,-76.406982421875,254.3381500244141
1700075230,0.3826446533203125,1.2613677978515625,-0.771270751953125,0.4444301724433899,-0.4283540248870849,-1.33273446559906,89.65155029296875,-76.87283325195312,254.90234375
1700075230,0.391632080078125,1.236785888671875,-0.720489501953125,0.5737173557281494,-0.2458017766475677,-0.9441401362419128,89.32388305664062,-77.50190734863281,255.0252227783203
1700075230,0.3296661376953125,1.28125,-0.7590179443359375,0.4588647782802582,-0.170988529920578,-0.4712117314338684,89.46646118164062,-77.611083984375,255.33984375
1700075230,0.278778076171875,1.3739471435546875,-0.795745849609375,-0.0700970590114593,0.3959694504737854,-0.3221897482872009,89.27899169921875,-78.03662109375,255.0844116210937
1700075230,0.3455047607421875,1.3069915771484375,-1.22698974609375,0.2624838054180145,0.8318314552307129,0.1228526830673217,89.17048645019531,-78.2564697265625,255.9704742431641
1700075230,0.1306304931640625,1.5447845458984375,-1.7247161865234375,0.8224640488624573,0.1045442521572113,0.5220820903778076,89.27665710449219,-78.15254211425781,256.482421875
1700075230,0.8505859375,1.7526702880859375,-0.89801025390625,0.2870599925518036,-0.2911689877510071,0.1749137490987777,89.01824951171875,-77.88101196289062,255.98904418945312
1700075230,2.124298095703125,1.1379852294921875,0.076904296875,0.3484530448913574,-0.4294509589672088,-0.2051028162240982,89.10978698730469,-78.12246704101562,256.65771484375
1700075230,2.038909912109375,0.459228515625,0.741424560546875,0.3156101405620575,-0.0979808941483497,0.1435603648424148,89.24880981445312,-77.76435852050781,257.02447509765625
1700075230,1.1758575439453125,0.138519287109375,0.377410888671875,0.1663586199283599,-0.1543075442314148,0.4421483874320984,89.34376525878906,-78.06086730957031,256.6921691894531
1700075230,0.856689453125,0.0532379150390625,-0.44122314453125,-0.0094994958490133,-0.2732067704200744,0.4826950132846832,89.30691528320312,-77.48818969726562,256.34375
1700075230,0.921173095703125,-0.0247650146484375,-0.800384521484375,-0.1915803551673889,-0.257813960313797,0.6512624621391296,89.28129577636719,-76.97137451171875,256.87860107421875
1700075230,0.862213134765625,0.005767822265625,-0.667999267578125,-0.354870468378067,-0.1657143980264663,0.6532747149467468,89.37892150878906,-76.51095581054688,257.0831604003906
1700075230,0.82012939453125,0.0119171142578125,-0.4612274169921875,-0.2403170019388198,-0.0686096847057342,0.5874946713447571,89.06521606445312,-76.32858276367188,257.005126953125
1700075230,0.75616455078125,0.225616455078125,-0.2896270751953125,-0.0874100029468536,-0.0313957408070564,0.4572916626930237,88.89558410644531,-75.92953491210938,256.3834228515625
1700075230,0.7581024169921875,0.4920501708984375,-0.198577880859375,-0.0500490516424179,-0.0287277847528457,0.2544197738170624,89.12486267089844,-75.82136535644531,257.15167236328125
1700075230,1.05841064453125,0.6770172119140625,-0.2037811279296875,-0.2333307266235351,-0.0278310980647802,0.0554683171212673,89.15576171875,-75.74142456054688,257.3104248046875
1700075230,1.28204345703125,0.6649627685546875,-0.269622802734375,-0.355164498090744,-0.0259479768574237,-0.1101637855172157,89.17526245117188,-74.98207092285156,257.2825012207031
1700075230,1.210540771484375,0.4495697021484375,-0.429779052734375,-0.3516078293323517,-0.0731937885284423,-0.1357980519533157,89.44851684570312,-74.2900390625,257.2053527832031
1700075230,1.0575103759765625,0.22381591796875,-0.4605255126953125,-0.2823430001735687,-0.0979212373495101,-0.0358488112688064,89.31083679199219,-73.94258117675781,257.1510925292969
1700075230,0.885040283203125,0.11700439453125,-0.4298553466796875,-0.2922329306602478,-0.1122844666242599,0.0025529062841087,89.48985290527344,-73.71572875976562,256.52667236328125
1700075230,0.85308837890625,0.1431427001953125,-0.407928466796875,-0.354831337928772,-0.1191335842013359,-0.037073865532875,89.60716247558594,-73.68260192871094,256.6710205078125
1700075230,0.924163818359375,0.26849365234375,-0.371368408203125,-0.3384752571582794,-0.1063964813947677,-0.136076882481575,89.493408203125,-73.15138244628906,256.6634521484375
1700075230,0.9962005615234376,0.3277435302734375,-0.360198974609375,-0.2514335513114929,-0.1250188946723938,-0.2296600937843322,89.32395935058594,-72.49600219726562,256.8037109375
1700075230,1.0218048095703125,0.3266143798828125,-0.3831329345703125,-0.1667727380990982,-0.1785484403371811,-0.3046935796737671,89.14773559570312,-72.79981994628906,256.42413330078125
1700075230,1.0102386474609375,0.29327392578125,-0.4150848388671875,-0.1042928472161293,-0.2307123094797134,-0.3582217991352081,89.69587707519531,-72.68440246582031,255.814697265625
1700075230,0.96856689453125,0.2556610107421875,-0.4216156005859375,-0.0732382610440254,-0.2766204178333282,-0.3927371501922607,88.86041259765625,-72.6322021484375,256.2174072265625
1700075231,0.9337310791015624,0.251220703125,-0.4272613525390625,-0.0739272236824035,-0.3280338048934936,-0.4248239994049072,89.04603576660156,-72.41105651855469,255.8014373779297
1700075231,0.930908203125,0.261474609375,-0.4137725830078125,-0.0960064232349395,-0.3580042123794555,-0.4682324528694153,88.89860534667969,-72.35955810546875,255.91500854492188
1700075231,0.95184326171875,0.2568206787109375,-0.39447021484375,-0.1216992735862732,-0.3674424588680267,-0.5034279823303223,88.70217895507812,-72.39585876464844,255.49801635742188
1700075231,0.951995849609375,0.240020751953125,-0.3873291015625,-0.138787180185318,-0.378813624382019,-0.5245974659919739,88.82170104980469,-71.93223571777344,255.7936248779297
1700075231,0.9323577880859376,0.212554931640625,-0.3831024169921875,-0.1261219829320907,-0.3842182457447052,-0.5322335362434387,88.82785034179688,-72.61508178710938,255.2390594482422
1700075231,0.9024505615234376,0.197418212890625,-0.3780975341796875,-0.1462482959032058,-0.3878494501113891,-0.5374709367752075,88.63836669921875,-72.1549072265625,255.71910095214844
1700075231,0.90850830078125,0.1963043212890625,-0.3548583984375,-0.1782608181238174,-0.3752862811088562,-0.5507081747055054,88.7498779296875,-72.17921447753906,255.8472137451172
1700075231,0.939544677734375,0.1893310546875,-0.33099365234375,-0.1432927101850509,-0.3545775115489959,-0.5674937963485718,88.9620361328125,-72.45408630371094,255.5145874023437
1700075231,0.9579315185546876,0.1937408447265625,-0.3160858154296875,-0.0844357907772064,-0.3497081995010376,-0.5773916840553284,88.96897888183594,-72.20130920410156,255.3690948486328
1700075231,0.9675750732421876,0.201934814453125,-0.3337860107421875,-0.0377015732228755,-0.352027028799057,-0.5972716808319092,88.60934448242188,-72.32386779785156,255.77508544921875
1700075231,0.9575347900390624,0.21014404296875,-0.3552703857421875,-0.0037619813811033,-0.3608567416667938,-0.6226624846458435,88.96275329589844,-72.47592163085938,255.844955444336
1700075231,0.93878173828125,0.224151611328125,-0.3426361083984375,-0.0514807663857936,-0.3619102835655212,-0.666630744934082,88.4493408203125,-72.37106323242188,255.75442504882807
1700075231,0.944549560546875,0.21435546875,-0.3225860595703125,-0.0529433749616146,-0.3593011796474457,-0.7149205207824707,88.61833190917969,-72.99726867675781,255.4593811035156
1700075231,0.9577178955078124,0.17779541015625,-0.311981201171875,-0.0396957471966743,-0.3619906902313232,-0.7272374033927917,88.88636779785156,-72.75009155273438,255.77633666992188
1700075231,0.9617156982421876,0.1280975341796875,-0.331451416015625,-0.0151717625558376,-0.3752058446407318,-0.687558650970459,89.09306335449219,-72.87876892089844,255.485595703125
1700075231,0.963165283203125,0.0873870849609375,-0.360382080078125,-0.0158924143761396,-0.3937129378318786,-0.6181758642196655,88.96354675292969,-72.8778076171875,255.9407501220703
1700075231,0.9554443359375,0.0684814453125,-0.3667144775390625,-0.0577860660851001,-0.4076639115810394,-0.569805920124054,88.95643615722656,-73.129638671875,255.37725830078125
1700075231,0.937286376953125,0.0565338134765625,-0.3342742919921875,-0.0918934345245361,-0.385538637638092,-0.5502783060073853,88.43646240234375,-73.14109802246094,255.7921295166016
1700075231,0.93243408203125,0.044464111328125,-0.3004150390625,-0.0550366193056106,-0.3502160608768463,-0.5223273634910583,88.54066467285156,-73.32742309570312,255.9183959960937
1700075231,0.913604736328125,0.048492431640625,-0.2986602783203125,0.0339915230870246,-0.3277184665203094,-0.4978073835372925,88.52372741699219,-73.49092102050781,255.7782440185547
1700075231,0.90283203125,0.0475311279296875,-0.275787353515625,0.0381985194981098,-0.3064217269420624,-0.4447129964828491,88.42814636230469,-73.45083618164062,255.92027282714844
1700075231,0.899658203125,0.082794189453125,-0.273895263671875,0.0096528939902782,-0.2791019380092621,-0.4347554445266723,88.63362121582031,-73.77511596679688,255.7182006835937
1700075231,0.907470703125,0.09368896484375,-0.2550048828125,-0.0103799365460872,-0.2459927201271057,-0.4458959996700287,88.64157104492188,-73.85235595703125,255.57986450195312
1700075231,0.945068359375,0.07232666015625,-0.2503662109375,-0.0387372747063636,-0.2297253459692001,-0.4045754373073578,88.31452941894531,-74.03152465820312,255.457275390625
1700075231,0.9506072998046876,0.0659942626953125,-0.298980712890625,-0.0064594973810017,-0.2421961277723312,-0.3649769127368927,88.23374938964844,-74.30145263671875,255.674057006836
1700075231,0.972900390625,0.021087646484375,-0.28082275390625,0.0287666674703359,-0.2430885434150695,-0.3025678396224975,88.66206359863281,-74.38003540039062,255.87452697753903
1700075231,0.9679718017578124,0.004150390625,-0.289154052734375,0.0700166374444961,-0.2235369533300399,-0.2437111884355545,88.65252685546875,-74.32135009765625,255.70249938964844
1700075231,0.957122802734375,-0.0183258056640625,-0.291229248046875,0.1633266061544418,-0.211128756403923,-0.1981921792030334,88.69357299804688,-74.71446228027344,255.80044555664065
1700075231,0.9554290771484376,-0.0524444580078125,-0.2747955322265625,0.2173597514629364,-0.1921484023332595,-0.1433350592851638,88.67355346679688,-74.65852355957031,256.11749267578125
1700075231,0.9499053955078124,-0.0463714599609375,-0.2721710205078125,0.1909129619598388,-0.1584213376045227,-0.0721053555607795,88.71778869628906,-74.7535400390625,256.36199951171875
1700075231,0.9589996337890624,-0.0207672119140625,-0.2403411865234375,0.1405880004167556,-0.1050451919436454,0.015818377956748,88.7545166015625,-74.90396118164062,256.5433349609375
1700075231,0.9631500244140624,-0.0135650634765625,-0.2253265380859375,0.1745276004076004,-0.0887525081634521,0.0560632683336734,88.70561218261719,-75.02175903320312,256.4669189453125
1700075231,0.9541473388671876,-0.0568084716796875,-0.1998138427734375,0.240959346294403,-0.053061619400978,0.1185439601540565,88.85232543945312,-74.91061401367188,256.19244384765625
1700075231,0.9387664794921876,-0.0837554931640625,-0.19512939453125,0.2394629269838333,-0.0282236486673355,0.1852912902832031,88.79562377929688,-74.83161926269531,256.28631591796875
1700075231,0.9460906982421876,-0.084503173828125,-0.23370361328125,0.250935286283493,-0.0274566579610109,0.2577242255210876,88.975341796875,-75.08505249023438,255.82180786132807
1700075231,0.9494781494140624,-0.0505523681640625,-0.291595458984375,0.2724088728427887,-0.0329717993736267,0.2894920110702514,88.75981140136719,-75.33673095703125,255.9027099609375
1700075231,0.96478271484375,0.0296783447265625,-0.3181610107421875,0.2677771151065826,-0.0504200309514999,0.2878589630126953,88.63111877441406,-74.88589477539062,256.22393798828125
1700075231,1.00042724609375,0.12554931640625,-0.2460784912109375,0.2583745718002319,-0.0264406614005565,0.2523733973503113,88.92210388183594,-75.07254028320312,256.291259765625
1700075231,1.0400543212890625,0.15771484375,-0.1812286376953125,0.3018384277820587,0.023103455081582,0.2378170937299728,88.79098510742188,-74.92930603027344,256.133544921875
1700075231,1.0652923583984375,0.091827392578125,-0.1648101806640625,0.3290945291519165,0.0651957839727401,0.2981462180614471,88.81022644042969,-75.24992370605469,256.38677978515625
1700075231,1.0785369873046875,-0.0318603515625,-0.1908416748046875,0.3384544849395752,0.1137127131223678,0.4450810551643371,88.552001953125,-75.08132934570312,255.7895050048828
1700075231,1.08563232421875,-0.1329803466796875,-0.2355194091796875,0.3838666975498199,0.1006365939974784,0.5864770412445068,88.94549560546875,-74.82777404785156,256.3182373046875
1700075231,1.0622711181640625,-0.1557159423828125,-0.270965576171875,0.320424884557724,0.0669534653425216,0.680072009563446,88.98469543457031,-74.84355163574219,256.47674560546875
1700075231,1.05242919921875,-0.018585205078125,-0.328704833984375,0.2188918590545654,0.0127759827300906,0.656769871711731,89.0264892578125,-74.8800048828125,255.78732299804688
1700075231,1.1067047119140625,0.1350860595703125,-0.2962799072265625,0.3180512189865112,-0.0062496401369571,0.621120810508728,88.79058837890625,-74.8743896484375,256.7194519042969
1700075231,1.126800537109375,0.253753662109375,-0.2502593994140625,0.4382519125938415,-0.0931680276989936,0.5376051068305969,88.77630615234375,-74.72895812988281,256.48712158203125
1700075231,1.186065673828125,0.3076629638671875,-0.1790313720703125,0.5820229053497314,-0.1485668420791626,0.5021379590034485,88.60478210449219,-74.26478576660156,256.15106201171875
1700075231,1.2840576171875,0.275421142578125,-0.1136932373046875,0.6310064792633057,-0.1552338004112243,0.4967397153377533,89.03182983398438,-74.29139709472656,255.7002410888672
1700075231,1.3371429443359375,0.1534881591796875,-0.1365203857421875,0.551944375038147,-0.1885792315006256,0.5261229276657104,88.52604675292969,-74.13731384277344,255.1905975341797
