timestamp,acc-x,acc-y,acc-z,gyr-x,gyr-y,gyr-z,mag-x,mag-y,mag-z
1700075546,0.7399749755859375,0.4262237548828125,-0.3181915283203125,0.5348564982414246,-0.2362357079982757,-0.717879593372345,93.21664428710938,-89.93844604492188,241.5423889160156
1700075546,0.707061767578125,0.3438262939453125,-0.3039398193359375,0.4238745868206024,-0.1031271815299987,-0.4769367277622223,92.45091247558594,-89.9588623046875,241.53282165527344
1700075546,0.7357025146484375,0.254180908203125,-0.2543182373046875,0.2150561213493347,-0.0229971949011087,-0.1709871888160705,91.97184753417967,-89.17018127441406,239.9320526123047
1700075546,0.7786407470703125,0.2018890380859375,-0.2143707275390625,-0.0783965364098548,0.0540943928062915,0.1355493068695068,92.03018188476562,-88.66790771484375,239.21304321289065
1700075546,0.7955474853515625,0.17401123046875,-0.2244873046875,-0.2872437536716461,0.1166826710104942,0.3605403304100036,91.82443237304688,-88.46478271484375,239.3424072265625
1700075546,0.795654296875,0.1309661865234375,-0.247344970703125,-0.4207176566123962,0.2105082422494888,0.5309634804725647,91.92472839355467,-87.82781982421875,239.08108520507807
1700075546,0.7682952880859375,0.105804443359375,-0.3112640380859375,-0.5050626397132874,0.3339247107505798,0.6795223355293274,91.9318389892578,-87.90333557128906,238.6165008544922
1700075546,0.712890625,0.0933990478515625,-0.3809814453125,-0.7113516330718994,0.7899212837219238,0.8059436678886414,91.69635009765624,-87.75082397460938,238.61746215820312
1700075546,0.6142730712890625,0.147247314453125,-0.69677734375,-0.9231687784194946,0.7178465723991394,1.217676043510437,91.34735107421876,-87.23249816894531,238.72442626953125
1700075546,0.4842529296875,0.3868408203125,-0.6403045654296875,-0.9483468532562256,0.701829731464386,1.4647194147109983,91.6560516357422,-86.96513366699219,238.517578125
1700075546,0.79510498046875,0.4398193359375,-0.4694061279296875,-0.3204283416271209,2.6862449645996094,1.6434476375579834,91.47914123535156,-86.25439453125,237.9582061767578
1700075546,0.433380126953125,0.6317901611328125,-1.7819976806640625,0.9671066999435424,3.4038519859313965,2.320035696029663,91.66490173339844,-85.95545959472656,237.8922576904297
1700075546,-0.189056396484375,1.530487060546875,-3.01971435546875,0.0302710868418216,-1.4961636066436768,2.6636343002319336,91.8405303955078,-86.02836608886719,237.80992126464844
1700075546,2.97601318359375,1.22760009765625,1.1339111328125,0.4475681781768799,0.3959909975528717,0.4839227199554443,91.9832000732422,-85.69670104980469,237.8637084960937
1700075546,3.7303619384765625,-1.1409454345703125,0.07666015625,1.8228455781936648,1.906544208526612,-0.6021133065223694,91.9138641357422,-85.8314208984375,237.84527587890625
1700075546,1.8784332275390625,-1.54766845703125,0.8766021728515625,1.4098262786865234,1.7343953847885132,-0.085409440100193,91.89561462402344,-85.71687316894531,238.01687622070312
1700075546,0.980224609375,-0.6746978759765625,0.5311737060546875,0.068079188466072,1.007784128189087,0.8452087640762329,91.91860961914062,-85.52056884765625,238.2520446777344
1700075546,0.605255126953125,-0.3097076416015625,-0.418182373046875,-0.6573725342750549,0.5215026140213013,1.3295190334320068,91.87933349609376,-85.17866516113281,238.15280151367188
1700075546,0.82977294921875,-0.55645751953125,-0.1572418212890625,-0.6093634963035583,0.7800499796867371,1.4199937582015991,92.03793334960938,-85.00184631347656,237.7855224609375
1700075546,1.2923736572265625,-0.734283447265625,0.2755889892578125,-1.136898159980774,0.9742714166641236,1.798215389251709,92.19296264648438,-85.00486755371094,237.8469696044922
1700075546,1.495391845703125,-0.2188568115234375,0.150909423828125,-1.462959885597229,0.9549784064292908,2.087672472000122,91.944580078125,-84.73637390136719,237.61265563964844
1700075546,1.65887451171875,0.0904998779296875,-0.0799560546875,-0.987623691558838,0.9364848732948304,1.832810044288636,91.94035339355467,-84.42410278320312,238.0140686035156
1700075546,1.7162628173828125,0.04620361328125,-0.165069580078125,-0.606777548789978,0.8475198745727539,1.5407148599624634,92.05735778808594,-84.32051086425781,237.72683715820312
1700075546,1.4570770263671875,0.0627593994140625,-0.3147125244140625,-0.2666764259338379,0.7257159352302551,1.3097865581512451,92.23391723632812,-83.87370300292969,237.5739288330078
1700075546,1.1246490478515625,0.1930694580078125,-0.5859527587890625,0.1916794180870056,0.4229709506034851,1.0465794801712036,92.14613342285156,-83.64805603027344,237.5390014648437
1700075546,1.018707275390625,0.3785400390625,-0.620086669921875,0.2765588760375976,0.0369630791246891,0.813369631767273,92.19813537597656,-83.02165222167969,237.89743041992188
1700075546,1.068389892578125,0.599945068359375,-0.5251312255859375,0.0215111505240201,-0.1842934042215347,0.5501712560653687,92.35037231445312,-82.8206787109375,237.429428100586
1700075546,1.100189208984375,0.8352813720703125,-0.3099822998046875,-0.0334754027426242,-0.1656377017498016,0.1882705688476562,92.17872619628906,-82.337890625,237.80953979492188
1700075546,1.090240478515625,0.9648284912109376,-0.0671539306640625,-0.0375748053193092,-0.1225141957402229,-0.1190563514828682,92.33828735351562,-82.25019836425781,237.49745178222656
1700075546,1.1107635498046875,0.809906005859375,-0.0809326171875,-0.05482729524374,-0.0520400330424308,-0.3136916160583496,91.80731201171876,-81.83547973632812,236.84097290039065
1700075546,1.176910400390625,0.3427581787109375,-0.182342529296875,-0.0920178070664405,0.0571343936026096,-0.3176085948944092,92.28358459472656,-81.54515075683594,236.8861694335937
1700075546,1.2693328857421875,-0.0650482177734375,-0.217620849609375,-0.1432074904441833,0.1214316189289093,-0.0696105062961578,91.7608642578125,-80.33155822753906,236.55667114257807
1700075546,1.3265533447265625,-0.3223724365234375,-0.2144927978515625,-0.1338073313236236,0.1705573499202728,0.3998395502567291,91.8860321044922,-79.79974365234375,236.52833557128903
1700075546,1.24212646484375,-0.4350738525390625,-0.2781982421875,0.0139760030433535,0.2128416895866394,0.9052212238311768,91.98834228515624,-79.20137023925781,235.8497467041016
1700075546,1.0502471923828125,-0.4209136962890625,-0.294525146484375,0.0412252023816108,0.2197589874267578,1.0911754369735718,91.54307556152344,-78.526123046875,235.9822235107422
1700075546,0.8767242431640625,-0.2502899169921875,-0.3615570068359375,0.0865285024046897,0.2105521708726883,1.1059490442276,91.53106689453124,-77.80598449707031,235.5679473876953
1700075546,0.7315673828125,0.017486572265625,-0.416900634765625,0.2583889365196228,0.2108592391014099,1.022072434425354,92.02821350097656,-76.87661743164062,235.27783203125
1700075546,0.6663665771484375,0.2294464111328125,-0.3301849365234375,0.4143995940685272,0.2540778219699859,0.9062864780426024,91.27378845214844,-76.16001892089844,234.5674285888672
1700075546,0.7151031494140625,0.3793182373046875,-0.236358642578125,0.5304965972900391,0.3003414571285248,0.8046094179153442,91.37242126464844,-75.30609130859375,234.2047882080078
1700075546,0.8459320068359375,0.3830718994140625,-0.16436767578125,0.5983193516731262,0.399057388305664,0.7972875833511353,90.92672729492188,-74.10554504394531,233.90914916992188
1700075546,0.951507568359375,0.2440948486328125,-0.1955718994140625,0.6439781785011292,0.4800856411457062,0.9115843176841736,90.63018798828124,-73.51242065429688,233.5740966796875
1700075546,0.9958953857421876,0.0770416259765625,-0.234039306640625,0.6424703001976013,0.5483765602111816,1.1282814741134644,90.32371520996094,-72.37272644042969,233.58364868164065
1700075546,1.0187225341796875,-0.0649566650390625,-0.2543487548828125,0.6182001233100891,0.6059181690216064,1.4208598136901855,89.83721923828125,-71.22140502929688,233.09500122070312
1700075546,1.008514404296875,-0.1809234619140625,-0.2997283935546875,0.5030189156532288,0.6226329207420349,1.7358825206756592,89.52116394042969,-70.35015869140625,232.97129821777344
1700075546,0.9403076171875,-0.208831787109375,-0.4019622802734375,0.3517670929431915,0.6050222516059875,1.972993016242981,88.95449829101562,-69.02125549316406,232.3648223876953
1700075546,0.835052490234375,-0.099395751953125,-0.4770660400390625,0.2069087028503418,0.6137515902519226,2.0318448543548584,88.85153198242188,-67.9720458984375,232.16748046875
1700075546,0.7826080322265625,0.0897979736328125,-0.424041748046875,0.204455941915512,0.6009721159934998,1.915191531181336,88.43875122070312,-66.87516784667969,231.6132202148437
1700075546,0.65313720703125,0.3430938720703125,-0.3923187255859375,0.3463416993618011,0.6646161079406738,1.7285739183425903,88.30796813964844,-65.81207275390625,231.4369506835937
1700075546,0.6185455322265625,0.6592254638671875,-0.3693389892578125,0.6506190299987793,0.748455822467804,1.5067651271820068,87.63214111328125,-64.665283203125,231.5052032470703
1700075546,0.8532257080078125,0.779296875,-0.160308837890625,0.9487391710281372,0.8029923439025879,1.454763412475586,86.97103881835938,-63.75257873535156,231.4268493652344
1700075546,1.0816497802734375,0.6416778564453125,-0.12860107421875,1.0505757331848145,0.8052467107772827,1.584316968917847,86.32473754882812,-62.57914733886719,231.3592529296875
1700075546,1.1708831787109375,0.3455657958984375,-0.289764404296875,0.9762235283851624,0.8403000235557556,1.864671349525452,85.73561096191406,-61.31062316894531,231.1491851806641
1700075546,1.1608123779296875,0.1319580078125,-0.418853759765625,0.776906430721283,0.8754790425300598,2.135258436203003,85.07891845703125,-60.30363464355469,230.6971740722656
1700075546,1.274871826171875,0.05157470703125,-0.4293212890625,0.7192521691322327,0.9674862027168274,2.4186208248138428,84.83514404296875,-58.93006896972656,230.5326538085937
1700075546,1.259490966796875,-0.0238189697265625,-0.4116363525390625,0.7418128848075867,1.070338010787964,2.658656358718872,84.01893615722656,-57.21109008789063,230.50865173339844
1700075546,1.025390625,0.0583038330078125,-0.4493560791015625,0.7251598238945007,1.0895823240280151,2.6883018016815186,83.5445556640625,-56.53730773925781,230.9936065673828
1700075546,0.8669281005859375,0.3866729736328125,-0.4847564697265625,0.7483972907066345,1.095280647277832,2.569175720214844,82.87152099609375,-55.44874572753906,231.304931640625
1700075546,0.903900146484375,0.606414794921875,-0.375213623046875,0.8510929942131042,1.0944433212280271,2.4730255603790283,82.661865234375,-54.72261047363281,230.67710876464844
1700075546,0.8765869140625,0.613739013671875,-0.3061981201171875,0.941376566886902,1.0519795417785645,2.428940296173096,82.10455322265625,-53.92063903808594,230.6610717773437
1700075546,0.704803466796875,0.605926513671875,-0.3982086181640625,0.9436743259429932,1.0011779069900513,2.362831354141236,81.6773681640625,-53.15838623046875,230.979721069336
1700075546,0.7283172607421875,0.6827239990234375,-0.4562530517578125,0.8952964544296265,1.0260008573532104,2.2871081829071045,80.73541259765625,-52.987701416015625,230.40333557128903
1700075546,0.9697723388671876,0.6468658447265625,-0.4666748046875,0.8646325469017029,0.9567493796348572,2.325162172317505,80.19255065917969,-53.05216979980469,230.4291381835937
1700075546,1.196014404296875,0.6020660400390625,-0.547821044921875,0.9071006178855896,0.8913221955299377,2.387456178665161,79.68328857421875,-53.49302673339844,230.13912963867188
1700075546,1.4082183837890625,0.5235595703125,-0.5421142578125,0.9478951692581176,0.8796247839927673,2.475682258605957,79.91380310058594,-53.65040588378906,229.9742431640625
1700075546,1.481689453125,0.4419097900390625,-0.57843017578125,1.0108622312545776,0.823527991771698,2.536055088043213,79.8870849609375,-53.50372314453125,229.5652770996093
1700075546,1.622711181640625,0.3897247314453125,-0.6233367919921875,1.0949692726135254,0.7267619967460632,2.5917999744415283,80.38906860351562,-54.01075744628906,229.73175048828125
1700075546,1.7986602783203125,0.340118408203125,-0.6117706298828125,1.044166922569275,0.5854536294937134,2.497804880142212,80.90101623535156,-54.61041259765625,230.09393310546875
1700075546,1.88690185546875,0.1904144287109375,-0.6394805908203125,0.9801689982414246,0.3374693691730499,2.394566297531128,81.24668884277344,-55.29872131347656,229.8140106201172
1700075546,1.852447509765625,0.082489013671875,-0.558837890625,0.87381911277771,-0.0022607573773711,2.278269529342652,81.92770385742188,-56.03846740722656,229.34898376464844
1700075546,1.6334381103515625,0.1232147216796875,-0.496490478515625,0.7087369561195374,0.0382134318351745,2.0966780185699463,82.32049560546875,-57.11579895019531,229.6864471435547
1700075546,1.1645965576171875,0.2548980712890625,-0.65167236328125,0.8273786306381226,0.1998452097177505,1.5942164659500122,82.58842468261719,-57.78857421875,229.8405914306641
1700075547,0.7232818603515625,0.2150726318359375,-0.79876708984375,-0.1991298794746399,0.4168640673160553,1.7351772785186768,83.40657043457031,-59.42692565917969,229.96365356445312
1700075547,0.067596435546875,0.744415283203125,-1.1158905029296875,-1.2248271703720093,0.4741345345973968,1.3161523342132568,84.00457763671875,-60.61314392089844,229.31549072265625
1700075547,-0.13848876953125,0.822479248046875,-0.945037841796875,-1.100522756576538,0.5008585453033447,0.5468977093696594,84.65028381347656,-62.26286315917969,229.40582275390625
1700075547,-0.041778564453125,0.2945098876953125,-0.3386993408203125,-0.2547116577625274,0.3078206777572632,-0.2218208163976669,85.14907836914062,-63.73333740234375,229.1141052246093
1700075547,-0.350341796875,-0.3174591064453125,0.2256622314453125,0.7371081113815308,0.0229093097150325,-1.0516769886016846,85.86367797851562,-64.97633361816406,229.14254760742188
1700075547,-0.5494384765625,-0.7886810302734375,0.6667327880859375,0.7886943221092224,-0.0890465155243873,-1.739353895187378,85.82102966308594,-66.45832824707031,229.3782196044922
1700075547,-0.162109375,-0.722412109375,0.327056884765625,0.3253679871559143,-0.1061378866434097,-2.485623598098755,86.46917724609375,-68.14350891113281,229.6074676513672
1700075547,0.173614501953125,-0.6412811279296875,-0.08416748046875,0.1413155794143676,-0.1462320387363433,-3.029797315597534,86.62126159667969,-69.40391540527344,229.6724548339844
1700075547,0.279022216796875,-0.7352294921875,-0.0540618896484375,0.0048879659734666,-0.2204261124134063,-3.246611356735229,87.28256225585938,-70.73377990722656,230.08116149902344
1700075547,0.3101348876953125,-0.6313629150390625,-0.0298614501953125,-0.2262975871562957,-0.2798396348953247,-3.395289421081543,87.54774475097656,-71.57577514648438,229.9239044189453
1700075547,0.382965087890625,-0.446380615234375,-0.0510406494140625,-0.4821487963199615,-0.2827800214290619,-3.655611753463745,87.87400817871094,-72.5294189453125,229.8168487548828
1700075547,0.4411773681640625,-0.2982330322265625,-0.0853118896484375,-0.6134620904922485,-0.2786404192447662,-3.9785819053649902,88.20193481445312,-73.65736389160156,230.095458984375
1700075547,0.5078125,-0.1740875244140625,-0.1295013427734375,-0.5730206370353699,-0.3179409503936767,-4.239368438720703,87.9837646484375,-74.58110046386719,230.38394165039065
1700075547,0.604339599609375,-0.03741455078125,-0.126495361328125,-0.5271897912025452,-0.3798322677612304,-4.417143821716309,88.15440368652344,-75.82867431640625,230.3586578369141
1700075547,0.7236785888671875,0.1331939697265625,-0.0705718994140625,-0.5666304230690002,-0.5035123825073242,-4.605224609375,88.40226745605469,-76.8009033203125,230.68995666503903
1700075547,0.8958587646484375,0.2722015380859375,0.02532958984375,-0.5027201175689697,-0.6613752841949463,-4.836749076843262,88.4931640625,-78.16580200195312,231.27023315429688
1700075547,1.06317138671875,0.315673828125,0.1124267578125,-0.3564585149288177,-0.7547752857208252,-4.986777305603027,88.41691589355469,-78.90029907226562,231.2155303955078
1700075547,1.1154327392578125,0.3312225341796875,0.09161376953125,-0.2177642881870269,-0.8242025375366211,-4.957234859466553,88.0428466796875,-79.95571899414062,231.73789978027344
1700075547,1.12738037109375,0.396453857421875,0.061553955078125,-0.0058099520392715,-0.9766008853912354,-4.800858974456787,88.32939147949219,-80.18411254882812,231.3948669433593
1700075547,1.19140625,0.4810333251953125,0.0749359130859375,0.4844862520694732,-1.1018732786178589,-4.661890029907227,88.51683044433594,-80.98825073242188,231.22613525390625
1700075547,1.3244171142578125,0.550323486328125,0.03302001953125,0.9423126578330994,-1.0998528003692627,-4.636469841003418,88.92753601074219,-81.41682434082031,231.9534149169922
1700075547,1.4534912109375,0.6214141845703125,-0.083648681640625,0.9712172746658324,-1.0440763235092163,-4.654323577880859,88.58470153808594,-81.70114135742188,231.740463256836
1700075547,1.553070068359375,0.702911376953125,-0.2336883544921875,0.8323422074317932,-1.0300252437591553,-4.61887264251709,88.77618408203125,-81.58724975585938,232.2273864746093
1700075547,1.5780029296875,0.8035888671875,-0.3236236572265625,0.6473694443702698,-1.0942622423171997,-4.507849216461182,88.41665649414062,-81.59297180175781,231.6803131103516
1700075547,1.5221405029296875,0.9196319580078124,-0.3640899658203125,0.4782451391220093,-1.1641260385513306,-4.3294219970703125,88.63079833984375,-81.66322326660156,232.2463531494141
1700075547,1.41632080078125,1.046234130859375,-0.337860107421875,0.5429016351699829,-1.117906093597412,-4.220604419708252,88.10600280761719,-81.76388549804688,232.5535125732422
1700075547,1.32537841796875,1.075897216796875,-0.23602294921875,0.8649134635925293,-0.96048903465271,-4.2651543617248535,88.02828979492188,-81.667236328125,231.9410095214844
1700075547,1.31500244140625,0.966644287109375,-0.1409149169921875,1.1451786756515503,-0.8599898219108582,-4.304693698883057,88.33164978027344,-81.52581787109375,232.4627990722656
1700075547,1.3314208984375,0.8271484375,-0.08758544921875,1.2773727178573608,-0.851341724395752,-4.196109294891357,88.05989074707031,-81.77467346191406,232.2176513671875
1700075547,1.3057708740234375,0.7387847900390625,-0.0942230224609375,1.4840878248214722,-0.7692855000495911,-3.967172622680664,88.24362182617188,-80.9827880859375,232.2648468017578
1700075547,1.2568359375,0.6999969482421875,-0.246795654296875,1.8408299684524536,-0.7355480194091797,-3.769421577453613,88.23316955566406,-80.86126708984375,232.16311645507807
1700075547,1.1685028076171875,0.627197265625,-0.375335693359375,2.264596462249756,-0.8850264549255371,-3.5671205520629883,88.01487731933594,-81.1231689453125,231.51980590820312
1700075547,1.1294097900390625,0.5850677490234375,-0.3135986328125,2.7285962104797363,-1.052901268005371,-3.33480167388916,87.88829040527344,-81.21487426757812,231.69110107421875
1700075547,1.1564483642578125,0.5993194580078125,-0.141815185546875,3.1880903244018555,-1.003618597984314,-3.1252357959747314,87.74636840820312,-80.77616882324219,231.5196228027344
1700075547,1.1143951416015625,0.6520843505859375,-0.069183349609375,3.5885746479034424,-0.8558158874511719,-3.004991292953491,87.34318542480469,-80.72554016113281,231.30865478515625
1700075547,1.0234375,0.69464111328125,-0.067901611328125,3.9531571865081774,-0.742764413356781,-2.8818836212158203,87.23391723632812,-80.84071350097656,230.89881896972656
1700075547,0.8963623046875,0.70465087890625,-0.0810394287109375,4.158605575561523,-0.6627846360206604,-2.7250497341156006,86.970947265625,-81.22731018066406,231.1902770996093
1700075547,0.8055877685546875,0.6295623779296875,-0.1378173828125,4.05955696105957,-0.5901352167129517,-2.5161943435668945,86.40696716308594,-81.33795166015625,230.34703063964844
1700075547,0.806304931640625,0.463592529296875,-0.2253265380859375,3.745229721069336,-0.506514847278595,-2.2143383026123047,85.06430053710938,-80.56242370605469,230.6407623291016
1700075547,0.8225555419921875,0.30706787109375,-0.318511962890625,3.3061399459838867,-0.4183266758918762,-1.8478749990463257,84.60871887207031,-79.72259521484375,229.99986267089844
1700075547,0.819610595703125,0.212738037109375,-0.4193878173828125,2.741240262985229,-0.270661860704422,-1.450547695159912,85.13273620605469,-80.39926147460938,230.1656646728516
1700075547,0.76715087890625,0.181732177734375,-0.643951416015625,2.240545749664306,-0.0995644107460975,-1.055604100227356,85.05482482910156,-79.88204956054688,230.2740173339844
1700075547,0.6200408935546875,0.173431396484375,-0.88134765625,1.933323621749878,-0.1067815721035003,-0.6995242834091187,83.95378112792969,-79.41932678222656,229.7083435058593
1700075547,0.4760284423828125,0.115081787109375,-0.861968994140625,1.781400203704834,-0.267411470413208,-0.2872682511806488,83.26455688476562,-78.61198425292969,229.8356170654297
1700075547,0.536895751953125,0.0508575439453125,-0.5250701904296875,1.5809043645858765,-0.3091205656528473,0.2080346941947937,83.13710021972656,-78.13287353515625,229.7313537597656
1700075547,0.7308349609375,0.13153076171875,-0.2002105712890625,1.4511122703552246,-0.165327176451683,0.6346941590309143,83.09263610839844,-78.10289001464844,229.73785400390625
1700075547,0.776947021484375,0.268798828125,-0.107421875,1.3050501346588137,0.6165763735771179,0.994930863380432,82.41226196289062,-78.61872863769531,229.15338134765625
1700075547,0.70404052734375,0.520599365234375,-0.588531494140625,1.2074130773544312,1.1459717750549316,1.1190823316574097,82.09394836425781,-78.44964599609375,228.82167053222656
1700075547,0.30535888671875,0.637420654296875,-1.3995513916015625,1.861223578453064,2.661410331726074,1.5170015096664429,81.87248229980469,-78.22018432617188,228.6747283935547
1700075547,0.1871795654296875,0.818695068359375,-2.3699951171875,2.3774259090423584,3.3857970237731934,2.573946714401245,81.43380737304688,-78.48947143554688,228.9848022460937
1700075547,-0.17041015625,1.5671234130859375,-3.890289306640625,-0.3094129860401153,-2.5962958335876465,3.888118505477905,81.5914306640625,-78.25067138671875,228.1966094970703
1700075547,3.082916259765625,1.3938140869140625,1.246978759765625,-1.8211067914962769,-0.3120639026165008,2.1515703201293945,81.52830505371094,-78.21661376953125,228.47027587890625
1700075547,3.982101440429688,-1.34027099609375,0.7462615966796875,-0.3460218608379364,2.2922110557556152,0.7211310267448425,81.28851318359375,-77.6273193359375,228.5843048095703
1700075547,1.71661376953125,-2.0052032470703125,1.2318572998046875,-0.1801287531852722,1.607756733894348,0.5382086038589478,80.91146850585938,-77.76095581054688,227.6571807861328
1700075547,0.777374267578125,-0.6535797119140625,0.1677703857421875,-0.709735095500946,0.6103909015655518,1.411555528640747,80.59934997558594,-76.99076843261719,227.9226837158203
1700075547,0.524810791015625,0.0047149658203125,-0.5025177001953125,-1.3417266607284546,0.2552858293056488,1.97048568725586,80.90699768066406,-77.12069702148438,228.48828125
1700075547,0.913665771484375,-0.3248748779296875,-0.10919189453125,-1.7832512855529783,0.7735223174095154,1.987156748771668,81.38325500488281,-76.58692932128906,227.74647521972656
1700075547,1.1189117431640625,-0.36468505859375,-0.182098388671875,-1.986868381500244,0.8040922284126282,1.695499062538147,81.45977783203125,-76.61978149414062,228.0062713623047
1700075547,1.26141357421875,-0.06170654296875,-0.4087066650390625,-2.03713321685791,0.4204305708408355,1.125231385231018,80.97529602050781,-76.54530334472656,228.5918731689453
1700075547,1.327392578125,0.1757965087890625,-0.696563720703125,-1.3723844289779663,0.2253721356391906,0.5922891497612,81.166259765625,-76.41386413574219,228.247802734375
1700075547,1.4705047607421875,0.1796722412109375,-0.600738525390625,0.1994161754846573,0.1417621970176696,0.2927290797233581,81.10603332519531,-76.59855651855469,228.36903381347656
1700075547,2.5994110107421875,-0.21160888671875,0.172027587890625,1.3961355686187744,0.4242300987243652,1.1598615646362305,80.81489562988281,-76.60858154296875,228.09767150878903
1700075547,3.4521026611328125,-0.0941925048828125,0.758880615234375,0.2948076725006103,0.6994800567626953,2.4786298274993896,81.44833374023438,-76.6737060546875,227.93125915527344
1700075547,2.4443511962890625,0.3460845947265625,0.2275390625,-0.8757008910179138,0.4688093066215515,2.354655265808105,81.54090881347656,-76.78269958496094,228.4466552734375
1700075547,0.97235107421875,0.14208984375,-0.343536376953125,-0.9766626358032228,0.1562210321426391,1.0126070976257324,81.5079345703125,-76.384033203125,227.9525909423828
1700075547,0.10260009765625,0.039581298828125,-0.90496826171875,-0.2751831114292145,0.3860776722431183,0.3666831851005554,81.29100036621094,-76.51127624511719,227.6632080078125
1700075547,-0.2734222412109375,0.369415283203125,-0.81182861328125,0.671265184879303,0.4613265991210937,0.498814582824707,81.00119018554688,-76.15528869628906,228.3714294433593
1700075547,0.386688232421875,0.4549560546875,-0.230865478515625,1.0411580801010132,0.2292385101318359,0.412432312965393,81.04743957519531,-76.0953369140625,227.80178833007807
1700075547,1.229522705078125,0.24365234375,-0.2988433837890625,0.9343013763427734,0.1027253121137619,0.2595732510089874,81.25785827636719,-75.87794494628906,228.10487365722656
1700075547,1.3644866943359375,0.1873016357421875,-0.450775146484375,0.604616641998291,0.0992964953184127,0.1253752261400222,80.81330871582031,-75.57017517089844,227.73245239257807
1700075547,1.220306396484375,0.102935791015625,-0.52813720703125,0.2881359159946441,0.016163257881999,0.1461425572633743,80.76741027832031,-75.17636108398438,227.58697509765625
1700075547,0.984710693359375,0.1158294677734375,-0.5338134765625,0.128114566206932,-0.0582774206995964,0.1215658485889434,80.85319519042969,-75.03268432617188,227.2151794433593
1700075547,0.914825439453125,0.1027679443359375,-0.497528076171875,0.0662389397621154,-0.0977476015686988,0.0797717943787574,80.8968505859375,-74.39045715332031,227.0634765625
1700075547,0.9249267578125,0.0835113525390625,-0.4532928466796875,0.0006532734259963,-0.1060896813869476,0.0425045825541019,80.33338928222656,-73.988037109375,227.2354888916016
1700075547,0.91412353515625,0.095550537109375,-0.4128265380859375,0.0355071276426315,-0.1003231406211853,-0.0063809338025748,80.31547546386719,-73.83311462402344,227.237060546875
1700075547,0.9232940673828124,0.10382080078125,-0.377716064453125,0.2716554701328277,-0.073649451136589,-0.0725703388452529,79.86203002929688,-73.25048828125,226.72433471679688
1700075547,0.941864013671875,0.14581298828125,-0.3355560302734375,0.5690789222717285,-0.0348554514348506,-0.1630110293626785,79.67015075683594,-72.81382751464844,226.8462829589844
1700075547,0.952667236328125,0.2055816650390625,-0.3303375244140625,0.7352612018585205,-0.0237817615270614,-0.2636151313781738,79.34757995605469,-71.84742736816406,226.692138671875
1700075547,0.945556640625,0.199371337890625,-0.366180419921875,0.7778944373130798,-0.0473651178181171,-0.2846468985080719,78.84504699707031,-71.60548400878906,226.0453948974609
1700075547,0.9271392822265624,0.1096343994140625,-0.4388580322265625,0.7510668039321899,-0.0866470113396644,-0.208849087357521,78.71163940429688,-70.911865234375,226.1791839599609
1700075547,0.90423583984375,0.00408935546875,-0.499176025390625,0.6450415849685669,-0.1204728856682777,-0.1343098729848861,78.13360595703125,-70.13589477539062,226.18115234375
1700075547,0.9220428466796876,-0.0781402587890625,-0.486328125,0.5250999927520752,-0.1264194548130035,-0.0664639770984649,77.49522399902344,-69.77523803710938,225.0550537109375
1700075547,0.9311981201171876,-0.0742034912109375,-0.4487152099609375,0.4642741978168487,-0.1144573390483856,-0.0144276749342679,77.02430725097656,-68.85137939453125,225.6253356933593
1700075547,0.9079132080078124,-0.0054473876953125,-0.4101715087890625,0.455139011144638,-0.0932633653283119,0.002069808775559,76.7579345703125,-68.44526672363281,225.4252777099609
1700075547,0.8852691650390625,0.0424957275390625,-0.3525390625,0.4851456582546234,-0.0499260127544403,0.0069061093963682,76.37274169921875,-67.52912902832031,225.0553741455078
1700075547,0.856536865234375,0.05474853515625,-0.3155670166015625,0.4614658951759338,0.0006287723081186,0.0473837591707706,75.698974609375,-66.72615051269531,225.6526641845703
1700075547,0.8441009521484375,0.0624847412109375,-0.3185882568359375,0.357075035572052,0.0372698754072189,0.1050550490617752,75.21319580078125,-66.12835693359375,225.1004180908203
1700075547,0.8817138671875,0.032806396484375,-0.343658447265625,0.2482148706912994,0.0639550164341926,0.1616759747266769,74.617431640625,-65.620361328125,225.2148895263672
1700075547,0.913970947265625,-0.0174713134765625,-0.3763275146484375,0.210982009768486,0.0787467435002327,0.2320284396409988,74.09510803222656,-64.76005554199219,224.21701049804688
1700075547,0.919830322265625,-0.0213775634765625,-0.397857666015625,0.2718440294265747,0.0882379859685897,0.2895671129226684,73.68055725097656,-64.61875915527344,224.17105102539065
1700075547,0.9178619384765624,0.0034942626953125,-0.4056243896484375,0.4061033129692077,0.0935730934143066,0.3399224281311035,72.72100830078125,-63.93939208984375,224.2084197998047
1700075547,0.904052734375,0.0396575927734375,-0.417877197265625,0.5490620732307434,0.1043647527694702,0.3669556379318237,72.39848327636719,-63.08392333984375,223.88829040527344
1700075547,0.9013671875,0.06365966796875,-0.3948211669921875,0.6725049018859863,0.1353043019771576,0.4182046949863434,71.6123046875,-62.20306396484375,224.27745056152344
1700075547,0.8751678466796875,0.045013427734375,-0.3643798828125,0.6969963908195496,0.1515988409519195,0.5261626243591309,70.84033203125,-61.674713134765625,223.8910522460937
1700075547,0.861480712890625,-0.0057373046875,-0.38543701171875,0.687028706073761,0.1719568520784378,0.6375013589859009,70.21427917480469,-61.19744873046875,223.8219757080078
1700075547,0.902679443359375,-0.0847320556640625,-0.425201416015625,0.6903526186943054,0.1947785466909408,0.7517004013061523,69.59246826171875,-60.17155456542969,224.0634155273437
1700075547,0.9507904052734376,-0.08746337890625,-0.431915283203125,0.7776363492012024,0.2260821312665939,0.8414443731307983,69.32237243652344,-59.835540771484375,223.90695190429688
1700075547,0.968353271484375,0.009063720703125,-0.3906707763671875,0.94032222032547,0.2742595076560974,0.8910002112388611,68.61091613769531,-59.01643371582031,223.4517517089844
1700075547,0.956085205078125,0.0995330810546875,-0.3432464599609375,1.1494057178497314,0.3270950317382812,0.9550066590309144,67.7926025390625,-58.2938232421875,223.4819183349609
1700075548,0.9523162841796876,0.119842529296875,-0.3218231201171875,1.3223702907562256,0.3777744472026825,1.0623842477798462,67.58869934082031,-58.042083740234375,223.1878662109375
1700075548,0.9708251953125,0.069091796875,-0.348724365234375,1.4162509441375732,0.4238767027854919,1.2029050588607788,67.46600341796875,-57.58296203613281,222.698471069336
1700075548,0.9785919189453124,0.0106048583984375,-0.377197265625,1.4894084930419922,0.5134441256523132,1.34168803691864,66.72789001464844,-57.35658264160156,222.5653076171875
1700075548,0.9659576416015624,-0.0125732421875,-0.4203948974609375,1.704299807548523,0.586458146572113,1.3885245323181152,66.17828369140625,-57.456146240234375,222.0900115966797
1700075548,1.007904052734375,-0.0700225830078125,-0.469879150390625,1.8192205429077148,0.5732195973396301,1.5580259561538696,65.55924987792969,-58.33218383789063,221.2782745361328
1700075548,1.2005615234375,0.054412841796875,-0.3521728515625,1.7449524402618408,0.643684983253479,1.6748638153076172,65.45048522949219,-59.2894287109375,221.59088134765625
1700075548,1.3686370849609375,0.1827545166015625,-0.2825927734375,1.775069236755371,0.6626831293106079,1.7647995948791504,65.33836364746094,-60.06271362304688,221.3309936523437
1700075548,1.528472900390625,0.179962158203125,-0.34002685546875,1.792683482170105,0.7508742809295654,1.893342137336731,65.21328735351562,-60.00337219238281,220.9409637451172
1700075548,1.598297119140625,0.146270751953125,-0.3439788818359375,1.899595022201538,0.9570697546005248,1.959104061126709,65.64059448242188,-59.79579162597656,221.07098388671875
1700075548,1.5769195556640625,0.0684814453125,-0.21466064453125,2.091754198074341,1.1681891679763794,2.0439279079437256,65.81472778320312,-60.150390625,220.776107788086
1700075548,1.5781707763671875,0.057342529296875,-0.1747589111328125,2.3084464073181152,1.389514446258545,2.1261956691741943,66.44143676757812,-60.18788146972656,221.17030334472656
1700075548,1.629974365234375,0.0494384765625,-0.20916748046875,2.6212878227233887,1.5622150897979736,2.104625940322876,66.95932006835938,-60.50851440429688,220.58200073242188
1700075548,1.721435546875,-0.0193939208984375,-0.2418670654296875,3.028674602508545,1.6988011598587036,1.9561357498168943,67.84382629394531,-60.83245849609375,221.1962127685547
1700075548,1.8038330078125,-0.1359405517578125,-0.3117828369140625,3.575138807296753,1.886076807975769,1.6781834363937378,68.82666015625,-61.2135009765625,220.75216674804688
1700075548,1.858001708984375,-0.2921600341796875,-0.399871826171875,4.183191299438477,2.0105977058410645,1.368367314338684,69.25871276855469,-61.49308776855469,220.94012451171875
1700075548,1.86065673828125,-0.4267425537109375,-0.456268310546875,4.411130428314209,2.048633813858032,1.2981985807418823,70.266357421875,-62.45648193359375,221.2098999023437
1700075548,1.6839599609375,-0.3344879150390625,-0.5757293701171875,4.432752132415772,1.9804320335388184,1.531477928161621,70.71266174316406,-63.32733154296875,221.24050903320312
1700075548,1.4155426025390625,-0.0740966796875,-0.6864013671875,4.182794570922852,1.900867223739624,1.7352824211120603,71.25856018066406,-63.77886962890625,220.8209991455078
1700075548,1.171600341796875,0.1604156494140625,-0.913360595703125,3.706746816635132,1.841857671737671,1.537452220916748,71.82980346679688,-65.03587341308594,221.0014495849609
1700075548,1.06475830078125,0.1812896728515625,-1.0482940673828125,3.13248610496521,1.883400321006775,1.090739369392395,72.50907897949219,-66.07083129882812,221.034896850586
1700075548,0.950958251953125,0.2462005615234375,-1.000885009765625,2.7841689586639404,2.0352895259857178,0.6032573580741882,72.51847839355469,-67.07102966308594,220.927963256836
1700075548,0.7818145751953125,0.3474578857421875,-0.747222900390625,2.9826154708862305,2.174551248550415,0.1751268059015274,72.66641235351562,-68.05072021484375,220.9999237060547
1700075548,0.6119842529296875,0.3442535400390625,-0.4667816162109375,3.205157518386841,2.211592197418213,-0.3418646454811096,73.32852172851562,-69.16844177246094,220.9449920654297
1700075548,0.5866851806640625,0.13763427734375,-0.3563690185546875,3.353551387786865,2.2148916721343994,-0.860668420791626,73.857177734375,-69.78875732421875,221.2366638183593
1700075548,0.59210205078125,-0.1348419189453125,-0.168304443359375,3.403515338897705,2.1862566471099854,-1.1730742454528809,74.373779296875,-70.74754333496094,221.3851776123047
1700075548,0.5319976806640625,-0.277801513671875,0.0701751708984375,3.1291310787200928,2.1382410526275635,-1.2699980735778809,74.6646728515625,-71.03927612304688,221.6238250732422
1700075548,0.4842376708984375,-0.205841064453125,0.079742431640625,2.508230686187744,2.1316938400268555,-1.431650161743164,75.17054748535156,-71.45556640625,221.68356323242188
1700075548,0.5168914794921875,-0.188507080078125,-0.0274505615234375,1.8324955701828003,2.175995349884033,-1.703391432762146,75.41423034667969,-71.824462890625,222.1653594970703
1700075548,0.5482025146484375,-0.2366943359375,-0.0205841064453125,1.185310125350952,2.1950645446777344,-1.9657878875732424,75.93156433105469,-72.04977416992188,222.28941345214844
1700075548,0.5457000732421875,-0.199951171875,0.033447265625,0.6129134893417358,2.183600902557373,-2.2089169025421143,76.15341186523438,-71.56785583496094,221.7517547607422
1700075548,0.5496978759765625,-0.1262969970703125,0.04473876953125,0.17283995449543,2.104823589324951,-2.482454299926758,76.29315185546875,-72.079345703125,222.4376220703125
1700075548,0.5952606201171875,-0.067169189453125,0.0941925048828125,-0.092591717839241,1.9682108163833616,-2.7936277389526367,76.3697509765625,-72.16015625,223.1095733642578
1700075548,0.6630401611328125,-0.003753662109375,0.185516357421875,-0.202765092253685,1.7994710206985474,-3.103211164474488,76.42915344238281,-72.12220764160156,222.84002685546875
1700075548,0.7324676513671875,0.0649261474609375,0.2879486083984375,-0.2004832923412323,1.6346054077148438,-3.354813575744629,76.97784423828125,-71.97178649902344,223.29693603515625
1700075548,0.780181884765625,0.140289306640625,0.362579345703125,-0.1387938410043716,1.4564231634140017,-3.5834784507751465,76.8858642578125,-72.23481750488281,223.36798095703125
1700075548,0.8205718994140625,0.191619873046875,0.407012939453125,-0.0339177548885345,1.247933864593506,-3.788203001022339,76.92521667480469,-72.27108764648438,223.09909057617188
1700075548,0.8602142333984375,0.2304534912109375,0.4215545654296875,0.1089294105768203,1.0178625583648682,-3.974480628967285,77.68083190917969,-72.19317626953125,223.6559600830078
1700075548,0.9139251708984376,0.2674407958984375,0.4421539306640625,0.274180144071579,0.7796513438224792,-4.132357120513916,77.59913635253906,-71.69827270507812,223.92544555664065
1700075548,0.9862060546875,0.2880706787109375,0.464447021484375,0.4373094141483307,0.5213393568992615,-4.242092132568359,77.69729614257812,-72.06816101074219,223.4109802246093
1700075548,1.0713043212890625,0.3269195556640625,0.495147705078125,0.5870656371116638,0.2617138922214508,-4.351112842559815,77.52960205078125,-71.88246154785156,223.99659729003903
1700075548,1.1751251220703125,0.3593597412109375,0.4888916015625,0.7313066720962524,0.0081119881942868,-4.47633171081543,77.71806335449219,-71.42698669433594,224.142318725586
1700075548,1.2777557373046875,0.3714599609375,0.4729461669921875,0.8863987922668457,-0.2376213520765304,-4.593313694000244,77.60003662109375,-71.11595153808594,224.2751617431641
1700075548,1.3476409912109375,0.38348388671875,0.449859619140625,1.0667771100997925,-0.4502659738063812,-4.695509433746338,77.71774291992188,-71.19671630859375,224.08741760253903
1700075548,1.3590240478515625,0.3995819091796875,0.411163330078125,1.298275351524353,-0.616417407989502,-4.821443557739258,77.56843566894531,-71.42947387695312,223.6932983398437
1700075548,1.319732666015625,0.391815185546875,0.3650665283203125,1.5920544862747192,-0.737013041973114,-4.956265926361084,77.14244079589844,-71.21023559570312,223.92860412597656
1700075548,1.25701904296875,0.3753814697265625,0.3212432861328125,1.9604687690734863,-0.8112561106681824,-5.087618350982666,77.23800659179688,-71.47633361816406,224.5453643798828
1700075548,1.2305908203125,0.36767578125,0.2791595458984375,2.347525119781494,-0.8039409518241882,-5.193586826324463,76.97483825683594,-71.111572265625,224.43359375
1700075548,1.259429931640625,0.3807220458984375,0.225860595703125,2.5344386100769043,-0.7466830015182495,-5.319206237792969,76.28085327148438,-71.32025146484375,223.9105834960937
1700075548,1.3117523193359375,0.4065399169921875,0.1392364501953125,2.6176412105560303,-0.672462522983551,-5.43299674987793,75.74835205078125,-71.85723876953125,223.34454345703125
1700075548,1.373809814453125,0.4486083984375,0.0678253173828125,2.766355037689209,-0.6158786416053772,-5.4759521484375,75.61357116699219,-71.78033447265625,224.50148010253903
1700075548,1.4698028564453125,0.48150634765625,0.033172607421875,2.841593742370605,-0.538566529750824,-5.400102138519287,74.72908020019531,-71.86770629882812,224.3045196533203
1700075548,1.5623779296875,0.5105133056640625,-0.048004150390625,2.752509593963623,-0.4822739660739898,-5.225455284118652,72.88059997558594,-71.05378723144531,223.71090698242188
1700075548,1.5929412841796875,0.5456695556640625,-0.151580810546875,2.49088978767395,-0.457154780626297,-5.047383785247803,72.92691040039062,-70.85614013671875,223.84527587890625
1700075548,1.5897216796875,0.5992889404296875,-0.2537384033203125,2.236654043197632,-0.5738779306411743,-4.847017288208008,72.68255615234375,-71.23260498046875,224.15969848632807
1700075548,1.560394287109375,0.6854248046875,-0.1755828857421875,2.1240038871765137,-0.7181687951087952,-4.566020488739014,72.76142883300781,-70.69886779785156,224.46636962890625
1700075548,1.5242767333984375,0.7627105712890625,-0.0060882568359375,2.146568298339844,-0.8646429181098938,-4.171979427337647,71.86338806152344,-70.01872253417969,224.187255859375
1700075548,1.4589996337890625,0.80712890625,0.079345703125,2.185631275177002,-1.065824270248413,-3.675981044769287,70.58207702636719,-69.59831237792969,224.4235382080078
1700075548,1.3530426025390625,0.8460235595703125,0.0259552001953125,2.078734874725342,-1.319951057434082,-3.191468000411988,70.39544677734375,-69.87705993652344,223.8414306640625
1700075548,1.2983245849609375,0.8510589599609375,-0.0176544189453125,1.76504647731781,-1.481798768043518,-2.7182869911193848,70.16586303710938,-70.14811706542969,223.956283569336
1700075548,1.2463226318359375,0.77606201171875,-0.0505523681640625,1.3925789594650269,-1.4097049236297607,-2.117773056030273,69.57606506347656,-70.58624267578125,223.71778869628903
1700075548,1.0800323486328125,0.6846771240234375,-0.1544036865234375,0.9722071886062622,-1.0736424922943115,-1.5972033739089966,69.25543212890625,-70.70062255859375,223.9814453125
1700075548,0.788848876953125,0.5789642333984375,-0.3725128173828125,0.9130988717079164,-0.5956902503967285,-1.220781326293945,68.60641479492188,-71.20732116699219,223.79348754882807
1700075548,0.46185302734375,0.55902099609375,-0.262725830078125,1.2046949863433838,-0.3470349311828613,-0.7607274055480957,68.08287048339844,-71.41064453125,223.7678985595703
1700075548,0.4075927734375,0.7730865478515625,-0.164215087890625,1.279392957687378,-0.2086474895477295,-0.2840857803821563,67.42192077636719,-71.36648559570312,223.45364379882807
1700075548,0.6846923828125,0.880279541015625,-0.3027801513671875,0.9503410458564758,-0.1206385344266891,0.4564876556396484,67.11216735839844,-71.14036560058594,223.61851501464844
1700075548,0.8362274169921875,0.909759521484375,-0.367889404296875,0.5111487507820129,-0.0202741120010614,1.346482753753662,67.02914428710938,-70.72319030761719,223.40380859375
1700075548,0.8741302490234375,1.0983123779296875,-0.402435302734375,0.7260376214981079,-0.1556612253189087,1.3920795917510986,66.77023315429688,-70.9501953125,223.510986328125
1700075548,1.0988922119140625,0.7621612548828125,-0.365234375,1.2045413255691528,-0.2596867084503174,0.1747984439134597,67.30633544921875,-70.99909973144531,224.04638671875
1700075548,1.6627349853515625,-0.5443572998046875,-0.059173583984375,1.3642548322677612,0.1110764518380165,-1.2521458864212036,67.30221557617188,-71.22137451171875,223.5447692871093
1700075548,2.06280517578125,-1.66656494140625,0.2318572998046875,0.0968788787722587,0.5084121227264404,-0.0145821385085582,67.31184387207031,-71.40715026855469,224.07421875
1700075548,1.517364501953125,-0.97479248046875,-0.5722808837890625,-1.1299821138381958,0.3820392489433288,2.3469624519348145,67.37867736816406,-71.29618835449219,223.75323486328125
1700075548,1.290924072265625,-0.4636993408203125,-0.90142822265625,-1.0461450815200806,0.1565488576889038,3.1211445331573486,67.43190002441406,-71.22244262695312,224.21383666992188
1700075548,1.439208984375,-0.84564208984375,-0.2060394287109375,-0.9883941411972046,0.2991563379764557,3.0970232486724854,67.38241577148438,-71.00276184082031,224.16612243652344
1700075548,0.9775848388671876,-0.4623870849609375,-0.1482391357421875,-0.7318931221961975,0.379794716835022,2.511096239089966,67.47157287597656,-70.96110534667969,223.6436767578125
1700075548,0.4726409912109375,-0.042327880859375,-0.312652587890625,0.121459849178791,0.4755111336708069,1.6846920251846311,67.19322204589844,-71.05194091796875,224.20236206054688
1700075548,0.463775634765625,0.26812744140625,-0.2951507568359375,0.9218348264694214,0.5648745894432068,1.47572124004364,67.17039489746094,-70.83193969726562,223.828857421875
1700075548,0.6734161376953125,0.6904449462890625,-0.4058685302734375,0.978121817111969,0.3129227459430694,1.3757765293121338,66.76548767089844,-70.72412109375,223.7476501464844
1700075548,0.92779541015625,0.756103515625,-0.68316650390625,0.6621339917182922,0.1108173280954361,0.8864113092422485,66.79110717773438,-70.376220703125,223.67266845703125
1700075548,1.3131866455078125,0.4539642333984375,-0.470306396484375,0.4624563157558441,0.1918027251958847,0.5947139859199524,66.57411193847656,-70.28314208984375,224.14585876464844
1700075548,1.18853759765625,0.211090087890625,-0.324462890625,0.473328948020935,0.1437449157238006,0.5566025376319885,66.63883972167969,-70.19058227539062,223.7026214599609
1700075548,1.00347900390625,0.0435028076171875,-0.330230712890625,0.4438365697860718,0.0465656369924545,0.5415008068084717,66.51338195800781,-69.84780883789062,223.37413024902344
1700075548,1.04473876953125,-0.0454254150390625,-0.347442626953125,0.2901082634925842,0.0232744291424751,0.5353345274925232,66.03280639648438,-69.39865112304688,224.0274810791016
1700075548,1.0868988037109375,-0.0958404541015625,-0.3301849365234375,0.1501727253198623,0.0612335316836833,0.5599940419197083,65.81146240234375,-68.97230529785156,223.66017150878903
1700075548,1.045745849609375,-0.111663818359375,-0.3289337158203125,0.1017929390072822,0.0540488548576831,0.5709284543991089,65.28292846679688,-68.52937316894531,223.65264892578125
1700075548,0.9922027587890624,-0.105224609375,-0.331512451171875,0.1039932444691658,0.0255152136087417,0.5204445123672485,65.00434875488281,-68.15565490722656,223.4922332763672
1700075548,0.9687957763671876,-0.081329345703125,-0.30462646484375,0.10297591984272,0.0360663905739784,0.4476528763771057,64.32745361328125,-67.73211669921875,223.1356964111328
1700075548,0.9485931396484376,-0.0657806396484375,-0.304046630859375,0.1388532221317291,0.0168934967368841,0.4085699319839477,64.34188842773438,-67.54023742675781,222.96749877929688
1700075548,0.9250640869140624,-0.049896240234375,-0.3748931884765625,0.1668252050876617,-0.0620593763887882,0.3751975893974304,63.92572021484375,-67.60011291503906,222.91978454589844
1700075548,0.9400634765625,-0.0446319580078125,-0.4343414306640625,0.1475607007741928,-0.1441222876310348,0.3436537683010101,63.44285583496094,-67.15106201171875,222.88380432128903
1700075548,0.9468994140625,-0.044586181640625,-0.44964599609375,0.1076004952192306,-0.2043600678443908,0.304246723651886,63.073486328125,-66.73701477050781,222.7979431152344
1700075548,0.948760986328125,-0.0399932861328125,-0.414703369140625,0.0874262526631355,-0.2311839461326599,0.2765048146247864,62.036956787109375,-66.02761840820312,223.3950653076172
1700075548,0.9634857177734376,-0.04241943359375,-0.3535003662109375,0.1141593307256698,-0.2301591634750366,0.2652899920940399,61.394378662109375,-65.79110717773438,222.88180541992188
1700075548,0.980865478515625,-0.057861328125,-0.29766845703125,0.1715200841426849,-0.2104102373123169,0.2463008463382721,61.07356262207031,-65.29006958007812,223.3099365234375
1700075548,0.9790802001953124,-0.0854339599609375,-0.2888336181640625,0.1879999935626983,-0.2038125097751617,0.2435300946235656,60.48002624511719,-65.07305908203125,223.01803588867188
1700075548,0.9600372314453124,-0.098052978515625,-0.2985687255859375,0.1353434473276138,-0.1891044080257415,0.2485645413398742,59.9683837890625,-64.37200927734375,223.02017211914065
1700075548,0.9461669921875,-0.1074981689453125,-0.32196044921875,0.1012451276183128,-0.1978824585676193,0.2543872892856598,59.06759643554688,-64.17521667480469,223.03358459472656
1700075548,0.943328857421875,-0.1062774658203125,-0.349517822265625,0.1423944234848022,-0.2233169674873352,0.2530117630958557,58.24798583984375,-64.05149841308594,222.66409301757807
1700075548,0.9497222900390624,-0.06317138671875,-0.3310699462890625,0.2130475640296936,-0.2310622483491897,0.2340356707572937,57.52023315429688,-63.78440856933594,222.43199157714844
1700075548,0.961456298828125,-0.0106353759765625,-0.28424072265625,0.3065905570983886,-0.1984904557466507,0.2046242505311966,56.590240478515625,-63.13394165039063,222.8400421142578
1700075548,0.9574127197265624,0.024871826171875,-0.259796142578125,0.4149377942085266,-0.1567693799734115,0.2024263441562652,55.882080078125,-63.131378173828125,222.9241943359375
1700075549,0.932891845703125,0.0309906005859375,-0.262542724609375,0.5006322264671326,-0.1357304006814956,0.214250773191452,55.28317260742188,-62.77104187011719,222.7366638183593
1700075549,0.93121337890625,-0.00152587890625,-0.2490386962890625,0.5368208289146423,-0.0824248343706131,0.2393292337656021,54.36468505859375,-62.501312255859375,222.69696044921875
1700075549,0.9367523193359376,-0.0918121337890625,-0.2318115234375,0.5453965067863464,-0.0265490524470806,0.3139289021492004,54.085235595703125,-62.05630493164063,222.9143829345703
1700075549,0.926239013671875,-0.1976318359375,-0.2304534912109375,0.5171083807945251,0.0273085869848728,0.4434658586978912,52.830841064453125,-61.61045837402344,222.54318237304688
1700075549,0.9156951904296876,-0.2758026123046875,-0.251129150390625,0.4600725173950195,0.0649188086390495,0.5882555246353149,52.23794555664063,-61.02479553222656,223.10211181640625
1700075549,0.9023284912109376,-0.2894744873046875,-0.29547119140625,0.4358910322189331,0.0721349120140075,0.7112682461738586,51.5977783203125,-60.873870849609375,222.6554412841797
1700075549,0.895233154296875,-0.2352752685546875,-0.3209991455078125,0.3970930278301239,0.084940455853939,0.7991174459457397,50.63252258300781,-60.454345703125,222.5127868652344
1700075549,0.90234375,-0.1592559814453125,-0.3003387451171875,0.3728297650814056,0.1223679929971695,0.8841846585273743,50.09648132324219,-60.2623291015625,222.8500366210937
1700075549,0.8906097412109375,-0.0992431640625,-0.2757568359375,0.3238433301448822,0.1752631664276123,0.9706090092658995,49.75698852539063,-59.70405578613281,222.16510009765625
1700075549,0.884521484375,-0.083221435546875,-0.2785186767578125,0.279512882232666,0.2425178289413452,1.0801749229431152,49.34295654296875,-59.37420654296875,222.78761291503903
1700075549,0.892791748046875,-0.0946044921875,-0.2594757080078125,0.2501443326473236,0.310446560382843,1.2467730045318604,48.94841003417969,-59.23072814941406,222.17323303222656
1700075549,0.88970947265625,-0.066741943359375,-0.23907470703125,0.2431689798831939,0.3832176923751831,1.4022016525268557,48.14076232910156,-58.635986328125,222.7296295166016
1700075549,0.8919830322265625,-0.0292816162109375,-0.197845458984375,0.2065102905035019,0.4962731301784515,1.4889360666275024,47.95115661621094,-59.10015869140625,221.7813720703125
1700075549,0.9019317626953124,-0.0498504638671875,-0.1242218017578125,0.1366707682609558,0.6650853157043457,1.5306196212768557,47.74191284179688,-59.4820556640625,221.70571899414065
1700075549,0.896209716796875,-0.120208740234375,-0.1231842041015625,0.1261331737041473,0.8335922956466675,1.54171621799469,46.98851013183594,-60.02714538574219,221.08453369140625
1700075549,0.91131591796875,-0.1685028076171875,-0.2353515625,0.2862346768379211,0.8403573036193848,1.5577359199523926,47.08460998535156,-59.381683349609375,220.9403686523437
1700075549,0.9524688720703124,-0.1555328369140625,-0.3327484130859375,0.5238595008850098,0.8318729996681213,1.6105042695999146,47.17247009277344,-58.90290832519531,221.27169799804688
1700075549,0.983154296875,-0.040435791015625,-0.4044342041015625,0.6493151783943176,0.7854506373405457,1.6120630502700806,47.51171875,-58.13612365722656,221.32489013671875
1700075549,0.9865875244140624,0.13671875,-0.3918914794921875,0.6405781507492065,0.7749444246292114,1.581777572631836,47.66650390625,-57.50555419921875,220.9929656982422
1700075549,0.9564208984375,0.3066864013671875,-0.365509033203125,0.7569444179534912,0.7934702038764954,1.5076104402542114,47.96580505371094,-57.15135192871094,221.1213531494141
1700075549,0.8741455078125,0.397125244140625,-0.3426971435546875,0.9122298955917358,0.8350101709365845,1.4917513132095337,48.5418701171875,-56.67462158203125,221.8813934326172
1700075549,0.7709197998046875,0.4993438720703125,-0.3338165283203125,1.0869956016540527,0.8684802651405334,1.415230393409729,49.02937316894531,-56.395782470703125,221.13267517089844
1700075549,0.739013671875,0.4520416259765625,-0.2490386962890625,1.1444101333618164,0.9126139283180236,1.4084393978118896,49.077880859375,-56.30776977539063,221.0558624267578
1700075549,0.6935882568359375,0.3462677001953125,-0.21356201171875,1.0733673572540283,0.998747706413269,1.4419925212860107,49.50807189941406,-55.956787109375,221.1768798828125
1700075549,0.6567535400390625,0.1835479736328125,-0.25775146484375,0.8428491950035095,1.081079602241516,1.4990241527557373,50.14228820800781,-55.28581237792969,221.1278839111328
1700075549,0.750518798828125,0.0294647216796875,-0.4052886962890625,0.6601638197898865,1.095972776412964,1.5634212493896484,51.04454040527344,-55.25209045410156,221.1312866210937
1700075549,0.9577178955078124,-0.036651611328125,-0.4963836669921875,0.6405456066131592,1.0690099000930786,1.7397475242614746,51.53797912597656,-54.86631774902344,221.0498962402344
1700075549,1.08599853515625,0.048919677734375,-0.5725860595703125,0.8789936304092407,1.030350923538208,1.848401546478272,52.275970458984375,-54.064849853515625,221.0892028808593
1700075549,1.1396942138671875,0.1505279541015625,-0.557220458984375,1.182778239250183,1.0554208755493164,1.908793568611145,53.236236572265625,-53.2857666015625,220.86572265625
1700075549,1.2049713134765625,0.2677764892578125,-0.4315338134765625,1.3996682167053225,1.0133018493652344,1.99824857711792,54.10543823242188,-52.9344482421875,220.49752807617188
1700075549,1.2898712158203125,0.312957763671875,-0.2797698974609375,1.34961998462677,1.0564004182815552,2.1114296913146973,55.01579284667969,-52.28517150878906,220.77378845214844
1700075549,1.22235107421875,0.26715087890625,-0.3367156982421875,1.2539843320846558,1.086024522781372,2.1796247959136963,56.276397705078125,-51.591796875,220.62567138671875
1700075549,0.9904632568359376,0.2260284423828125,-0.478546142578125,1.1816786527633667,1.067571997642517,2.235946655273437,57.26325988769531,-50.618194580078125,220.67214965820312
1700075549,0.7162322998046875,0.2596282958984375,-0.488677978515625,1.1415762901306152,1.0678136348724363,2.185964584350586,58.5484619140625,-49.49763488769531,221.155990600586
1700075549,0.528167724609375,0.358856201171875,-0.416015625,1.0821655988693235,1.142208695411682,2.0771729946136475,59.76905822753906,-48.82508850097656,221.55532836914065
1700075549,0.5032958984375,0.5330657958984375,-0.389495849609375,1.1806073188781738,1.1325989961624146,1.9282159805297847,61.086700439453125,-48.21549987792969,221.5471954345703
1700075549,0.4737091064453125,0.656280517578125,-0.33123779296875,1.219385266304016,1.097381353378296,1.820910811424256,62.559356689453125,-47.62266540527344,221.4900817871093
1700075549,0.4593505859375,0.7318267822265625,-0.3742523193359375,1.2600600719451904,1.0514130592346191,1.7493377923965454,63.73480224609375,-46.71275329589844,222.20611572265625
1700075549,0.4622802734375,0.7606658935546875,-0.4287261962890625,1.2529182434082031,1.0710514783859253,1.7138605117797852,65.14588928222656,-46.03515625,222.38633728027344
1700075549,0.69085693359375,0.774322509765625,-0.4937286376953125,1.1827417612075806,1.0551185607910156,1.705871343612671,66.49803161621094,-45.46110534667969,222.9589233398437
1700075549,1.34783935546875,0.74334716796875,-0.489532470703125,1.1130084991455078,1.012047290802002,1.875460386276245,67.7550048828125,-45.08152770996094,223.21051025390625
1700075549,1.8484039306640625,0.550628662109375,-0.5594329833984375,1.2003144025802612,0.861497163772583,2.2034952640533447,69.03865051269531,-44.09199523925781,223.573471069336
1700075549,2.095199584960937,0.351837158203125,-0.639923095703125,1.3580137491226196,0.7017674446105957,2.503945589065552,70.37187194824219,-43.07437133789063,224.8348693847656
1700075549,2.310577392578125,0.2544708251953125,-0.5294342041015625,1.3863623142242432,0.6121504902839661,2.7091541290283203,71.66862487792969,-42.14265441894531,225.6763610839844
1700075549,2.3788299560546875,0.1453399658203125,-0.452056884765625,1.3274478912353516,0.4062835872173309,2.798804759979248,73.03256225585938,-41.17729187011719,226.65956115722656
1700075549,2.26513671875,0.025177001953125,-0.5098724365234375,1.2116777896881104,0.1715070456266403,2.698605298995972,74.38223266601562,-39.6558837890625,228.14083862304688
1700075549,1.8978729248046875,-0.0230255126953125,-0.6020355224609375,0.9632445573806764,0.0288215279579162,2.432738304138184,75.35357666015625,-38.45176696777344,229.7755279541016
1700075549,1.46026611328125,0.015899658203125,-0.6130218505859375,0.7073907256126404,-0.0110004534944891,2.1220948696136475,76.73667907714844,-37.111175537109375,230.90841674804688
1700075549,1.069061279296875,0.068511962890625,-0.498748779296875,0.5370749235153198,-0.0718345120549202,1.7572075128555298,77.97650146484375,-35.96379089355469,232.7425537109375
1700075549,0.698760986328125,0.081634521484375,-0.3807525634765625,0.3937760591506958,-0.0865079909563064,1.3228408098220823,78.83338928222656,-34.39546203613281,234.2737579345703
1700075549,0.350006103515625,0.0368499755859375,-0.3526153564453125,0.4238388836383819,0.0024881914723664,0.6908963918685913,79.6343994140625,-33.522491455078125,235.7044677734375
1700075549,0.0572509765625,-0.1470489501953125,-0.34649658203125,0.5924239158630371,-0.0508826225996017,0.1219860911369323,79.99345397949219,-32.30632019042969,237.3669586181641
1700075549,-0.2475738525390625,-0.2605438232421875,-0.31353759765625,0.7774933576583862,-0.1693482846021652,-0.4461718797683716,80.73712158203125,-31.664703369140625,238.4120635986328
1700075549,-0.49371337890625,-0.347900390625,-0.1673583984375,1.2044638395309448,-0.3808807730674743,-1.2763806581497192,81.25421142578125,-30.98095703125,239.93804931640625
1700075549,-0.5989227294921875,-0.546630859375,0.1884307861328125,1.413633108139038,-0.5743833780288696,-2.3629860877990723,81.10494995117188,-30.00962829589844,240.3309936523437
1700075549,-0.5195770263671875,-0.63812255859375,0.2702789306640625,1.0424363613128662,-0.597667396068573,-3.075394630432129,81.00736999511719,-29.261703491210938,242.0420379638672
1700075549,-0.266632080078125,-0.4001007080078125,-0.1985626220703125,0.7168539762496948,-0.6330687999725342,-3.429290771484375,80.78507995605469,-28.370437622070312,242.7950134277344
1700075549,-0.002777099609375,-0.207366943359375,-0.3353424072265625,0.5258486270904541,-0.6609774231910706,-3.744203567504883,80.55755615234375,-27.582275390625,243.94419860839844
1700075549,0.2545928955078125,-0.2812042236328125,-0.117645263671875,0.2891924083232879,-0.6711820960044861,-4.170632362365723,79.65766906738281,-26.74090576171875,245.06375122070312
1700075549,0.5181732177734375,-0.4615325927734375,0.08331298828125,-0.2244954258203506,-0.7122142314910889,-4.414085388183594,78.55599975585938,-25.892593383789062,245.126708984375
1700075549,0.6838531494140625,-0.4636383056640625,0.094024658203125,-0.9838036298751832,-0.7581747770309448,-4.337040901184082,76.68992614746094,-24.33261108398437,246.59619140625
1700075549,0.7708740234375,-0.2688751220703125,-0.0875244140625,-1.731054663658142,-0.8404041528701782,-4.165179252624512,75.28912353515625,-22.966522216796875,247.3478546142578
1700075549,0.8811187744140625,-0.098175048828125,-0.259063720703125,-2.2554588317871094,-0.944741189479828,-4.141422271728516,74.15338134765625,-23.834640502929688,247.20220947265625
1700075549,1.053436279296875,0.0006103515625,-0.3252105712890625,-2.40712571144104,-1.1462393999099731,-4.224330902099609,73.24263000488281,-23.288894653320312,247.0531768798828
1700075549,1.1879119873046875,0.1170501708984375,-0.3025054931640625,-2.199470043182373,-1.3767410516738892,-4.377309322357178,72.10844421386719,-22.85801696777344,246.884521484375
1700075549,1.2562713623046875,0.2714080810546875,-0.300811767578125,-1.7133110761642456,-1.521315574645996,-4.559810161590576,71.33222961425781,-22.27996826171875,246.97369384765625
1700075549,1.276275634765625,0.4895172119140625,-0.342010498046875,-0.8983132839202881,-1.6170543432235718,-4.587636947631836,70.60336303710938,-21.81640625,246.42431640625
1700075549,1.27374267578125,0.785186767578125,-0.3180999755859375,-0.0028839372098445,-1.7507048845291138,-4.447438716888428,69.33775329589844,-22.177719116210938,246.22764587402344
1700075549,1.32269287109375,1.12139892578125,-0.2291412353515625,0.740966796875,-1.8412621021270752,-4.318411350250244,68.07278442382812,-22.24398803710937,245.7705535888672
1700075549,1.3965301513671875,1.420440673828125,-0.158111572265625,1.3797616958618164,-1.7378041744232178,-4.331354141235352,67.01881408691406,-21.83973693847656,244.71710205078125
1700075549,1.4131011962890625,1.6200103759765625,-0.1496734619140625,1.7072322368621826,-1.4961249828338623,-4.379188537597656,66.46479797363281,-21.870819091796875,243.95611572265625
1700075549,1.3589630126953125,1.709869384765625,-0.2959442138671875,1.7281020879745483,-1.2842782735824585,-4.442839622497559,66.203857421875,-21.683380126953125,243.3285369873047
1700075549,1.34771728515625,1.5520477294921875,-0.496826171875,1.428300142288208,-1.171416997909546,-4.308566570281982,66.08523559570312,-22.145584106445312,244.31460571289065
1700075549,1.306121826171875,1.2125244140625,-0.6302032470703125,0.6610056161880493,-1.0555473566055298,-3.970020294189453,65.117919921875,-21.536361694335938,244.4271545410156
1700075549,1.15216064453125,0.96636962890625,-0.7688751220703125,-0.121347464621067,-0.9121947288513184,-3.3987576961517334,63.635528564453125,-21.550369262695312,243.98374938964844
1700075549,0.992950439453125,0.869232177734375,-0.78521728515625,-0.5808881521224976,-0.7929466366767883,-2.754544496536255,62.89190673828125,-21.5540771484375,243.62545776367188
1700075549,0.9041290283203124,0.7963409423828125,-0.664825439453125,-0.8028227090835571,-0.7468422651290894,-2.227022171020508,62.54344177246094,-21.406082153320312,243.2626953125
1700075549,0.9144134521484376,0.731292724609375,-0.50653076171875,-0.7640401124954224,-0.7666878700256348,-1.804742455482483,62.25788879394531,-21.71514892578125,243.2640838623047
1700075549,0.9772796630859376,0.7508087158203125,-0.3287353515625,-0.5655017495155334,-0.8318085074424744,-1.488887071609497,61.83741760253906,-21.246826171875,243.5690155029297
1700075549,1.01202392578125,0.822418212890625,-0.1944580078125,-0.1514869928359985,-0.8201260566711426,-1.331152319908142,61.47296142578125,-20.94085693359375,243.8472442626953
1700075549,1.0152130126953125,0.85595703125,-0.1219024658203125,0.4553792476654053,-0.7448582053184509,-1.2290549278259275,61.66572570800781,-20.991287231445312,244.829818725586
1700075549,0.9675445556640624,0.8761138916015625,-0.1060028076171875,0.9669285416603088,-0.6214520931243896,-1.1065183877944946,61.47343444824219,-20.606719970703125,245.26402282714844
1700075549,0.8612060546875,0.8763427734375,-0.179412841796875,1.2454440593719482,-0.4615460634231567,-0.935765266418457,61.24668884277344,-20.69453430175781,244.867416381836
1700075549,0.7661590576171875,0.77911376953125,-0.25640869140625,1.3247042894363403,-0.2832666039466858,-0.7302818894386292,61.218780517578125,-20.271209716796875,245.20933532714844
1700075549,0.7076873779296875,0.6003265380859375,-0.2909088134765625,1.2365235090255735,-0.1281806081533432,-0.5349278450012207,61.31661987304688,-20.52694702148437,245.32603454589844
1700075549,0.6951141357421875,0.4167633056640625,-0.287841796875,1.0456619262695312,-0.0169808473438024,-0.3527998626232147,61.463714599609375,-20.240158081054688,245.61460876464844
1700075549,0.724609375,0.2782135009765625,-0.2444610595703125,0.8319430351257324,0.0343089699745178,-0.1640954613685608,61.42945861816406,-20.274459838867188,245.1676025390625
1700075549,0.794219970703125,0.18792724609375,-0.1383514404296875,0.6082992553710938,0.026933878660202,-0.0106489155441522,61.6424560546875,-20.4339599609375,245.86666870117188
1700075549,0.8593292236328125,0.1072998046875,-0.031524658203125,0.2719830572605133,0.0080850906670093,0.1453095227479934,61.47770690917969,-20.318084716796875,245.6839141845703
1700075549,0.8838348388671875,0.0716705322265625,-0.0257415771484375,-0.0533851943910121,-0.0013142699608579,0.2456790059804916,61.702728271484375,-20.137710571289062,246.36329650878903
1700075549,0.8573455810546875,0.024871826171875,-0.06781005859375,-0.3491390943527221,0.0396137237548828,0.3518544435501098,61.38551330566406,-19.910675048828125,246.2767944335937
1700075549,0.8218536376953125,0.00201416015625,-0.162078857421875,-0.7332808971405029,0.394620269536972,0.5693953037261963,61.94805908203125,-20.01141357421875,246.61241149902344
1700075549,0.7510986328125,0.0737457275390625,-0.4740142822265625,-1.083235740661621,0.7882583737373352,0.7559225559234619,62.18937683105469,-19.982986450195312,246.8441162109375
1700075549,0.5774993896484375,0.1663055419921875,-0.919281005859375,-1.2903798818588257,0.7497720122337341,1.3427364826202393,62.506134033203125,-19.880203247070312,247.3508758544922
1700075549,0.5788421630859375,0.5135345458984375,-0.9554290771484376,-1.240434646606445,1.5434696674346924,1.6553878784179688,62.292083740234375,-19.8731689453125,247.34019470214844
1700075549,0.6128082275390625,0.63702392578125,-1.7047882080078125,0.0369854494929313,3.72922945022583,1.978442430496216,62.676605224609375,-19.333480834960938,247.71202087402344
1700075549,-0.017974853515625,1.0736083984375,-3.55633544921875,0.2828306257724762,-0.7241475582122803,2.56410551071167,62.57441711425781,-19.418716430664062,247.7315216064453
1700075549,1.7306976318359375,1.313262939453125,-0.168060302734375,0.0677273795008659,-1.3348718881607056,0.7251619696617126,62.57112121582031,-19.599838256835938,248.3195953369141
1700075549,3.839813232421875,-0.5360565185546875,0.869384765625,1.196293592453003,1.2234764099121094,-0.5326508283615112,62.53814697265625,-19.471267700195312,248.4448699951172
1700075550,2.1693267822265625,-1.539093017578125,0.630889892578125,1.4372951984405518,1.921901106834412,-0.2853901982307434,62.13551330566406,-19.34262084960937,248.96694946289065
1700075550,0.9429168701171876,-1.0109405517578125,0.91650390625,0.7275066375732422,1.268330454826355,0.3677537739276886,61.99212646484375,-19.063766479492188,248.6787109375
1700075550,0.628875732421875,-0.4886322021484375,-0.157623291015625,0.0284830406308174,0.5564038753509521,0.8681433796882629,62.1357421875,-19.46978759765625,248.6469268798828
1700075550,0.809051513671875,-0.438629150390625,-0.1896209716796875,-0.3763621747493744,0.5727639198303223,1.2399523258209229,61.90966796875,-19.11907958984375,249.33416748046875
1700075550,1.2076873779296875,-0.4405364990234375,0.197662353515625,-0.8323984146118164,0.908187210559845,1.5707334280014038,61.52735900878906,-19.16729736328125,249.0260772705078
1700075550,1.3041839599609375,-0.010162353515625,0.1476287841796875,-1.2451151609420776,0.8366155624389648,1.6701297760009766,61.46826171875,-18.978973388671875,250.00534057617188
1700075550,1.364776611328125,0.2726287841796875,0.0169677734375,-1.13403582572937,0.7106597423553467,1.216097354888916,61.63710021972656,-18.69805908203125,249.87228393554688
1700075550,1.3383941650390625,0.3463134765625,-0.269622802734375,-0.8055412173271179,0.6549067497253418,0.582874059677124,60.992218017578125,-18.172607421875,250.40875244140625
1700075550,1.2696380615234375,0.260009765625,-0.4757080078125,-0.0413080267608165,0.3561096489429474,0.2461360096931457,60.50750732421875,-17.949462890625,250.8115234375
1700075550,1.230804443359375,0.08099365234375,-0.3310546875,0.2207576781511306,0.2028971910476684,0.277941882610321,60.08950805664063,-18.008255004882812,250.7861785888672
1700075550,1.6478729248046875,0.01129150390625,-0.161102294921875,-0.092625007033348,0.2363946884870529,0.4273103177547455,59.48971557617188,-17.798324584960938,251.9971923828125
1700075550,2.354705810546875,-0.0759124755859375,0.009552001953125,-0.3814139366149902,0.5932918190956116,0.9157170057296752,59.07760620117188,-17.423248291015625,252.4346466064453
1700075550,2.3309326171875,-0.0125274658203125,-0.1349945068359375,-0.3941225409507751,0.4045389592647552,1.3248072862625122,58.67756652832031,-17.106307983398438,253.0790557861328
1700075550,1.48638916015625,0.2527313232421875,-0.229461669921875,-0.3222630023956299,0.0574891269207,1.084307074546814,57.82086181640625,-16.8311767578125,254.1109771728516
1700075550,0.909149169921875,0.288665771484375,-0.4283905029296875,-0.3835641741752624,-0.027654530480504,0.5872011780738831,56.9459228515625,-16.646835327148438,254.58238220214844
1700075550,0.6367645263671875,0.3575286865234375,-0.442413330078125,-0.069967895746231,0.0969688892364502,0.3661931753158569,56.36796569824219,-16.460861206054688,255.69293212890625
1700075550,0.444305419921875,0.3760986328125,-0.3065948486328125,0.3766018748283386,0.1058843582868576,0.2835182547569275,55.846466064453125,-16.0469970703125,256.646484375
1700075550,0.6568450927734375,0.2340240478515625,-0.2842254638671875,0.5873830914497375,-0.007088269572705,0.298013836145401,54.78411865234375,-15.944961547851562,257.360107421875
1700075550,0.9847412109375,0.1555633544921875,-0.3130035400390625,0.5691004991531372,-0.0074560521170496,0.3122527003288269,53.9742431640625,-15.580062866210938,258.4196472167969
1700075550,1.0902862548828125,0.0691375732421875,-0.3042755126953125,0.4050348401069641,0.0615318045020103,0.2968162298202514,53.08912658691406,-15.244094848632812,259.3374328613281
1700075550,1.0856781005859375,-0.055999755859375,-0.294158935546875,0.2716386914253235,0.0872185230255127,0.408964604139328,52.13661193847656,-14.686050415039062,260.31689453125
1700075550,0.997314453125,-0.0629730224609375,-0.3099517822265625,0.1784086227416992,0.0636234506964683,0.5431996583938599,50.8980712890625,-14.757522583007812,261.2620849609375
1700075550,0.9279327392578124,0.019439697265625,-0.337310791015625,0.0894811451435089,0.0724299922585487,0.5607568025588989,49.84513854980469,-14.421676635742188,262.62139892578125
1700075550,0.939666748046875,0.056610107421875,-0.325775146484375,0.0616606995463371,0.099732719361782,0.5611679553985596,49.095733642578125,-14.167236328125,263.5995178222656
1700075550,0.8884124755859375,0.106231689453125,-0.315948486328125,0.1001961082220077,0.0968881994485855,0.5740699172019958,48.2371826171875,-13.81378173828125,265.3804931640625
1700075550,0.836334228515625,0.1824798583984375,-0.3075103759765625,0.1391650736331939,0.1122205480933189,0.5633382201194763,47.29461669921875,-13.524810791015623,267.04217529296875
1700075550,0.850921630859375,0.2447662353515625,-0.2431182861328125,0.1980707347393036,0.1751302778720855,0.5457203388214111,47.17979431152344,-12.999954223632812,269.25592041015625
1700075550,0.873687744140625,0.2560577392578125,-0.20501708984375,0.3319118916988373,0.2381992489099502,0.5647355318069458,46.81477355957031,-12.840438842773438,271.43194580078125
1700075550,0.8810272216796875,0.196136474609375,-0.232666015625,0.5023906826972961,0.2794971466064453,0.67888343334198,46.31982421875,-12.31182861328125,273.33367919921875
1700075550,0.8741455078125,0.11663818359375,-0.2384033203125,0.5312089920043945,0.3921621739864349,0.8020147085189819,45.8404541015625,-11.56597900390625,275.8848876953125
1700075550,0.8935699462890625,0.01507568359375,-0.2248382568359375,0.4600504338741302,0.4965069591999054,0.9402817487716676,45.73048400878906,-11.575424194335938,277.4764404296875
1700075550,0.9214324951171876,-0.09405517578125,-0.1691131591796875,0.3779475688934326,0.6099139451980591,1.1406593322753906,46.0516357421875,-11.284957885742188,278.948974609375
1700075550,0.9010467529296876,-0.13519287109375,-0.24725341796875,0.3734811842441559,0.6670590043067932,1.3383502960205078,46.323516845703125,-10.401092529296877,280.16748046875
1700075550,0.88983154296875,-0.140838623046875,-0.3240203857421875,0.400670975446701,0.7036974430084229,1.5168156623840332,47.33992004394531,-10.183822631835938,281.42010498046875
1700075550,0.8566436767578125,-0.0292816162109375,-0.3514556884765625,0.3970341682434082,0.7317559719085693,1.5765076875686646,48.14321899414063,-9.529647827148438,282.7403564453125
1700075550,0.840576171875,0.20367431640625,-0.32855224609375,0.4660521149635315,0.8016597032546997,1.5460494756698608,50.21437072753906,-9.298385620117188,284.4784851074219
1700075550,0.8628997802734375,0.3886871337890625,-0.2620391845703125,0.7013970017433167,0.8677660226821899,1.4789239168167114,52.38423156738281,-8.69854736328125,286.1685791015625
1700075550,0.9132080078125,0.4224395751953125,-0.2013702392578125,0.9738458395004272,0.9124157428741456,1.4903990030288696,53.64132690429688,-8.04705810546875,287.79400634765625
1700075550,0.960174560546875,0.324371337890625,-0.2658538818359375,1.0871998071670532,0.906403124332428,1.570344090461731,56.008087158203125,-7.535476684570312,288.15338134765625
1700075550,0.964935302734375,0.1593475341796875,-0.338348388671875,1.0350583791732788,0.910875678062439,1.739702820777893,58.15007019042969,-6.846954345703125,289.157470703125
1700075550,0.842376708984375,0.1163330078125,-0.48736572265625,0.9225360155105592,0.8846110105514526,1.879926443099976,60.5377197265625,-5.8432464599609375,289.1493835449219
1700075550,0.7913665771484375,0.23016357421875,-0.540130615234375,0.8929629921913147,0.9143617153167723,1.9254124164581297,62.84515380859375,-4.595977783203125,289.1649169921875
1700075550,0.9295501708984376,0.3342742919921875,-0.3962249755859375,0.949437975883484,0.9395973086357116,1.9873127937316888,65.67414855957031,-3.55816650390625,289.0355224609375
1700075550,1.0356903076171875,0.391143798828125,-0.304168701171875,0.9722127914428712,0.9203610420227052,2.041783809661865,68.78938293457031,-2.49127197265625,288.2158508300781
1700075550,1.1426239013671875,0.41253662109375,-0.3627777099609375,0.8748814463615417,0.8482778072357178,2.182801008224488,72.38442993164062,-1.6006011962890625,287.3641357421875
1700075550,1.2588958740234375,0.4335174560546875,-0.3440704345703125,0.7576560378074646,0.8342735767364502,2.344588041305542,75.85382080078125,-1.0751953125,286.5240783691406
1700075550,1.123016357421875,0.3560943603515625,-0.35076904296875,0.6849466562271118,0.7824966311454773,2.484919786453247,79.8524169921875,-0.28619384765625,285.55517578125
1700075550,0.88165283203125,0.3564300537109375,-0.42230224609375,0.6859986186027527,0.769520103931427,2.5,83.58772277832031,0.339599609375,284.6482849121094
1700075550,0.841949462890625,0.4721832275390625,-0.4420166015625,0.7251750230789185,0.7676564455032349,2.454454183578491,87.77297973632812,0.4970245361328125,283.8818359375
1700075550,0.903106689453125,0.530792236328125,-0.417633056640625,0.8063665628433228,0.7807890176773071,2.4081079959869385,91.83892822265624,0.538330078125,283.4256896972656
1700075550,0.8521270751953125,0.4529571533203125,-0.4326324462890625,0.8494042754173279,0.7843504548072815,2.3826382160186768,96.53317260742188,0.3180999755859375,283.5404663085937
1700075550,0.7049713134765625,0.46173095703125,-0.5270843505859375,0.8476521968841553,0.7194218039512634,2.28507399559021,100.90940856933594,-0.4105224609375,282.96002197265625
1700075550,0.78338623046875,0.6106719970703125,-0.609771728515625,0.945481538772583,0.6245549321174622,2.20920205116272,106.01681518554688,-1.2979888916015625,283.26104736328125
1700075550,0.960784912109375,0.6921234130859375,-0.526947021484375,0.9930589199066162,0.5572118759155273,2.214164972305298,110.51246643066406,-2.4673004150390625,283.7703857421875
1700075550,1.1893463134765625,0.7142791748046875,-0.4586181640625,0.956223964691162,0.4830806255340576,2.327247142791748,115.06550598144533,-4.212677001953125,283.6506652832031
1700075550,1.4836273193359375,0.6393890380859375,-0.4405670166015625,0.8260923027992249,0.3687468767166137,2.500963926315308,119.727294921875,-6.43292236328125,285.3954467773437
1700075550,1.7704315185546875,0.5437469482421875,-0.4554901123046875,0.6742074489593506,0.2733825445175171,2.696107864379883,124.65495300292967,-8.863754272460938,286.84259033203125
1700075550,1.9251556396484373,0.4740142822265625,-0.496551513671875,0.4648869931697845,0.1212140396237373,2.818405866622925,129.15158081054688,-12.75396728515625,288.0493469238281
1700075550,1.9971771240234373,0.3876800537109375,-0.5374298095703125,0.2251873165369033,-0.1127643659710884,2.8374080657958984,133.38963317871094,-16.709625244140625,289.3666076660156
1700075550,1.9801788330078125,0.2868194580078125,-0.5551300048828125,0.0727200135588646,-0.3299739062786102,2.6460206508636475,137.8369903564453,-21.0889892578125,291.5487060546875
1700075550,1.8563690185546875,0.21331787109375,-0.5815277099609375,0.0262007117271423,-0.5579698085784912,2.160540819168091,142.04928588867188,-26.055465698242188,293.1311340332031
1700075550,1.6246795654296875,0.1116943359375,-0.5946197509765625,-0.1701594740152359,-0.6366906762123108,1.6351561546325684,145.9797821044922,-31.042739868164062,294.62701416015625
1700075550,1.22296142578125,0.0234222412109375,-0.569671630859375,-0.3343825042247772,-0.3933677971363067,1.1653615236282349,148.76278686523438,-37.22264099121094,296.1420288085937
1700075550,0.623199462890625,-0.10211181640625,-0.626678466796875,-0.854697585105896,-0.172989085316658,1.1822693347930908,151.65663146972656,-43.105560302734375,297.49267578125
1700075550,-0.1947021484375,0.0710601806640625,-0.68194580078125,-1.067863702774048,-0.1861797273159027,0.7928709983825684,154.00804138183594,-48.96580505371094,298.670166015625
1700075550,-0.60986328125,-0.0448150634765625,-0.406951904296875,-0.4777034521102905,-0.4304832220077514,0.0153991961851716,155.38623046875,-54.927337646484375,299.2286071777344
1700075550,-0.82861328125,-0.21539306640625,0.1045379638671875,0.1211807504296302,-0.609759509563446,-0.7420325875282288,156.32080078125,-60.64533996582031,300.1383972167969
1700075550,-0.690460205078125,-0.1765899658203125,0.4073333740234375,0.1981943100690841,-0.8900766372680664,-1.420726656913757,157.30006408691406,-66.36618041992188,300.8837280273437
1700075550,-0.1064910888671875,-0.04449462890625,0.2041168212890625,0.1049269512295723,-1.1981769800186155,-2.1621217727661133,157.2379913330078,-70.95008850097656,301.9398193359375
1700075550,0.2720489501953125,-0.30548095703125,-0.0921173095703125,0.0714502111077308,-1.2628309726715088,-2.665785074234009,156.88232421875,-75.71195983886719,303.2890014648437
1700075550,0.2612152099609375,-0.54827880859375,-0.0949554443359375,0.0344882011413574,-1.197065353393555,-2.9594268798828125,156.1045684814453,-79.34695434570312,303.981689453125
1700075550,0.2232818603515625,-0.5983123779296875,-0.0752105712890625,-0.2002257704734802,-1.191229224205017,-3.131279230117798,155.5415802001953,-82.27534484863281,305.23980712890625
1700075550,0.2655487060546875,-0.42364501953125,-0.144744873046875,-0.4555065333843231,-1.1624362468719482,-3.276974439620972,155.13734436035156,-84.48443603515625,306.5676574707031
1700075550,0.324249267578125,-0.19500732421875,-0.19610595703125,-0.6676435470581055,-1.06936514377594,-3.41555404663086,155.05462646484375,-86.16220092773438,306.90185546875
1700075550,0.390869140625,-0.053955078125,-0.199951171875,-0.9569445848464966,-0.9397440552711488,-3.5335798263549805,155.2137908935547,-87.95217895507812,306.9958801269531
1700075550,0.4695281982421875,0.0276947021484375,-0.1969451904296875,-1.3049153089523315,-0.9176930785179138,-3.611464262008667,155.03244018554688,-89.2183837890625,306.706298828125
1700075550,0.5677490234375,0.114837646484375,-0.2023468017578125,-1.4429619312286377,-1.0528689622879028,-3.72922158241272,155.42901611328125,-89.58770751953125,307.669921875
1700075550,0.702239990234375,0.1917266845703125,-0.1745758056640625,-1.2916715145111084,-1.2712771892547607,-3.9402453899383545,155.9527130126953,-88.52557373046875,307.12384033203125
1700075550,0.84674072265625,0.245819091796875,-0.1314544677734375,-0.9248668551445008,-1.437348246574402,-4.222412586212158,156.4779815673828,-88.24699401855469,307.3867492675781
1700075550,0.945892333984375,0.2863311767578125,-0.0945281982421875,-0.4769010543823242,-1.4854356050491333,-4.438261985778809,156.90101623535156,-89.25093078613281,307.513916015625
1700075550,0.9721221923828124,0.375457763671875,-0.04644775390625,-0.038656048476696,-1.4441853761672974,-4.480400085449219,156.9612274169922,-91.08235168457033,307.02081298828125
1700075550,0.9886016845703124,0.5379486083984375,-0.0638580322265625,0.4108301401138305,-1.4736279249191284,-4.397417068481445,157.12539672851562,-90.66043090820312,307.089599609375
1700075550,1.0352020263671875,0.7047576904296875,-0.0978240966796875,0.7062743306159973,-1.5093209743499756,-4.390471458435059,157.12838745117188,-87.96319580078125,306.9500732421875
1700075550,1.1162872314453125,0.79205322265625,-0.225067138671875,0.7870208024978638,-1.4677461385726929,-4.456607341766357,156.4403533935547,-84.54058837890625,307.3517761230469
1700075550,1.1714935302734375,0.8506011962890625,-0.3943939208984375,0.7525097131729126,-1.3139770030975342,-4.454474925994873,156.376953125,-81.08282470703125,307.14306640625
1700075550,1.1439208984375,0.9688873291015624,-0.5629730224609375,0.54871666431427,-1.1965665817260742,-4.363557815551758,156.48895263671875,-78.75486755371094,306.2875061035156
1700075550,1.10833740234375,1.082672119140625,-0.6624908447265625,0.0231031887233257,-1.1172679662704468,-4.222207069396973,156.27891540527344,-77.32231140136719,306.3041687011719
1700075550,1.1596832275390625,1.1323394775390625,-0.736419677734375,-0.4311476647853851,-1.031989812850952,-4.14981746673584,156.3544921875,-76.61227416992188,305.3734130859375
1700075550,1.2495269775390625,0.9723052978515624,-0.656585693359375,-0.7637237310409546,-0.9612706303596495,-4.061079978942871,156.40574645996094,-76.19548034667969,305.40606689453125
1700075550,1.26983642578125,0.7818450927734375,-0.516510009765625,-0.6680704951286316,-0.9173652529716492,-3.729286193847656,156.37985229492188,-75.48599243164062,305.0273742675781
1700075550,1.2546539306640625,0.763275146484375,-0.4012603759765625,-0.3695625960826874,-0.9940150380134584,-3.279987335205078,156.80198669433594,-75.25180053710938,305.4604797363281
1700075550,1.243133544921875,0.798919677734375,-0.3071746826171875,-0.092745117843151,-1.0961315631866455,-2.891258716583252,156.5044708251953,-74.54486083984375,304.85693359375
1700075550,1.2243499755859375,0.8211669921875,-0.289886474609375,0.0670051351189613,-1.1173806190490725,-2.550693988800049,156.66590881347656,-74.52854919433594,304.8668212890625
1700075550,1.168914794921875,0.8523712158203125,-0.31805419921875,0.1746988445520401,-1.0128095149993896,-2.199481010437012,156.63272094726562,-74.14822387695312,304.6146240234375
1700075550,1.1274566650390625,0.9086761474609376,-0.321136474609375,0.3835777640342712,-0.9006917476654053,-1.838538765907288,156.4873504638672,-73.82839965820312,304.60418701171875
1700075550,1.119140625,0.9567718505859376,-0.3045806884765625,0.5065100789070129,-0.8117805123329163,-1.500999093055725,156.6476593017578,-73.12677001953125,304.415771484375
1700075550,1.0964813232421875,0.978607177734375,-0.3500823974609375,0.381393164396286,-0.6632951498031616,-1.2526087760925293,156.3922576904297,-72.6143798828125,304.63507080078125
1700075550,0.9542388916015624,0.8814239501953125,-0.4779510498046875,0.1400346010923385,-0.3958293497562408,-0.9556588530540466,156.01170349121094,-72.45989990234375,304.5424194335937
1700075550,0.68597412109375,0.676483154296875,-0.517486572265625,-0.1502771228551864,-0.1105470135807991,-0.6398979425430298,156.30491638183594,-71.87947082519531,304.04888916015625
1700075550,0.4918212890625,0.4511871337890625,-0.462799072265625,-0.3916591107845306,0.1365839391946792,-0.2829563319683075,155.9952392578125,-71.71734619140625,304.6343994140625
1700075551,0.43670654296875,0.316558837890625,-0.3629913330078125,-0.5528022050857544,0.3189297914505005,0.1372135132551193,155.8167266845703,-71.30682373046875,305.0466613769531
1700075551,0.48553466796875,0.273590087890625,-0.28759765625,-0.6596918702125549,0.3976349830627441,0.6002439856529236,156.13327026367188,-71.33059692382812,304.2568054199219
1700075551,0.6099853515625,0.3126220703125,-0.2941741943359375,-0.6120029091835022,0.3741280436515808,0.9126408100128174,155.88414001464844,-71.31272888183594,305.19708251953125
1700075551,0.7584991455078125,0.3535003662109375,-0.3333892822265625,-0.5167914628982544,0.6086340546607971,1.058369517326355,155.4387969970703,-71.33268737792969,304.8096923828125
1700075551,0.8437042236328125,0.4007415771484375,-0.5341949462890625,-0.4124898314476013,0.8171188235282898,1.090654969215393,155.62852478027344,-70.71609497070312,305.1212158203125
1700075551,0.6038360595703125,0.4826507568359375,-0.75286865234375,-0.1018065214157104,0.7234588861465454,1.222230315208435,155.68240356445312,-70.7098388671875,304.92974853515625
1700075551,0.7504425048828125,0.5476837158203125,-0.4640350341796875,0.2524439692497253,2.6144800186157227,1.3549751043319702,155.92782592773438,-70.73052978515625,305.2044372558594
1700075551,0.5756072998046875,0.581573486328125,-1.6736297607421875,1.6401513814926147,4.442113876342773,2.0691263675689697,155.20480346679688,-70.05659484863281,305.80914306640625
1700075551,-0.334747314453125,1.450103759765625,-3.564071655273437,0.3743498921394348,-1.416201114654541,2.592116117477417,155.3955078125,-69.95657348632812,305.770751953125
1700075551,2.887847900390625,1.170501708984375,1.1896820068359375,-0.3050152957439422,-0.6107983589172363,0.1361397355794906,155.13824462890625,-70.02613830566406,306.0885009765625
1700075551,4.233551025390625,-1.2973785400390625,0.133453369140625,0.7983874678611755,1.5315476655960083,-0.8956050872802734,155.05508422851562,-69.55744934082031,306.1912841796875
1700075551,2.09881591796875,-1.7275390625,0.6330108642578125,1.2823357582092283,1.812171936035156,-0.2532823383808136,154.998779296875,-69.99783325195312,306.12335205078125
1700075551,0.92181396484375,-1.113067626953125,1.1259765625,0.2818937301635742,1.188749074935913,1.0956298112869265,155.2680206298828,-69.83781433105469,305.8392639160156
1700075551,0.409271240234375,-0.4626007080078125,-0.0373687744140625,-0.5782958269119263,0.61454838514328,1.6241447925567627,155.18096923828125,-69.93681335449219,306.11407470703125
1700075551,0.5366668701171875,-0.545379638671875,-0.2469482421875,-0.9391046166419984,0.8174213171005249,1.5595241785049438,155.05726623535156,-69.89680480957031,305.92877197265625
1700075551,1.0103607177734375,-0.6109771728515625,0.03167724609375,-1.383674383163452,1.0394905805587769,1.7485990524291992,154.96600341796875,-69.73452758789062,306.4832763671875
1700075551,1.3427734375,-0.119110107421875,-0.0526275634765625,-1.7021982669830322,0.835713267326355,1.7768455743789673,154.96910095214844,-69.11981201171875,306.02947998046875
1700075551,1.5995330810546875,0.1697845458984375,-0.2214202880859375,-1.4236258268356323,0.2630537450313568,1.4981943368911743,154.98255920410156,-68.68675231933594,305.78662109375
1700075551,1.815582275390625,0.3149261474609375,-0.053985595703125,-1.2852157354354858,0.3204291462898254,1.1664490699768066,154.79991149902344,-68.18766784667969,305.76739501953125
1700075551,2.308944702148437,0.264678955078125,-0.0083160400390625,-0.4205368459224701,0.8601613640785217,0.9433928728103638,154.54139709472656,-67.71835327148438,306.0817565917969
1700075551,2.955078125,-0.040191650390625,0.2929229736328125,0.1465553492307663,1.1062227487564087,1.5331823825836182,154.34352111816406,-66.70561218261719,305.5417175292969
1700075551,2.305038452148437,0.2292022705078125,0.10772705078125,0.2063928544521331,0.7107444405555725,1.8193882703781128,154.1682891845703,-66.04959106445312,305.81500244140625
1700075551,1.074798583984375,0.4560699462890625,-0.4497222900390625,0.0982466787099838,0.0895186960697174,1.2080897092819214,153.939697265625,-65.13632202148438,305.10797119140625
1700075551,0.539825439453125,0.3273162841796875,-0.879730224609375,-0.1947889328002929,-0.1595334708690643,0.5385252833366394,154.09869384765625,-64.14529418945312,304.63653564453125
1700075551,0.3886260986328125,0.396697998046875,-0.853668212890625,0.1661644726991653,0.0063388561829924,0.3710246682167053,153.79647827148438,-62.68072509765625,304.347900390625
1700075551,0.50115966796875,0.48675537109375,-0.290618896484375,0.5032897591590881,0.0874361023306846,0.2834266424179077,153.74282836914062,-61.56925964355469,303.94610595703125
1700075551,0.7993927001953125,0.3636322021484375,-0.1059722900390625,0.3901373744010925,-0.0387926697731018,0.1834257543087005,153.75489807128906,-60.21437072753906,303.5429077148437
1700075551,1.0132904052734375,0.331329345703125,-0.3455810546875,0.2372224032878875,-0.1226220577955246,0.1021167784929275,153.46881103515625,-59.168792724609375,302.67681884765625
1700075551,1.0861968994140625,0.2501373291015625,-0.4356536865234375,0.1287973970174789,-0.1162850633263588,0.0561580769717693,153.94805908203125,-57.66548156738281,301.8452453613281
1700075551,1.102081298828125,0.04541015625,-0.3300018310546875,0.0686128810048103,-0.0836730599403381,0.2086890339851379,153.46820068359375,-57.09980773925781,301.8178405761719
1700075551,1.048126220703125,-0.0301666259765625,-0.261444091796875,-0.0529750660061836,-0.062684953212738,0.3964565396308899,152.9064483642578,-55.96134948730469,301.4855041503906
1700075551,1.0172882080078125,-0.0309600830078125,-0.3000030517578125,-0.1528635770082473,-0.0454742759466171,0.5065444111824036,152.587890625,-54.82905578613281,300.563232421875
1700075551,1.0139617919921875,-0.0224761962890625,-0.3262176513671875,-0.180250734090805,-0.0323872342705726,0.5624865293502808,153.05931091308594,-54.1519775390625,299.4988708496094
1700075551,0.932647705078125,0.031951904296875,-0.3209686279296875,-0.1424314528703689,-0.0203060712665319,0.5876938700675964,152.89735412597656,-53.148223876953125,299.764892578125
1700075551,0.8500518798828125,0.0963287353515625,-0.2950286865234375,-0.008037419989705,0.0288923680782318,0.5826245546340942,152.8509521484375,-52.75563049316406,299.02911376953125
1700075551,0.7984619140625,0.1619873046875,-0.2633514404296875,0.1992212235927581,0.1034230589866638,0.5830274820327759,152.50054931640625,-51.78205871582031,298.80029296875
1700075551,0.7942352294921875,0.1996917724609375,-0.2125396728515625,0.357712060213089,0.1991309374570846,0.6118268966674805,152.68519592285156,-50.22100830078125,298.1148681640625
1700075551,0.8403778076171875,0.1782073974609375,-0.2030029296875,0.4542132914066314,0.2873657345771789,0.6991543769836426,152.79681396484375,-49.521575927734375,297.49285888671875
1700075551,0.8865814208984375,0.0989990234375,-0.2032318115234375,0.4807333350181579,0.3744668066501617,0.8529402017593384,152.4011688232422,-48.25679016113281,296.6668701171875
1700075551,0.8893280029296875,0.0184783935546875,-0.20703125,0.4767199456691742,0.4502425193786621,1.0630271434783936,152.43136596679688,-47.40542602539063,296.35125732421875
1700075551,0.8638763427734375,-0.018798828125,-0.2017822265625,0.3737469613552093,0.5620582699775696,1.2047200202941897,151.97250366210938,-46.06330871582031,295.19879150390625
1700075551,0.895843505859375,-0.0928802490234375,-0.229400634765625,0.3441906571388244,0.6466067433357239,1.3640117645263672,151.23770141601562,-45.02047729492188,295.2333068847656
1700075551,0.87982177734375,-0.0848541259765625,-0.2998809814453125,0.4357685148715973,0.6925150752067566,1.54207444190979,150.9912109375,-43.29377746582031,294.6307983398437
1700075551,0.8515472412109375,0.035308837890625,-0.3370513916015625,0.4928472638130188,0.710188090801239,1.5913734436035156,150.01388549804688,-42.338775634765625,293.8531494140625
1700075551,0.920562744140625,0.1837005615234375,-0.267974853515625,0.5524770021438599,0.7947554588317871,1.6111493110656738,149.04457092285156,-40.92076110839844,293.79595947265625
1700075551,0.9338836669921876,0.30767822265625,-0.2659759521484375,0.7420826554298401,0.8558709621429443,1.5950244665145874,148.59075927734375,-39.550201416015625,293.5181579589844
1700075551,0.903594970703125,0.2934417724609375,-0.2672576904296875,0.9624482989311218,0.9050981998443604,1.6174415349960327,148.04266357421875,-38.41639709472656,292.88671875
1700075551,0.8235015869140625,0.279327392578125,-0.3329010009765625,1.0581727027893066,0.909319281578064,1.667918086051941,147.4784698486328,-37.08074951171875,292.16534423828125
1700075551,0.756561279296875,0.3207244873046875,-0.3558807373046875,1.0389643907546997,0.9468504190444946,1.7106319665908811,146.9132843017578,-36.47444152832031,292.0846862792969
1700075551,0.760528564453125,0.3572998046875,-0.355072021484375,1.0107399225234983,0.9861629605293274,1.7293782234191897,146.79421997070312,-35.05915832519531,291.7908935546875
1700075551,0.8550567626953125,0.343780517578125,-0.3582305908203125,1.0365108251571655,1.0268986225128174,1.7572205066680908,146.3159942626953,-34.06407165527344,291.60211181640625
1700075551,0.9772796630859376,0.2963409423828125,-0.3744659423828125,1.0166372060775757,1.0611921548843384,1.834666013717652,145.86228942871094,-33.519073486328125,291.12286376953125
1700075551,0.9892578125,0.27838134765625,-0.4586181640625,1.0373244285583496,1.0256584882736206,1.9999096393585205,144.89102172851562,-32.28373718261719,291.0065612792969
1700075551,0.959014892578125,0.310272216796875,-0.459716796875,1.026682734489441,0.9890082478523254,2.1596055030822754,143.55661010742188,-30.95736694335937,290.6087341308594
1700075551,1.067138671875,0.3680572509765625,-0.393585205078125,0.9225269556045532,0.9799348711967468,2.2238552570343018,141.78762817382812,-29.616607666015625,290.64361572265625
1700075551,1.1729888916015625,0.40374755859375,-0.40069580078125,0.8472450375556946,0.9625529646873474,2.2915749549865723,139.45762634277344,-28.870437622070312,290.6766357421875
1700075551,1.1396942138671875,0.44049072265625,-0.4424285888671875,0.9241024851799012,0.9330347776412964,2.411741256713867,137.34109497070312,-27.6463623046875,291.0841064453125
1700075551,0.9537353515625,0.4432830810546875,-0.4497222900390625,0.9718306064605712,0.9053362607955932,2.4777426719665527,134.8058319091797,-26.826248168945312,291.5397644042969
1700075551,1.000762939453125,0.507843017578125,-0.4293670654296875,0.9458999633789062,0.8754396438598633,2.498974800109864,132.02175903320312,-25.82308959960937,292.032958984375
1700075551,1.147125244140625,0.5418853759765625,-0.4007415771484375,0.9249688386917114,0.8606953024864197,2.5617828369140625,129.6397247314453,-25.517257690429688,292.6861267089844
1700075551,1.113311767578125,0.4683990478515625,-0.4403228759765625,0.8598862290382385,0.7689257264137268,2.6315395832061768,127.71575927734376,-25.685943603515625,292.2569885253906
1700075551,1.0409088134765625,0.521636962890625,-0.55322265625,0.8846940994262695,0.678429365158081,2.627327442169189,125.809326171875,-25.5880126953125,292.5290832519531
1700075551,1.120758056640625,0.6097412109375,-0.5431671142578125,0.9379631876945496,0.6792240738868713,2.603842735290528,124.50773620605467,-25.918853759765625,292.7235717773437
1700075551,1.227294921875,0.5933074951171875,-0.4944915771484375,0.9869190454483032,0.6312608122825623,2.6208863258361816,123.48980712890624,-26.78950500488281,292.6077880859375
1700075551,1.345367431640625,0.5736236572265625,-0.560943603515625,0.975964367389679,0.4980004727840423,2.6455509662628174,122.7739715576172,-27.928756713867188,292.72906494140625
1700075551,1.5536041259765625,0.546051025390625,-0.5880279541015625,0.9088109135627748,0.3877645134925842,2.654352188110352,122.52127075195312,-29.345535278320312,293.2107238769531
1700075551,1.6832733154296875,0.4643096923828125,-0.58319091796875,0.7930986881256104,0.2341957241296768,2.6001670360565186,123.03094482421876,-31.79823303222656,294.5751953125
1700075551,1.717987060546875,0.3760986328125,-0.530914306640625,0.5227540135383606,0.0454255379736423,2.4296209812164307,123.2790069580078,-34.4656982421875,295.06646728515625
1700075551,1.7069549560546875,0.2743988037109375,-0.4785003662109375,0.2287418395280838,-0.1512542366981506,2.168553352355957,124.6549835205078,-37.35150146484375,295.7633056640625
1700075551,1.5509185791015625,0.1537628173828125,-0.4326019287109375,0.1437856703996658,-0.2474769055843353,1.882787823677063,125.37771606445312,-40.15907287597656,296.0316162109375
1700075551,1.2135467529296875,0.1063385009765625,-0.4551239013671875,-0.1255752295255661,-0.130430981516838,1.646038293838501,126.23715209960938,-43.57801818847656,296.888427734375
1700075551,0.6957550048828125,0.16107177734375,-0.672698974609375,-0.452526181936264,0.0094667384400963,1.2905471324920654,126.92514038085938,-46.76158142089844,297.4989318847656
1700075551,0.3204498291015625,0.126007080078125,-0.6107635498046875,-0.6369064450263977,0.0825257673859596,0.9252588748931884,127.53636169433594,-49.668548583984375,298.0765075683594
1700075551,0.0538330078125,0.04449462890625,-0.478668212890625,-0.6274167895317078,-0.0137445740401744,0.4644419848918915,127.79103088378906,-51.99491882324219,298.5206298828125
1700075551,-0.2096710205078125,-0.067169189453125,-0.4193267822265625,-0.3482008576393127,-0.2240932881832122,-0.1172025203704834,128.2902069091797,-54.79432678222656,298.5289306640625
1700075551,-0.444549560546875,-0.1785430908203125,-0.19805908203125,-0.0022290658671408,-0.4512057900428772,-0.8025036454200745,127.6045379638672,-57.11349487304688,299.3121643066406
1700075551,-0.5328521728515625,-0.16204833984375,0.15032958984375,0.0562456957995891,-0.6715559959411621,-1.491422176361084,126.88778686523438,-59.10792541503906,300.2828369140625
1700075551,-0.239410400390625,0.02008056640625,0.27655029296875,0.1183269098401069,-0.9519091248512268,-2.3543009757995605,126.24008178710938,-61.83106994628906,301.06268310546875
1700075551,0.2333526611328125,-0.2397308349609375,0.134368896484375,0.3194490969181061,-0.9746405482292176,-3.156425952911377,125.69886779785156,-64.73112487792969,301.427734375
1700075551,0.4757232666015625,-0.811187744140625,0.15142822265625,0.467095285654068,-0.8423160314559937,-3.555755615234375,124.68023681640624,-67.69717407226562,301.756103515625
1700075551,0.449127197265625,-0.9631195068359376,0.12615966796875,0.2341925203800201,-0.7955045700073242,-3.40990686416626,123.55825805664062,-70.69577026367188,303.51336669921875
1700075551,0.3843536376953125,-0.6304779052734375,-0.080810546875,-0.20933298766613,-0.8075836300849915,-3.483926057815552,122.59358215332033,-73.74497985839844,303.831298828125
1700075551,0.4816131591796875,-0.397064208984375,-0.2562103271484375,-0.6158543825149536,-0.8386451601982117,-3.8001344203948975,120.83773803710938,-76.93038940429688,304.6766357421875
1700075551,0.5561065673828125,-0.30615234375,-0.292388916015625,-0.8331241607666016,-0.8574087023735046,-4.17797327041626,119.7384796142578,-80.57820129394531,305.1207275390625
1700075551,0.625823974609375,-0.20062255859375,-0.2004241943359375,-0.8673571944236755,-0.8253127932548523,-4.521518707275391,118.334228515625,-83.42001342773438,305.615234375
1700075551,0.713287353515625,-0.1107177734375,-0.1205902099609375,-0.8103519678115845,-0.8032501339912415,-4.7408881187438965,117.42283630371094,-86.06593322753906,306.4940795898437
1700075551,0.7879638671875,0.025970458984375,-0.1303253173828125,-0.7101662755012512,-0.857526421546936,-4.834927558898926,116.0961456298828,-87.42552185058594,306.52606201171875
1700075551,0.8815765380859375,0.177978515625,-0.1501007080078125,-0.6265150308609009,-1.0699039697647097,-4.872786045074463,115.39219665527344,-88.52330017089844,306.65435791015625
1700075551,0.990966796875,0.3107452392578125,-0.1280975341796875,-0.5993087291717529,-1.321313500404358,-4.898359775543213,114.19664001464844,-88.98428344726562,306.3902587890625
1700075551,1.1055908203125,0.4455413818359375,-0.109161376953125,-0.37859046459198,-1.5629775524139404,-4.911840438842773,113.7397918701172,-89.77169799804688,307.46307373046875
1700075551,1.1748199462890625,0.5854949951171875,-0.031585693359375,-0.0274076554924249,-1.5035866498947144,-4.850641250610352,112.95201110839844,-90.04067993164062,307.438232421875
1700075551,1.1209259033203125,0.7710723876953125,-0.13934326171875,0.3741123378276825,-1.3934454917907717,-4.778518199920654,112.09378051757812,-90.88681030273438,308.3021240234375
1700075551,1.006561279296875,0.942901611328125,-0.3213043212890625,0.6502792239189148,-1.3835585117340088,-4.708496570587158,111.21734619140624,-91.67341613769533,308.4293518066406
1700075551,0.9878997802734376,1.107330322265625,-0.3757476806640625,0.5264779329299927,-1.4371349811553955,-4.595871925354004,110.54899597167967,-92.6328125,308.16375732421875
1700075551,1.08843994140625,1.3121337890625,-0.385223388671875,-0.0061678811907768,-1.463989496231079,-4.512789249420166,110.14263916015624,-93.46200561523438,308.3565673828125
1700075551,1.2976531982421875,1.4181671142578125,-0.4256591796875,-0.3862734138965606,-1.352912425994873,-4.498636245727539,109.77444458007812,-94.6895751953125,308.0883178710937
1700075551,1.4972991943359375,1.2652587890625,-0.441436767578125,-0.5350303649902344,-1.2532711029052734,-4.325539588928223,109.80178833007812,-95.58187866210938,307.9931640625
1700075551,1.51861572265625,1.1294708251953125,-0.440032958984375,-0.4015370309352875,-1.298750400543213,-3.841308355331421,109.49684143066406,-96.07199096679688,307.7317199707031
1700075551,1.452911376953125,1.1754302978515625,-0.495880126953125,-0.4617567062377929,-1.428892731666565,-3.323136329650879,108.96858215332033,-96.67242431640624,307.4283447265625
1700075552,1.3520660400390625,1.221588134765625,-0.6016082763671875,-0.549547016620636,-1.4777199029922483,-2.7976465225219727,109.11387634277344,-96.61380004882812,307.3265991210937
1700075552,1.231536865234375,1.2564544677734375,-0.6284332275390625,-0.5338700413703918,-1.3979209661483765,-2.2678442001342773,108.68104553222656,-96.62234497070312,307.1649169921875
1700075552,1.10540771484375,1.3043975830078125,-0.565887451171875,-0.6243237853050232,-1.1855069398880005,-1.837746262550354,108.79435729980467,-96.45075988769533,307.7447509765625
1700075552,1.015838623046875,1.260467529296875,-0.5935821533203125,-0.6740689873695374,-0.9203109741210938,-1.433434247970581,108.55043029785156,-96.17129516601562,307.72088623046875
1700075552,0.89019775390625,1.0961761474609375,-0.6212005615234375,-0.8087058663368225,-0.6578623056411743,-1.0512162446975708,108.58502197265624,-95.8405303955078,307.54156494140625
1700075552,0.742095947265625,0.850830078125,-0.72381591796875,-1.0101988315582275,-0.4018840491771698,-0.6439222693443298,108.80308532714844,-94.95372009277344,307.361328125
1700075552,0.59423828125,0.69085693359375,-0.7598724365234375,-1.0392967462539673,-0.1608794331550598,-0.1963016092777252,109.0076904296875,-93.76473999023438,307.2744140625
1700075552,0.4835205078125,0.6169891357421875,-0.6168670654296875,-0.9419576525688172,0.0799664705991745,0.3195846676826477,109.73733520507812,-92.06022644042967,306.49267578125
1700075552,0.4383087158203125,0.6796417236328125,-0.3743438720703125,-0.6930336356163025,0.2629181742668152,0.7283569574356079,111.35028076171876,-91.10050964355467,304.8294677734375
1700075552,0.526580810546875,0.80865478515625,-0.15191650390625,-0.2515233159065246,0.4438352286815643,0.8705098628997803,111.23800659179688,-90.50090026855467,304.5561218261719
1700075552,0.7254638671875,0.771331787109375,-0.042083740234375,0.1662502288818359,0.8846472501754761,0.8212014436721802,110.79835510253906,-91.3258056640625,305.420166015625
1700075552,0.7928924560546875,0.63714599609375,-0.3897247314453125,0.3066893517971039,0.8031665086746216,0.8527601361274719,111.19935607910156,-91.88734436035156,304.7684936523437
1700075552,0.6420135498046875,0.492919921875,-0.518218994140625,0.4278490841388702,0.8514722585678101,0.5991861820220947,111.68955993652344,-92.82797241210938,304.0614624023437
1700075552,1.043182373046875,0.027130126953125,-0.347930908203125,0.5055164694786072,4.049825668334961,1.4763864278793335,111.63639831542967,-92.68359375,303.3086242675781
1700075552,0.2411041259765625,0.715789794921875,-2.739486694335937,0.124061495065689,3.1214311122894287,2.4258580207824707,111.8854522705078,-92.55363464355467,302.64959716796875
1700075552,-0.131744384765625,1.5120849609375,-3.2306365966796875,-0.5554317831993103,-1.4583123922348022,1.8584672212600708,112.24494934082033,-91.83267211914062,302.5059509277344
1700075552,3.819046020507813,-0.2091217041015625,1.76025390625,-0.2997150719165802,0.7062221169471741,0.0967664867639541,112.39112854003906,-90.69309997558594,302.13751220703125
1700075552,3.51336669921875,-1.6283111572265625,-0.0891571044921875,1.3380309343338013,1.6009856462478638,0.0094816526398062,112.44862365722656,-89.58656311035156,302.2498779296875
1700075552,1.3968353271484375,-1.5535125732421875,1.1943206787109375,1.8142169713974,1.5960508584976196,1.189075589179993,113.1138153076172,-88.42228698730469,301.1821594238281
1700075552,0.4635009765625,-0.951904296875,0.7198028564453125,0.7916219830513,1.1014602184295654,1.4739151000976562,113.3428955078125,-87.23841857910156,301.1917724609375
1700075552,0.501800537109375,-0.811859130859375,-0.2671356201171875,-0.4594951570034027,0.9582998752593994,1.319955825805664,112.99427795410156,-87.16703796386719,300.4662475585937
1700075552,1.045989990234375,-0.7891082763671875,-0.140167236328125,-1.3238967657089231,1.1077409982681274,1.5511329174041748,113.25668334960938,-87.15414428710938,300.5478820800781
1700075552,1.57379150390625,-0.4041290283203125,-0.098052978515625,-1.7528973817825315,1.055158257484436,2.03656268119812,113.10533142089844,-87.00575256347656,300.4200744628906
1700075552,1.9791717529296875,0.0862884521484375,-0.1051025390625,-1.7875120639801023,0.6734455227851868,2.3371973037719727,114.0641632080078,-86.07106018066406,300.32501220703125
1700075552,1.9993896484375,0.476226806640625,-0.21722412109375,-1.493502855300903,-0.1574644595384597,1.8102598190307613,113.9005889892578,-85.07484436035156,299.81005859375
1700075552,1.745208740234375,0.5825042724609375,-0.15191650390625,-1.7530007362365725,-0.0619880035519599,1.2363208532333374,114.2325439453125,-84.44993591308594,299.6542358398437
1700075552,1.928863525390625,0.6854248046875,-0.174774169921875,-0.7433534860610962,0.6769057512283325,0.7977597713470459,114.44392395019533,-83.78701782226562,299.81646728515625
1700075552,2.35589599609375,0.397430419921875,0.2411956787109375,0.4083941578865051,0.973571002483368,0.9914213418960572,113.97317504882812,-83.3109130859375,299.94293212890625
1700075552,1.9324493408203125,0.3893890380859375,0.1239013671875,0.5368304252624512,0.5871801376342773,1.156999111175537,114.04412841796876,-83.22584533691406,299.8920288085937
1700075552,1.1576690673828125,0.591400146484375,-0.503875732421875,0.3222414255142212,0.0629704445600509,0.8086872100830078,114.1217803955078,-83.45220947265625,299.85107421875
1700075552,0.7947235107421875,0.432708740234375,-0.78131103515625,0.1318669468164444,-0.1037993654608726,0.3775219917297363,114.54409790039062,-83.51911926269531,299.70562744140625
1700075552,0.581390380859375,0.276519775390625,-0.64788818359375,0.3635451793670654,0.0790711194276809,0.2341158241033554,114.05705261230467,-83.30592346191406,299.845458984375
1700075552,0.54144287109375,0.1068115234375,-0.233551025390625,0.5117183923721313,0.1393235325813293,0.305222749710083,114.41558837890624,-83.23403930664062,298.79931640625
1700075552,0.705841064453125,0.036529541015625,-0.2037353515625,0.3883346915245056,-0.0214118156582117,0.3631206750869751,114.15544128417967,-83.25535583496094,298.82769775390625
1700075552,0.94091796875,0.10491943359375,-0.46063232421875,0.2637131214141845,-0.1578447520732879,0.346912145614624,114.47665405273438,-82.48042297363281,298.9216613769531
1700075552,1.05029296875,0.148773193359375,-0.516937255859375,0.112073540687561,-0.2115806937217712,0.3185617327690124,115.14291381835938,-82.29705810546875,299.0601806640625
1700075552,1.0760345458984375,0.1733856201171875,-0.400482177734375,-0.0339081659913063,-0.1866010427474975,0.3112473487854004,114.88238525390624,-81.79893493652344,299.2212829589844
1700075552,1.0472412109375,0.1629638671875,-0.3130340576171875,-0.0611120909452438,-0.1329332888126373,0.3485249578952789,115.15150451660156,-81.43557739257812,299.1399230957031
1700075552,0.9695587158203124,0.1396484375,-0.320281982421875,-0.0232741627842187,-0.0962841883301734,0.4251507520675659,115.0384521484375,-81.30157470703125,298.7831420898437
1700075552,0.943572998046875,0.1021881103515625,-0.286834716796875,-0.0278771705925464,-0.0193348154425621,0.5326482057571411,115.20208740234376,-81.267822265625,298.9748840332031
1700075552,0.9205780029296876,0.0659942626953125,-0.2125701904296875,-0.0421485193073749,0.0985305681824684,0.6480642557144165,115.11904907226562,-80.94099426269531,298.58575439453125
1700075552,0.870391845703125,0.02801513671875,-0.1748199462890625,0.041325069963932,0.2242679893970489,0.7789328098297119,115.403076171875,-80.066162109375,297.51617431640625
1700075552,0.8345947265625,0.0033111572265625,-0.1783294677734375,0.2351062595844268,0.3348264694213867,0.9290328025817872,115.61647033691406,-79.98052978515625,297.65679931640625
1700075552,0.8076019287109375,0.00225830078125,-0.2004241943359375,0.3932690024375915,0.4248673915863037,1.0670820474624634,115.731689453125,-79.24723815917969,297.0629577636719
1700075552,0.8023834228515625,0.003997802734375,-0.2371978759765625,0.4750392138957977,0.4909050166606903,1.1781526803970337,115.9788818359375,-78.54490661621094,296.7998046875
1700075552,0.823699951171875,0.0129241943359375,-0.2506561279296875,0.490298330783844,0.5551759004592896,1.2930152416229248,116.3891143798828,-77.4207763671875,295.9936828613281
1700075552,0.83984375,0.0603790283203125,-0.2884368896484375,0.5202367901802063,0.6201796531677246,1.3746219873428345,116.76011657714844,-76.79762268066406,295.81402587890625
1700075552,0.8860931396484375,0.122955322265625,-0.3079681396484375,0.6031631231307983,0.6856169700622559,1.4811668395996094,116.82589721679688,-75.19073486328125,295.6819763183594
1700075552,0.9174652099609376,0.187652587890625,-0.2745819091796875,0.69121253490448,0.7311825752258301,1.5918182134628296,116.64576721191406,-74.47196960449219,294.36187744140625
1700075552,0.8970489501953125,0.2160797119140625,-0.269500732421875,0.7726690173149109,0.7830918431282043,1.7051349878311155,116.81715393066406,-73.40394592285156,294.2787475585937
1700075552,0.872283935546875,0.1934967041015625,-0.2634429931640625,0.7533840537071228,0.8027459979057312,1.751737356185913,116.97296142578124,-73.02056884765625,293.4296875
1700075552,0.873809814453125,0.175445556640625,-0.281768798828125,0.6649689674377441,0.8302367329597473,1.8274198770523071,117.13279724121094,-72.42378234863281,292.163818359375
1700075552,0.8204803466796875,0.19097900390625,-0.381744384765625,0.7772225141525269,0.8995282053947449,1.870114803314209,117.16691589355467,-71.21771240234375,291.78680419921875
1700075552,0.7599945068359375,0.2385406494140625,-0.4950103759765625,0.9101834893226624,0.928961992263794,1.8876086473464968,117.49725341796876,-70.05317687988281,291.26416015625
1700075552,0.8728179931640625,0.3482666015625,-0.4151611328125,0.9493258595466614,0.9336060285568236,1.924569845199585,117.5897216796875,-68.74882507324219,290.18902587890625
1700075552,1.0000762939453125,0.4194793701171875,-0.2910308837890625,0.8908705115318298,0.9368505477905272,1.959529161453247,117.60714721679688,-67.7767333984375,290.3359375
1700075552,1.0030517578125,0.4460601806640625,-0.3393096923828125,0.8440026044845581,0.9271161556243896,1.9881099462509155,117.6640167236328,-66.43109130859375,289.39208984375
1700075552,0.9996490478515624,0.4963531494140625,-0.44354248046875,0.8758633136749268,0.9387381672859192,2.0648982524871826,117.11466979980467,-65.07325744628906,288.48699951171875
1700075552,1.0557861328125,0.4848785400390625,-0.4084930419921875,0.8701066374778748,0.9490475654602052,2.1391942501068115,117.2464599609375,-63.52580261230469,288.5006103515625
1700075552,1.1893768310546875,0.3877410888671875,-0.3886871337890625,0.8398352861404419,0.9360081553459167,2.2809908390045166,116.62013244628906,-62.198089599609375,287.4969177246094
1700075552,1.1889495849609375,0.298309326171875,-0.41357421875,0.8604223132133484,0.915657639503479,2.500880718231201,116.63444519042967,-60.6119384765625,287.3738098144531
1700075552,0.938140869140625,0.24822998046875,-0.4829254150390625,0.8098379969596863,0.8721445202827454,2.593569755554199,116.2071533203125,-58.96577453613281,286.73101806640625
1700075552,0.7786407470703125,0.347564697265625,-0.5457916259765625,0.7805309891700745,0.8525385856628418,2.543642282485962,115.92572021484376,-57.696624755859375,286.02984619140625
1700075552,0.7381439208984375,0.5167999267578125,-0.55670166015625,0.7972487211227417,0.8348778486251831,2.390979766845703,115.36183166503906,-56.45895385742188,285.948486328125
1700075552,0.7742462158203125,0.57354736328125,-0.5528564453125,0.9314022064208984,0.778028130531311,2.2674262523651123,115.05352783203124,-54.98988342285156,285.9705505371094
1700075552,0.6855010986328125,0.5243988037109375,-0.585845947265625,0.9782344698905944,0.719902753829956,2.144760608673096,114.93653869628906,-53.65153503417969,285.81817626953125
1700075552,0.52362060546875,0.62896728515625,-0.660064697265625,1.0518261194229126,0.651308000087738,1.9861702919006348,114.20526123046876,-52.63629150390625,285.0980834960937
1700075552,0.7729644775390625,0.7989501953125,-0.667266845703125,1.1261509656906128,0.554182767868042,1.9053471088409424,113.65928649902344,-50.895416259765625,284.98492431640625
1700075552,1.15728759765625,0.80194091796875,-0.6050872802734375,1.1239397525787354,0.4620057046413421,1.9602117538452148,112.7389678955078,-49.33522033691406,284.7979431152344
1700075552,1.4044952392578125,0.6504974365234375,-0.566619873046875,1.0016462802886963,0.3427863717079162,2.096729040145874,112.363037109375,-47.63742065429688,284.71881103515625
1700075552,1.6047515869140625,0.555755615234375,-0.5732574462890625,0.8004814982414246,0.189123049378395,2.1993894577026367,111.3914794921875,-45.412628173828125,284.83837890625
1700075552,1.75115966796875,0.5015869140625,-0.5594940185546875,0.5527108311653137,0.0690043643116951,2.236680507659912,110.13299560546876,-43.829833984375,285.0159912109375
1700075552,1.8048858642578125,0.4150543212890625,-0.500030517578125,0.3520917296409607,-0.0286252535879611,2.1852452754974365,108.94305419921876,-42.42379760742188,285.0068359375
1700075552,1.730194091796875,0.3286895751953125,-0.4411163330078125,0.2415314018726349,-0.1599894016981125,2.0417473316192627,108.45449829101562,-41.34686279296875,284.903076171875
1700075552,1.5717010498046875,0.318145751953125,-0.4309844970703125,0.0520118027925491,-0.3733514845371246,1.7128535509109497,107.39772033691406,-40.40422058105469,284.8348388671875
1700075552,1.3921966552734375,0.3140716552734375,-0.4048919677734375,-0.0990653336048126,-0.573689341545105,1.3670189380645752,106.61924743652344,-39.48176574707031,284.40728759765625
1700075552,1.0831451416015625,0.3371429443359375,-0.32611083984375,-0.1710340678691864,-0.5109924077987671,0.9850066304206848,106.0122528076172,-38.30487060546875,283.87359619140625
1700075552,0.6205291748046875,0.326995849609375,-0.43658447265625,-0.1010885313153266,-0.3271517753601074,0.418118953704834,105.45684814453124,-38.25877380371094,283.6978454589844
1700075552,0.255035400390625,0.1709136962890625,-0.440948486328125,-0.1556609719991684,-0.2843073606491089,0.0898100435733795,105.1627960205078,-38.23670959472656,284.2890625
1700075552,-0.122283935546875,0.2329254150390625,-0.3224639892578125,-0.030205039307475,-0.3045348525047302,-0.2842807173728943,105.31387329101562,-38.82386779785156,283.93621826171875
1700075552,-0.411529541015625,0.2247772216796875,-0.10906982421875,0.2384695559740066,-0.3581637442111969,-0.762858510017395,105.06129455566406,-39.35298156738281,284.06890869140625
1700075552,-0.478759765625,0.121917724609375,0.17523193359375,0.3180291056632995,-0.4952116012573242,-1.3151013851165771,105.52235412597656,-40.78973388671875,284.8631591796875
1700075552,-0.3190460205078125,-0.047149658203125,0.2524871826171875,0.1891105324029922,-0.5703731775283813,-1.8675267696380613,106.44224548339844,-41.76155090332031,284.8296813964844
1700075552,-0.1654510498046875,-0.26568603515625,-0.0219879150390625,0.0402558110654354,-0.5301299095153809,-2.413327693939209,106.54592895507812,-43.15986633300781,285.378662109375
1700075552,-0.003875732421875,-0.454132080078125,-0.2552947998046875,0.1189077422022819,-0.4502167105674743,-2.948116064071656,107.17204284667967,-44.28482055664063,285.48876953125
1700075552,0.2215423583984375,-0.6555633544921875,-0.15771484375,0.3153622150421142,-0.4377938508987427,-3.356283187866211,107.27528381347656,-45.80581665039063,284.92462158203125
1700075552,0.399871826171875,-0.7009124755859375,-0.002899169921875,0.2825760245323181,-0.4609766602516174,-3.511958360671997,107.69467163085938,-47.359161376953125,284.8232421875
1700075552,0.4739227294921875,-0.42633056640625,-0.0313873291015625,0.2029363363981247,-0.4911103248596191,-3.651232242584229,108.17857360839844,-48.148956298828125,285.0731811523437
1700075552,0.5758209228515625,-0.1833038330078125,-0.0548553466796875,0.0997465699911117,-0.5308606624603271,-3.781008720397949,108.72998046875,-50.10350036621094,284.7885437011719
1700075552,0.6973876953125,-0.035552978515625,-0.02587890625,-0.168465182185173,-0.5211031436920166,-3.924423933029175,109.15029907226562,-51.391204833984375,284.5853271484375
1700075552,0.7610321044921875,0.053466796875,-0.03778076171875,-0.4823046028614044,-0.5443565249443054,-4.022470951080322,109.38078308105467,-52.87416076660156,284.90576171875
1700075552,0.78570556640625,0.1352996826171875,-0.0632171630859375,-0.6594050526618958,-0.6654400825500488,-4.131669521331787,109.82510375976562,-55.20463562011719,285.2618408203125
1700075552,0.85614013671875,0.238189697265625,-0.0697784423828125,-0.726396918296814,-0.8192170858383179,-4.304508686065674,109.90974426269533,-57.24034118652344,285.6652526855469
1700075552,0.97393798828125,0.286224365234375,-0.088653564453125,-0.9538736939430236,-0.8774551153182983,-4.480985164642334,109.9195556640625,-59.47505187988281,285.66607666015625
1700075552,1.0404815673828125,0.3023529052734375,-0.1755828857421875,-1.2351559400558472,-0.8891727328300476,-4.504938125610352,109.71470642089844,-61.433013916015625,286.2069702148437
1700075552,1.0301666259765625,0.3482208251953125,-0.198272705078125,-1.3507331609725952,-0.9653093218803406,-4.298957824707031,109.85531616210938,-63.47724914550781,286.663818359375
1700075552,1.01641845703125,0.47222900390625,-0.154876708984375,-1.1194541454315186,-1.083251714706421,-3.984682559967041,109.59652709960938,-65.84892272949219,286.9776611328125
1700075552,1.0244903564453125,0.623992919921875,-0.186279296875,-0.5734041333198547,-1.1912015676498413,-3.880035638809204,109.09046936035156,-68.0333251953125,287.0357666015625
1700075552,1.09906005859375,0.721954345703125,-0.33251953125,-0.0468380786478519,-1.3336341381072998,-3.920209884643554,108.88949584960938,-70.2451171875,287.4755859375
1700075552,1.2052764892578125,0.8671112060546875,-0.3820343017578125,0.1750077605247497,-1.4108641147613523,-3.947160482406616,108.94154357910156,-72.12109375,287.5194091796875
1700075553,1.303253173828125,1.0623779296875,-0.3790435791015625,0.2249199301004409,-1.300810694694519,-3.989932775497437,108.12091064453124,-73.99397277832031,287.853515625
1700075553,1.3513641357421875,1.2156829833984375,-0.4730224609375,0.2456078976392746,-1.1345218420028689,-3.829298496246338,107.79972839355467,-75.4083251953125,287.4861755371094
1700075553,1.2882080078125,1.3552703857421875,-0.541839599609375,0.2849896550178528,-1.0203614234924316,-3.659895658493042,107.20956420898438,-76.85505676269531,287.5350646972656
1700075553,1.2018280029296875,1.3087921142578125,-0.5353851318359375,0.441315084695816,-0.9558321833610536,-3.516974210739136,106.8940887451172,-78.33357238769531,288.6790771484375
