timestamp,acc-x,acc-y,acc-z,gyr-x,gyr-y,gyr-z,mag-x,mag-y,mag-z
1700076028,1.4349212646484375,1.063751220703125,-0.52935791015625,-0.3591680228710174,-1.744947910308838,-3.414318799972534,93.97976684570312,-72.09245300292969,228.3831787109375
1700076028,1.3838653564453125,1.1036529541015625,-0.4523773193359375,-0.111837051808834,-1.6436281204223633,-3.2355568408966064,93.6079559326172,-70.92109680175781,228.1747589111328
1700076028,1.3479766845703125,1.0831451416015625,-0.39739990234375,0.3256944715976715,-1.4670952558517456,-3.125883102416992,93.58918762207033,-70.16371154785156,227.59071350097656
1700076028,1.30145263671875,1.02459716796875,-0.36981201171875,0.6870782375335693,-1.3053497076034546,-3.0330965518951416,92.33798217773438,-68.603271484375,227.81759643554688
1700076028,1.20184326171875,0.92510986328125,-0.39117431640625,0.9099991917610168,-1.1755262613296509,-2.865076065063477,92.43893432617188,-67.46852111816406,227.59637451171875
1700076028,1.0660400390625,0.80523681640625,-0.4282989501953125,1.0308589935302734,-1.0533486604690552,-2.618478536605835,91.92645263671876,-66.23890686035156,227.1927947998047
1700076028,0.9621429443359376,0.66693115234375,-0.4225921630859375,1.141759753227234,-0.9266051054000854,-2.3726963996887207,91.0039520263672,-65.07121276855469,227.35818481445312
1700076028,0.900909423828125,0.53924560546875,-0.390411376953125,1.247422218322754,-0.7891401648521423,-2.095664024353028,90.5207977294922,-64.06512451171875,227.3770294189453
1700076028,0.8546295166015625,0.482879638671875,-0.35345458984375,1.3547558784484863,-0.6831708550453186,-1.800691843032837,89.76225280761719,-62.81886291503906,227.0740203857422
1700076028,0.8306427001953125,0.49713134765625,-0.3084259033203125,1.5628243684768677,-0.5985662341117859,-1.5467218160629272,88.95962524414062,-61.1409912109375,227.3279724121093
1700076028,0.8459625244140625,0.539093017578125,-0.2559661865234375,1.8156518936157229,-0.505832314491272,-1.3548789024353027,88.34942626953125,-59.99896240234375,227.0361785888672
1700076028,0.8664703369140625,0.56854248046875,-0.220306396484375,2.019550323486328,-0.3681095838546753,-1.1972306966781616,87.88240051269531,-58.74674987792969,227.1598358154297
1700076028,0.8538360595703125,0.5672454833984375,-0.2285308837890625,2.140509843826294,-0.2209100127220153,-1.01338529586792,86.49998474121094,-57.35505676269531,227.6527709960937
1700076028,0.7913055419921875,0.529388427734375,-0.2525634765625,2.0949690341949463,-0.0875852406024932,-0.8007656335830688,85.7813720703125,-56.07481384277344,227.59117126464844
1700076028,0.7271575927734375,0.43780517578125,-0.307586669921875,1.8539942502975464,0.0293512307107448,-0.5528621077537537,84.9840087890625,-54.67404174804688,227.6089324951172
1700076028,0.69195556640625,0.3250732421875,-0.3614959716796875,1.5548583269119265,0.1241962537169456,-0.2944188416004181,84.55357360839844,-53.416351318359375,229.01231384277344
1700076028,0.6908416748046875,0.184783935546875,-0.3653411865234375,1.222967267036438,0.1844334900379181,-0.050048254430294,83.63227844238281,-52.32975769042969,229.19810485839844
1700076028,0.7191009521484375,0.0412750244140625,-0.328857421875,0.8099426627159119,0.2109809517860412,0.1927955448627472,82.56460571289062,-50.94654846191406,230.1013336181641
1700076028,0.7322998046875,-0.0567169189453125,-0.2974853515625,0.4172997772693634,0.2480585426092147,0.4173956513404846,81.81925964355469,-50.09599304199219,230.97711181640625
1700076028,0.7171173095703125,-0.1139373779296875,-0.305877685546875,0.1013937294483184,0.2959309816360473,0.6125169396400452,81.55783081054688,-49.55894470214844,231.10446166992188
1700076028,0.66796875,-0.1184234619140625,-0.3402557373046875,-0.2298726141452789,0.3292540609836578,0.8004540801048279,80.76956176757812,-48.748626708984375,231.739974975586
1700076028,0.62451171875,-0.0820159912109375,-0.374969482421875,-0.4915830492973327,0.3216770887374878,0.946885347366333,79.94151306152344,-48.36305236816406,231.910873413086
1700076028,0.6375274658203125,-0.043670654296875,-0.3491973876953125,-0.9268460869789124,0.6340885162353516,1.1277365684509275,79.14695739746094,-48.18423461914063,231.69580078125
1700076028,0.6995849609375,0.0838470458984375,-0.6055450439453125,-1.4145619869232178,0.9385376572608948,0.9558476805686952,78.51081848144531,-48.5269775390625,231.54031372070312
1700076028,0.575592041015625,0.044677734375,-0.822662353515625,-1.6480575799942017,0.9635779857635498,1.1782034635543823,77.63693237304688,-48.448577880859375,231.67919921875
1700076028,0.722564697265625,0.2407073974609375,-0.7104339599609375,-1.6648945808410645,2.9409778118133545,1.530651569366455,77.59869384765625,-48.41009521484375,232.365234375
1700076028,0.3276519775390625,0.5357666015625,-2.388885498046875,-0.5190138816833496,3.810560941696167,2.03462028503418,77.65077209472656,-48.39030456542969,233.2032012939453
1700076028,0.1008758544921875,1.2919921875,-2.9022979736328125,-0.7036529779434204,-1.800828218460083,2.392795324325561,78.03330993652344,-48.24861145019531,233.2715759277344
1700076028,3.556060791015625,0.6255950927734375,1.589874267578125,0.1957354098558426,-0.6412910223007202,0.1792925298213958,78.68203735351562,-48.39614868164063,233.3905639648437
1700076028,3.594573974609375,-1.299224853515625,0.0382537841796875,1.706959247589111,1.150720238685608,-0.4217243492603302,78.87646484375,-48.905029296875,233.9199676513672
1700076028,1.574249267578125,-1.0172576904296875,0.7276153564453125,1.8494361639022827,1.5978732109069824,0.1426346451044082,79.46359252929688,-49.16346740722656,234.4190368652344
1700076028,0.690704345703125,-0.588653564453125,0.9202117919921876,0.9955383539199828,1.2920114994049072,0.7181637287139893,80.04257202148438,-49.7493896484375,234.9571990966797
1700076028,0.450347900390625,-0.3895263671875,0.210784912109375,-0.0176184084266424,0.904310941696167,1.1006351709365845,80.90565490722656,-50.27915954589844,235.42140197753903
1700076028,0.697479248046875,-0.209808349609375,-0.0035552978515625,-0.4243880212306976,0.9265238642692566,1.21035897731781,81.50001525878906,-51.01513671875,235.82232666015625
1700076028,1.1610107421875,-0.168212890625,-0.0593414306640625,-0.8099905848503113,0.8468205332756042,1.2873859405517578,81.84007263183594,-51.844482421875,235.6307983398437
1700076028,1.5864715576171875,-0.000244140625,0.00067138671875,-1.3213835954666138,0.7618027925491333,1.2772302627563477,82.56272888183594,-53.03584289550781,236.92236328125
1700076028,1.7962493896484375,0.1995697021484375,-0.147918701171875,-1.4806016683578491,0.5244088768959045,0.9864806532859802,83.73915100097656,-53.63604736328125,237.00021362304688
1700076028,1.67376708984375,0.2076568603515625,-0.1923980712890625,-1.2347266674041748,0.3350384533405304,0.6178097128868103,83.94009399414062,-54.44105529785156,236.7354888916016
1700076028,1.480926513671875,0.0435333251953125,-0.1798858642578125,-0.79035884141922,0.3505827784538269,0.3853852450847626,84.57647705078125,-55.21604919433594,237.492416381836
1700076028,1.7483673095703125,-0.104339599609375,-0.130157470703125,-0.2883897125720978,0.4026364088058471,0.3917611241340637,84.61492919921875,-56.27879333496094,237.97512817382807
1700076028,2.16314697265625,-0.125244140625,0.0267486572265625,-0.047467116266489,0.571968674659729,0.9673796892166138,85.53739929199219,-57.04939270019531,238.69044494628903
1700076028,1.9037933349609373,0.1588287353515625,-0.1268310546875,0.0483395680785179,0.4850181043148041,1.437422513961792,85.65261840820312,-57.650909423828125,239.3578491210937
1700076028,1.245697021484375,0.2774658203125,-0.2456207275390625,0.1217243075370788,0.1406228989362716,1.3471291065216064,86.35325622558594,-58.62916564941406,239.6191864013672
1700076029,0.8240203857421875,0.2841033935546875,-0.3569183349609375,-0.0334391817450523,-0.1641516536474228,0.854098916053772,86.96897888183594,-59.1884765625,240.4001617431641
1700076029,0.5947418212890625,0.3995208740234375,-0.4834747314453125,-0.1393831968307495,-0.0788338258862495,0.4265827536582947,87.37138366699219,-59.654296875,241.183822631836
1700076029,0.5591583251953125,0.5489044189453125,-0.4140167236328125,0.23554328083992,0.109280951321125,0.18154077231884,87.615234375,-60.38142395019531,241.0970764160156
1700076029,0.7480316162109375,0.3669891357421875,-0.2141265869140625,0.4143899977207184,0.1678798198699951,0.0250259917229414,88.33006286621094,-60.971954345703125,242.4183349609375
1700076029,1.0073394775390625,0.0969390869140625,-0.2123565673828125,0.2697912752628326,0.1702961027622223,-0.0605634786188602,89.43487548828125,-61.641845703125,243.40870666503903
1700076029,1.1558074951171875,-0.0994110107421875,-0.3222503662109375,0.0982264354825019,0.1366167068481445,0.0663944706320762,89.55267333984375,-61.94883728027344,243.776596069336
1700076029,1.1035003662109375,-0.1663665771484375,-0.401092529296875,-0.0126036759465932,0.023347932845354,0.4011242687702179,90.37550354003906,-63.0458984375,244.5573883056641
1700076029,0.9974365234375,-0.15618896484375,-0.383636474609375,-0.0683572217822074,-0.0331254638731479,0.6472341418266296,90.86744689941406,-63.762542724609375,245.18785095214844
1700076029,0.9572906494140624,-0.1395721435546875,-0.36602783203125,-0.1171175688505172,-0.0481145307421684,0.7143524885177612,91.24139404296876,-64.01780700683594,246.03993225097656
1700076029,0.88824462890625,0.0204925537109375,-0.3346405029296875,-0.1341514140367508,-0.0571690127253532,0.7066705822944641,91.75344848632812,-64.56005859375,246.98565673828125
1700076029,0.81085205078125,0.2256927490234375,-0.2886505126953125,-0.069566823542118,-0.0278747733682394,0.6333737373352051,91.939697265625,-64.97357177734375,246.8368377685547
1700076029,0.8374481201171875,0.3662567138671875,-0.1872100830078125,0.0680160671472549,0.0960309281945228,0.4956150650978088,92.56373596191406,-65.30506896972656,247.5855865478516
1700076029,0.912261962890625,0.383209228515625,-0.10882568359375,0.2560384273529053,0.235210120677948,0.3734928965568542,93.0038604736328,-65.42352294921875,248.6235809326172
1700076029,0.95147705078125,0.1873016357421875,-0.11090087890625,0.3697799146175384,0.3224219977855682,0.4196657240390777,92.95573425292967,-65.88491821289062,248.73175048828125
1700076029,0.95220947265625,-0.0863189697265625,-0.167449951171875,0.4111430644989013,0.3895663917064667,0.6575605869293213,93.37100219726562,-66.27931213378906,249.80682373046875
1700076029,0.932159423828125,-0.2415924072265625,-0.2198944091796875,0.310901403427124,0.4686846435070038,0.9751231074333192,93.75112915039062,-66.61041259765625,250.66567993164065
1700076029,0.937774658203125,-0.2963104248046875,-0.2953643798828125,0.1755747497081756,0.4930949211120605,1.27632474899292,94.09999084472656,-66.63606262207031,250.4555511474609
1700076029,0.92919921875,-0.3105316162109375,-0.3641510009765625,0.1309289932250976,0.5172593593597412,1.5673011541366575,94.33088684082033,-66.69039916992188,251.03404235839844
1700076029,0.8609771728515625,-0.2139434814453125,-0.4063262939453125,0.1922211050987243,0.510613203048706,1.7745052576065063,94.4954833984375,-66.28535461425781,251.4704132080078
1700076029,0.7965087890625,0.013580322265625,-0.3505859375,0.230403646826744,0.5429796576499939,1.8032101392745967,94.49559020996094,-66.03062438964844,252.2654266357422
1700076029,0.775665283203125,0.3089447021484375,-0.230438232421875,0.2918576896190643,0.6838094592094421,1.672710418701172,94.47941589355467,-65.80815124511719,252.73622131347656
1700076029,0.778717041015625,0.5395660400390625,-0.1109771728515625,0.5743666291236877,0.90408593416214,1.4678441286087036,94.2906494140625,-65.6717529296875,253.1585388183593
1700076029,0.8823699951171875,0.5470733642578125,-0.0164794921875,0.9815346598625184,1.05974018573761,1.4147387742996216,94.505859375,-65.02027893066406,254.0818634033203
1700076029,1.03985595703125,0.283843994140625,-0.07110595703125,1.127953052520752,1.1088862419128418,1.527226209640503,94.75352478027344,-64.54795837402344,254.34182739257807
1700076029,1.1010284423828125,-0.0207061767578125,-0.3006439208984375,0.9826683402061462,1.1222976446151731,1.7083594799041748,94.77732849121094,-63.679718017578125,254.8256225585937
1700076029,1.033721923828125,-0.1332855224609375,-0.578216552734375,0.8810599446296692,1.0612318515777588,1.984973311424256,94.43914794921876,-62.57157897949219,255.98175048828125
1700076029,0.894744873046875,-0.0911102294921875,-0.6593780517578125,1.051360845565796,1.0297276973724363,2.2751054763793945,94.50393676757812,-62.08259582519531,255.8202972412109
1700076029,0.8494720458984375,0.0662841796875,-0.5044097900390625,1.1054967641830444,1.0528059005737305,2.3556830883026123,94.40576171875,-60.79225158691406,256.5039367675781
1700076029,0.94696044921875,0.3397369384765625,-0.3605194091796875,1.1415232419967651,1.0332372188568115,2.2971348762512207,93.89743041992188,-60.34812927246094,256.11163330078125
1700076029,1.0281829833984375,0.5264739990234375,-0.2818145751953125,1.165442943572998,1.018622636795044,2.233525037765503,93.84156799316406,-59.68426513671875,255.9295349121093
1700076029,1.1730194091796875,0.520904541015625,-0.232086181640625,1.0906193256378174,0.9933436512947084,2.26059627532959,92.89993286132812,-58.94273376464844,254.5701446533203
1700076029,0.9829864501953124,0.376495361328125,-0.31890869140625,0.997769832611084,0.9855283498764038,2.3478052616119385,92.9656219482422,-58.23019409179688,253.52674865722656
1700076029,0.5641021728515625,0.3807373046875,-0.5361175537109375,0.9398484230041504,0.9077496528625488,2.345101118087769,93.54885864257812,-58.107452392578125,254.55694580078125
1700076029,0.656890869140625,0.577972412109375,-0.48614501953125,0.9414543509483336,0.9225203394889832,2.2716755867004395,93.83628845214844,-57.8580322265625,254.9000701904297
1700076029,0.987640380859375,0.664306640625,-0.32012939453125,0.9516446590423584,0.9311414957046508,2.2953474521636963,93.75753784179688,-57.13777160644531,255.8624725341797
1700076029,1.2664642333984375,0.6237030029296875,-0.361724853515625,0.901984691619873,0.8887144327163696,2.414494037628174,93.7315673828125,-55.95220947265625,255.2796173095703
1700076029,1.580291748046875,0.5101165771484375,-0.42333984375,0.8291245698928833,0.8443030118942261,2.6032187938690186,93.17315673828124,-55.44377136230469,255.4833221435547
1700076029,1.7655792236328125,0.320831298828125,-0.41497802734375,0.762714147567749,0.7519307732582092,2.8447134494781494,92.90184020996094,-54.61978149414063,254.714584350586
1700076029,1.7186431884765625,0.19293212890625,-0.4441070556640625,0.7328638434410095,0.6753438115119934,3.005629539489746,92.24241638183594,-53.77392578125,253.85037231445312
1700076029,1.6857147216796875,0.2474212646484375,-0.4936065673828125,0.7011796832084656,0.5637025237083435,2.973649501800537,91.98501586914062,-52.62678527832031,253.38833618164065
1700076029,1.7317352294921875,0.257720947265625,-0.4966583251953125,0.7097265720367432,0.4423830211162567,2.869070291519165,91.84538269042967,-52.65789794921875,252.6934967041016
1700076029,1.5882110595703125,0.2581329345703125,-0.5270538330078125,0.6385932564735413,0.3244739472866058,2.6477184295654297,91.71687316894533,-52.620849609375,252.9422607421875
1700076029,1.4481658935546875,0.2697906494140625,-0.59075927734375,0.4916171431541443,0.240607813000679,2.370777130126953,91.94668579101562,-52.18721008300781,253.95675659179688
1700076029,1.36968994140625,0.2588958740234375,-0.61376953125,0.3390781879425049,0.1042310670018196,2.0771384239196777,91.84242248535156,-51.66853332519531,253.2569122314453
1700076029,1.1902618408203125,0.240325927734375,-0.580596923828125,0.2272169142961502,-0.0242017433047294,1.8097302913665767,91.44125366210938,-51.407745361328125,253.20364379882807
1700076029,0.8612518310546875,0.244842529296875,-0.5130767822265625,0.1420500874519348,-0.1311063468456268,1.4605449438095093,90.8424835205078,-51.09417724609375,253.0180053710937
1700076029,0.51531982421875,0.2225494384765625,-0.4614105224609375,0.1437140256166458,-0.1628198027610778,0.9037245512008668,90.11277770996094,-50.69700622558594,252.93931579589844
1700076029,0.2281036376953125,0.13818359375,-0.4003753662109375,0.0747458785772323,-0.1564266234636306,0.4362342953681946,90.06243896484375,-50.41307067871094,252.1375427246093
1700076029,-0.1456146240234375,0.15557861328125,-0.3126068115234375,0.0304417945444583,-0.2256887853145599,0.0701713636517524,89.96852111816406,-49.83648681640625,252.17686462402344
1700076029,-0.4665985107421875,0.15972900390625,-0.10980224609375,0.0906862244009971,-0.4851693511009216,-0.376385360956192,89.84678649902344,-49.87693786621094,252.46676635742188
1700076029,-0.5786285400390625,0.0611114501953125,0.1138763427734375,0.1831245422363281,-0.8307704329490662,-0.9449968934059144,89.96247863769531,-49.82728576660156,252.49229431152344
1700076029,-0.4962005615234375,-0.1427154541015625,0.2075042724609375,-0.1929143220186233,-0.9307438731193542,-1.578470230102539,89.92820739746094,-49.64811706542969,252.6385040283203
1700076029,-0.3058624267578125,-0.3180389404296875,-0.1337890625,-0.3822634816169739,-0.9466227293014526,-2.165866613388061,89.88839721679688,-49.87605285644531,252.5652770996093
1700076029,-0.0464630126953125,-0.36578369140625,-0.3146209716796875,-0.2665089070796966,-0.9611428380012512,-2.67866325378418,89.97003173828125,-49.52583312988281,253.2681121826172
1700076029,0.2039642333984375,-0.454742431640625,-0.09722900390625,-0.2179946452379226,-0.9733605980873108,-3.1104977130889893,89.88800048828125,-49.36227416992188,252.5051422119141
1700076029,0.4027862548828125,-0.5166015625,0.04571533203125,-0.4685320556163788,-0.994493842124939,-3.2793684005737305,89.89126586914062,-49.568206787109375,252.7144317626953
1700076029,0.496490478515625,-0.3872528076171875,-0.005767822265625,-0.7856476902961731,-1.0228863954544067,-3.2814974784851074,90.0484619140625,-49.09738159179688,252.76541137695312
1700076029,0.5438995361328125,-0.1928253173828125,-0.14306640625,-0.8071985244750977,-1.1141691207885742,-3.3625130653381348,89.81062316894531,-49.03974914550781,252.2306365966797
1700076029,0.630218505859375,-0.066925048828125,-0.19024658203125,-0.6267741322517395,-1.1911542415618896,-3.558812141418457,89.92216491699219,-48.97047424316406,252.6213531494141
1700076029,0.7216339111328125,0.080810546875,-0.1777191162109375,-0.5210237503051758,-1.2223703861236572,-3.680784225463867,89.817138671875,-49.142120361328125,252.6184997558593
1700076029,0.7997894287109375,0.27398681640625,-0.1600494384765625,-0.5684472322463989,-1.2259873151779177,-3.747018814086914,89.77903747558594,-48.79974365234375,252.61212158203125
1700076029,0.9149017333984376,0.4445037841796875,-0.119781494140625,-0.7860234379768372,-1.252482533454895,-3.823568344116211,89.89591979980469,-48.79902648925781,252.5252380371093
1700076029,1.002197265625,0.5593719482421875,-0.137298583984375,-0.9985887408256532,-1.260427474975586,-3.978963613510132,89.91580200195312,-48.589385986328125,253.3332672119141
1700076029,1.05364990234375,0.5895233154296875,-0.1928253173828125,-0.983212947845459,-1.3593610525131226,-4.099038124084473,89.6873779296875,-48.51412963867188,253.09378051757807
1700076029,1.0802001953125,0.6060333251953125,-0.147613525390625,-0.6965013146400452,-1.4759864807128906,-4.128097057342529,89.66891479492188,-48.49342346191406,252.9422607421875
1700076029,1.0839996337890625,0.6180419921875,-0.1366729736328125,-0.202277734875679,-1.5288169384002686,-4.154661178588867,89.43266296386719,-48.47660827636719,252.8578186035156
1700076029,1.1071929931640625,0.60809326171875,-0.1732635498046875,0.1117457076907157,-1.5558594465255735,-4.17220401763916,89.61247253417969,-48.514556884765625,253.3789825439453
1700076029,1.127960205078125,0.647247314453125,-0.22039794921875,0.0916425660252571,-1.579147458076477,-4.114197731018066,89.25390625,-47.98518371582031,253.5452117919922
1700076029,1.139068603515625,0.7334747314453125,-0.256195068359375,-0.1592628955841064,-1.5169669389724731,-3.98682713508606,89.34660339355469,-47.849639892578125,253.6692047119141
1700076029,1.1858062744140625,0.80322265625,-0.314788818359375,-0.3022754490375519,-1.385931134223938,-3.8101589679718018,89.09318542480469,-48.07435607910156,253.55224609375
1700076029,1.2700042724609375,0.8445281982421875,-0.3798980712890625,-0.3326168358325958,-1.296277642250061,-3.6585075855255127,88.9222412109375,-47.62203979492188,252.96131896972656
1700076029,1.400146484375,0.8512115478515625,-0.461456298828125,-0.4332441091537475,-1.3287943601608276,-3.561612844467163,88.63174438476562,-47.79263305664063,253.1665802001953
1700076029,1.539825439453125,0.8455657958984375,-0.5241851806640625,-0.5740885734558105,-1.403352975845337,-3.4973905086517334,88.28410339355469,-46.92767333984375,253.27947998046875
1700076029,1.5895538330078125,0.84161376953125,-0.54925537109375,-0.4890658259391784,-1.5086205005645752,-3.3502533435821533,88.30500793457031,-46.83609008789063,253.1016540527344
1700076029,1.5230560302734375,0.86273193359375,-0.504852294921875,-0.4048894345760345,-1.5644012689590454,-3.134326696395874,87.88389587402344,-46.53472900390625,252.79278564453125
1700076029,1.39715576171875,0.8369293212890625,-0.4669189453125,-0.2921088337898254,-1.497148513793945,-2.9278972148895264,87.97244262695312,-45.96131896972656,253.82827758789065
1700076029,1.2815704345703125,0.761016845703125,-0.4058837890625,0.0171273220330476,-1.3567814826965332,-2.680304288864136,87.72688293457031,-45.80082702636719,252.870849609375
1700076029,1.154998779296875,0.7071685791015625,-0.3223876953125,0.2902502119541168,-1.172010064125061,-2.39786958694458,87.92335510253906,-45.28302001953125,253.3123321533203
1700076029,1.02325439453125,0.673858642578125,-0.2848358154296875,0.5887545943260193,-1.0381784439086914,-2.1118624210357666,87.62240600585938,-45.26072692871094,253.7312927246093
1700076029,0.9490814208984376,0.6696624755859375,-0.2394866943359375,0.9085533618927002,-0.9418359398841858,-1.8583385944366453,87.11531066894531,-44.83013916015625,253.6135406494141
1700076029,0.909637451171875,0.6608734130859375,-0.24456787109375,1.151332974433899,-0.8155017495155334,-1.6745080947875977,87.14622497558594,-44.60589599609375,254.2154998779297
1700076029,0.857208251953125,0.5832366943359375,-0.295806884765625,1.2909142971038818,-0.6038020253181458,-1.5301111936569214,86.53439331054688,-44.30574035644531,253.9300231933593
1700076029,0.775604248046875,0.443023681640625,-0.32330322265625,1.3666505813598633,-0.3673093020915985,-1.354616641998291,86.14865112304688,-43.66072082519531,254.0603942871093
1700076029,0.691650390625,0.3023681640625,-0.291168212890625,1.3485190868377686,-0.1813093423843383,-1.0663427114486694,85.84986877441406,-43.04473876953125,254.17874145507807
1700076029,0.6544952392578125,0.20562744140625,-0.21844482421875,1.182990789413452,-0.0462359376251697,-0.6709504127502441,85.48692321777344,-42.754913330078125,254.5778045654297
1700076029,0.6715087890625,0.149627685546875,-0.19305419921875,0.940769612789154,0.0681284517049789,-0.2261423170566558,84.86323547363281,-42.28224182128906,254.39080810546875
1700076029,0.707275390625,0.128265380859375,-0.206085205078125,0.6606714129447937,0.1573701798915863,0.197047546505928,84.3463134765625,-41.99995422363281,254.35206604003903
1700076029,0.728729248046875,0.13787841796875,-0.2420806884765625,0.3595302104949951,0.1816880404949188,0.5565412640571594,83.83599853515625,-41.2728271484375,254.835693359375
1700076029,0.7095794677734375,0.161163330078125,-0.2534637451171875,0.0673793032765388,0.2232866138219833,0.8142255544662476,83.12431335449219,-40.69302368164063,254.94235229492188
1700076029,0.6749725341796875,0.1356964111328125,-0.249786376953125,-0.2935903370380401,0.2950047552585602,1.0025326013565063,82.35215759277344,-40.323638916015625,255.6170959472656
1700076029,0.657562255859375,0.080352783203125,-0.2441253662109375,-0.7016239166259766,0.3888928890228271,1.1291667222976685,81.92924499511719,-39.794464111328125,255.86631774902344
1700076029,0.682373046875,0.0149688720703125,-0.2557525634765625,-1.0822324752807615,0.4432749152183532,1.190029501914978,81.09971618652344,-39.47419738769531,255.4989318847656
1700076029,0.755096435546875,-0.0478668212890625,-0.2664947509765625,-1.3092414140701294,0.6762237548828125,1.267512321472168,80.61439514160156,-38.71604919433594,256.1505126953125
1700076029,0.8203582763671875,-0.0135498046875,-0.430511474609375,-1.4208403825759888,1.1919454336166382,1.2108221054077148,79.93783569335938,-38.22291564941406,256.39959716796875
1700076029,0.634979248046875,0.15301513671875,-0.839691162109375,-1.082875370979309,0.9778035283088684,1.2875590324401855,78.94306945800781,-37.58558654785156,257.0839233398437
1700076029,0.7366180419921875,0.3820953369140625,-0.5952606201171875,-0.6394537091255188,2.463312149047852,1.4589205980300903,78.14390563964844,-37.19747924804688,257.2391967773437
1700076029,0.510833740234375,0.6138153076171875,-1.9758758544921875,1.2461705207824707,4.950877189636231,1.9590755701065063,77.18804931640625,-36.39927673339844,257.9897155761719
1700076029,-0.2915802001953125,1.5507049560546875,-3.708663940429688,0.337646484375,-1.402613401412964,2.7149007320404053,76.41043090820312,-35.98271179199219,258.6537780761719
1700076029,3.026153564453125,1.352081298828125,1.04730224609375,-0.3718816936016083,-0.9524326920509338,0.2244022190570831,75.34974670410156,-35.049163818359375,259.5201416015625
1700076030,3.8241119384765625,-1.273956298828125,-0.2480926513671875,0.7417638897895813,0.8991705179214478,-0.9868561625480652,74.41925048828125,-33.90824890136719,260.17950439453125
1700076030,1.8097686767578125,-1.359283447265625,0.44989013671875,1.2362585067749023,1.6480748653411863,-0.6512829661369324,73.3414306640625,-33.30198669433594,260.7629089355469
1700076030,0.8191375732421875,-1.006866455078125,1.0695037841796875,0.5172628164291382,1.5562858581542969,0.0755746513605117,72.88107299804688,-32.69395446777344,261.3282470703125
1700076030,0.52386474609375,-0.7421112060546875,0.2390899658203125,-0.4425899386405945,1.0750006437301636,0.5667619705200195,72.10516357421875,-32.37750244140625,262.39862060546875
1700076030,0.6376800537109375,-0.6077728271484375,-0.2769012451171875,-0.494853138923645,0.8012572526931763,0.7261627912521362,72.017578125,-31.526199340820312,262.15789794921875
1700076030,1.2354888916015625,-0.690643310546875,-0.0732879638671875,-0.7666811943054199,0.6404052972793579,1.3388354778289795,71.78964233398438,-30.92926025390625,262.9713439941406
1700076030,1.7509765625,-0.2167205810546875,0.13409423828125,-1.4572350978851318,0.53819340467453,2.091778516769409,72.01155090332031,-30.38807678222656,263.59112548828125
1700076030,1.8203125,0.3513336181640625,0.083984375,-1.4907861948013306,-0.0081652514636516,2.1351637840271,72.46467590332031,-30.33895874023437,263.50439453125
1700076030,1.5782623291015625,0.5457000732421875,0.253204345703125,-1.7447726726531982,-0.1432258635759353,1.3332923650741575,73.22032165527344,-30.37294006347656,263.6939697265625
1700076030,1.5969390869140625,0.5408935546875,0.175994873046875,-1.3413817882537842,0.7688825726509094,0.5750465393066406,74.03941345214844,-29.680679321289062,263.499267578125
1700076030,2.0933837890625,-0.0180511474609375,0.46575927734375,0.0539708249270916,1.62009596824646,0.2070352137088775,75.00418090820312,-29.658447265625,265.30548095703125
1700076030,2.28472900390625,-0.4225921630859375,0.3661346435546875,0.3128093183040619,1.617570161819458,0.9013391137123108,75.8934326171875,-29.576141357421875,264.7695007324219
1700076030,1.571868896484375,0.2061614990234375,-0.34442138671875,0.1379256397485733,0.775780439376831,1.2605109214782717,77.1710205078125,-29.60015869140625,265.2479248046875
1700076030,0.9277801513671876,0.1956939697265625,-0.8137969970703125,-0.1045610308647155,-0.0245165284723043,0.9332866668701172,78.19564819335938,-29.54296875,265.0379638671875
1700076030,0.7415008544921875,0.0148773193359375,-1.0048980712890625,-0.159051701426506,-0.3983468413352966,0.6459020376205444,79.75180053710938,-29.624008178710938,265.461669921875
1700076030,0.7609710693359375,0.065643310546875,-0.6060638427734375,0.0700129047036171,-0.2916821837425232,0.5627885460853577,81.24575805664062,-29.800369262695312,265.0487365722656
1700076030,0.739166259765625,0.17266845703125,-0.233001708984375,0.2282246500253677,-0.0859391391277313,0.5808780193328857,82.78569030761719,-30.23101806640625,265.2284240722656
1700076030,0.6775054931640625,0.2944793701171875,-0.1766204833984375,0.2192071825265884,-0.046815175563097,0.4894264340400696,84.5391845703125,-30.52552795410156,265.2231140136719
1700076030,0.8047027587890625,0.399078369140625,-0.302520751953125,0.117516778409481,-0.1500901579856872,0.2382876724004745,86.17892456054688,-31.003204345703125,265.08502197265625
1700076030,1.0141143798828125,0.4259490966796875,-0.368377685546875,-0.1391333937644958,-0.1846808940172195,-0.0261996462941169,88.54171752929688,-31.838897705078125,264.7684631347656
1700076030,1.1385650634765625,0.315277099609375,-0.265228271484375,-0.2189254164695739,-0.0556398257613182,-0.0844778642058372,90.0,-32.74250793457031,265.1254272460937
1700076030,1.0839691162109375,0.0952606201171875,-0.1113433837890625,-0.1767904907464981,0.132508248090744,-0.0316769704222679,92.22808837890624,-33.48756408691406,265.55548095703125
1700076030,0.988250732421875,-0.078582763671875,-0.1399993896484375,-0.1293595880270004,0.1891635358333587,0.1167545765638351,94.09658813476562,-34.68940734863281,265.5330810546875
1700076030,0.935455322265625,-0.1136016845703125,-0.2641754150390625,-0.0466974638402462,0.1211653053760528,0.2830415666103363,96.45051574707033,-35.82289123535156,265.468505859375
1700076030,0.929931640625,-0.09619140625,-0.3651123046875,0.0895650386810302,0.0045955507084727,0.413670927286148,97.8786163330078,-37.04469299316406,265.1098327636719
1700076030,0.9109649658203124,-0.0186614990234375,-0.3942413330078125,0.0957797914743423,-0.0808090940117836,0.4414434432983398,99.8918914794922,-38.59394836425781,265.38800048828125
1700076030,0.909912109375,0.1139373779296875,-0.3534088134765625,0.0750825032591819,-0.0697119683027267,0.4162291586399078,102.05117797851562,-40.25038146972656,265.7670288085937
1700076030,0.893218994140625,0.2062225341796875,-0.2730255126953125,0.1300615966320037,0.0154415406286716,0.413968414068222,103.66534423828124,-41.88349914550781,265.61444091796875
1700076030,0.8751678466796875,0.2229156494140625,-0.181915283203125,0.213726133108139,0.1456421464681625,0.4401872456073761,105.7126922607422,-43.61189270019531,266.6884765625
1700076030,0.8858184814453125,0.14959716796875,-0.1581573486328125,0.239749476313591,0.2532125413417816,0.5171014666557312,107.55526733398438,-45.60105895996094,266.9626770019531
1700076030,0.9025421142578124,0.0002593994140625,-0.154541015625,0.1339498162269592,0.3450468778610229,0.6080883741378784,108.90699768066406,-47.81864929199219,267.66436767578125
1700076030,0.935577392578125,-0.2239990234375,-0.1168212890625,0.0234914775937795,0.4749904870986938,0.7863979339599609,110.56710815429688,-50.15557861328125,268.223876953125
1700076030,0.9268341064453124,-0.3545989990234375,-0.1613311767578125,-0.0909131318330764,0.590643048286438,1.0772454738616943,112.15643310546876,-52.59825134277344,269.0007629394531
1700076030,0.8843231201171875,-0.32891845703125,-0.34954833984375,0.0122023373842239,0.577412486076355,1.3427692651748655,113.34225463867188,-55.303985595703125,269.406982421875
1700076030,0.8543243408203125,-0.2066650390625,-0.445709228515625,0.2102291285991668,0.4632725715637207,1.501063585281372,114.14218139648438,-58.25367736816406,269.6557006835937
1700076030,0.817718505859375,0.0822601318359375,-0.41839599609375,0.1825170814990997,0.3564944565296173,1.428063154220581,114.96746826171876,-60.4114990234375,269.9034729003906
1700076030,0.876220703125,0.4488677978515625,-0.331451416015625,0.1239038333296775,0.4451225996017456,1.198310375213623,116.17800903320312,-63.72117614746094,271.23291015625
1700076030,0.9546356201171876,0.692352294921875,-0.183990478515625,0.391704112291336,0.703620195388794,0.8844248652458191,116.34060668945312,-65.60392761230469,272.13311767578125
1700076030,1.02044677734375,0.604949951171875,-0.02703857421875,0.8125136494636536,0.8454654812812805,0.8038282990455627,116.92848205566406,-67.86471557617188,272.1757202148437
1700076030,1.0317535400390625,0.231170654296875,-0.0736236572265625,0.9088841676712036,0.8771024942398071,0.9939252734184264,117.14207458496094,-70.32676696777344,272.5672912597656
1700076030,0.9959869384765624,-0.1466217041015625,-0.288116455078125,0.7844327688217163,0.8854832053184509,1.3264036178588867,117.04734802246094,-72.21131896972656,272.32177734375
1700076030,0.8526153564453125,-0.3479766845703125,-0.529388427734375,0.5695587992668152,0.8174272179603577,1.7461968660354614,117.47694396972656,-73.52078247070312,272.6318359375
1700076030,0.681396484375,-0.3377685546875,-0.62640380859375,0.4690239429473877,0.7705858945846558,2.148263931274414,117.24934387207033,-75.22738647460938,273.50958251953125
1700076030,0.645111083984375,-0.0717926025390625,-0.481170654296875,0.3141230344772339,0.7654577493667603,2.2025065422058105,116.9393310546875,-76.30099487304688,273.59832763671875
1700076030,0.7904510498046875,0.3997344970703125,-0.248382568359375,0.2762249410152435,0.9392932057380676,1.940357089042664,116.8563995361328,-77.04421997070312,273.91461181640625
1700076030,0.9565277099609376,0.690582275390625,-0.139129638671875,0.6352555155754089,1.0743505954742432,1.7244479656219482,116.98974609375,-78.17913818359375,273.56256103515625
1700076030,1.133758544921875,0.6867828369140625,-0.16351318359375,1.012906193733215,1.0652332305908203,1.740025281906128,117.34242248535156,-78.33563232421875,273.4624328613281
1700076030,1.265106201171875,0.42828369140625,-0.3506622314453125,1.0865614414215088,1.0118427276611328,1.815414309501648,117.26406860351562,-79.00071716308594,273.1007080078125
1700076030,1.1395416259765625,0.087646484375,-0.553314208984375,0.9552697539329528,0.9337362051010132,2.031222581863404,117.1207275390625,-78.86819458007812,273.1719970703125
1700076030,0.88311767578125,-0.0135955810546875,-0.6174163818359375,0.839601993560791,0.9001678824424744,2.279676675796509,117.7091064453125,-78.51667785644531,273.6396484375
1700076030,0.7563934326171875,0.1449737548828125,-0.56158447265625,0.7905758619308472,0.9241267442703248,2.2475390434265137,117.75090026855467,-78.38102722167969,273.3520812988281
1700076030,0.80474853515625,0.4228363037109375,-0.450347900390625,0.8088507652282715,0.9489290118217468,2.10660719871521,117.90904235839844,-78.23574829101562,273.23699951171875
1700076030,0.859130859375,0.673492431640625,-0.32476806640625,0.9394100904464722,0.9651716351509094,1.9898505210876465,118.01199340820312,-77.69140625,273.0165405273437
1700076030,1.03070068359375,0.7245635986328125,-0.2981414794921875,1.0162785053253174,0.9282261729240416,2.020009279251098,117.99583435058594,-77.2781982421875,273.2637634277344
1700076030,1.3181915283203125,0.5859832763671875,-0.300506591796875,0.93569815158844,0.900409460067749,2.207237720489502,118.30769348144533,-76.96644592285156,273.3114318847656
1700076030,1.305694580078125,0.36346435546875,-0.36785888671875,0.7388530373573303,0.8950426578521729,2.461104154586792,118.35763549804688,-77.00245666503906,273.13165283203125
1700076030,1.1113739013671875,0.139801025390625,-0.4056549072265625,0.5616098046302795,0.850879967212677,2.643008232116699,118.7510986328125,-76.9080810546875,273.7191162109375
1700076030,0.88470458984375,0.2530975341796875,-0.6249847412109375,0.6694416999816895,0.7369549870491028,2.551840305328369,118.5535888671875,-77.43751525878906,273.43804931640625
1700076030,0.7805023193359375,0.545684814453125,-0.6703948974609375,0.8652727603912354,0.7286539077758789,2.320350885391236,118.76219177246094,-77.55754089355469,273.7484130859375
1700076030,0.809814453125,0.7300262451171875,-0.5460357666015625,0.9213147163391112,0.6805734634399414,2.1717069149017334,118.51010131835938,-77.36727905273438,274.057861328125
1700076030,0.989288330078125,0.68853759765625,-0.48870849609375,0.9598458409309388,0.5472407341003418,2.218153715133667,118.6694793701172,-76.86198425292969,273.4373779296875
1700076030,1.126922607421875,0.61846923828125,-0.5186004638671875,0.8957875370979309,0.3860406577587127,2.3328652381896973,118.96150207519533,-76.37239074707031,273.5379638671875
1700076030,1.3585205078125,0.649444580078125,-0.5073394775390625,0.7189379334449768,0.2510252892971039,2.4098238945007324,119.13270568847656,-75.35890197753906,273.697265625
1700076030,1.6217803955078125,0.6045684814453125,-0.415985107421875,0.5045111179351807,0.140221819281578,2.44303560256958,118.7943115234375,-74.39584350585938,273.3908386230469
1700076030,1.764556884765625,0.491851806640625,-0.3756103515625,0.3742705285549164,0.0088930940255522,2.4619300365448,118.75502014160156,-73.18635559082031,273.2679443359375
1700076030,1.7896728515625,0.387115478515625,-0.3655853271484375,0.2496654987335205,-0.1856827735900879,2.407994031906128,118.7229461669922,-72.22450256347656,273.445556640625
1700076030,1.7069244384765625,0.3187255859375,-0.3745269775390625,0.1556409895420074,-0.4098575711250305,2.1160128116607666,118.58734130859376,-71.9041748046875,273.044677734375
1700076030,1.5284423828125,0.2217864990234375,-0.3893585205078125,-0.0827422812581062,-0.5809624791145325,1.8246134519577024,118.80072021484376,-71.18353271484375,272.97003173828125
1700076030,1.0589599609375,0.23126220703125,-0.4596405029296875,-0.4363022148609161,-0.6205775141716003,1.6229233741760254,118.95176696777344,-70.98011779785156,272.805908203125
1700076030,0.484710693359375,0.2773284912109375,-0.5934600830078125,-0.7067720293998718,-0.5059816837310791,1.1675071716308594,118.59848022460938,-70.35932922363281,272.06072998046875
1700076030,0.131561279296875,0.1456756591796875,-0.6587982177734375,-1.0125786066055298,-0.4015253186225891,0.7201416492462158,118.72102355957033,-69.98899841308594,272.057373046875
1700076030,-0.1424560546875,0.0958251953125,-0.607421875,-1.137419819831848,-0.4211456477642059,0.37209153175354,118.65373229980467,-69.94088745117188,272.241455078125
1700076030,-0.336273193359375,0.07098388671875,-0.4000244140625,-0.7788800597190857,-0.5623461604118347,-0.0441091395914554,118.48918151855467,-69.38407897949219,272.1752014160156
1700076030,-0.3917083740234375,-0.0485992431640625,-0.0662689208984375,-0.2772257328033447,-0.7792526483535767,-0.6240241527557373,118.42831420898438,-68.64529418945312,272.5511779785156
1700076030,-0.259063720703125,-0.186553955078125,0.2335205078125,-0.0517300404608249,-0.9858612418174744,-1.2009152173995972,118.48854064941406,-68.54780578613281,272.8353576660156
1700076030,-0.057830810546875,-0.1744537353515625,0.2892303466796875,-0.0854195579886436,-1.1208651065826416,-1.7233331203460691,118.55078125,-68.42576599121094,272.2034606933594
1700076030,0.063568115234375,-0.08905029296875,-0.0505218505859375,0.0519939586520195,-1.219464659690857,-2.2959582805633545,118.42018127441406,-68.1541748046875,271.95489501953125
1700076030,0.1470489501953125,-0.1979217529296875,-0.2145233154296875,0.386394590139389,-1.2382580041885376,-2.7967517375946045,118.55406188964844,-67.99172973632812,272.1064758300781
1700076030,0.23260498046875,-0.326416015625,-0.102813720703125,0.627633810043335,-1.1863759756088257,-3.11652946472168,118.51756286621094,-67.87948608398438,271.8345947265625
1700076030,0.292327880859375,-0.3208465576171875,-0.055877685546875,0.5133373737335205,-1.143915772438049,-3.293059825897217,118.42254638671876,-67.55876159667969,271.30914306640625
1700076030,0.3846435546875,-0.2209625244140625,-0.099212646484375,0.1684931367635727,-1.1565088033676147,-3.418341875076294,118.5672607421875,-66.96994018554688,271.3704833984375
1700076030,0.488067626953125,-0.1112518310546875,-0.13970947265625,-0.2856911420822143,-1.2000267505645752,-3.547479152679444,118.53504943847656,-66.68690490722656,271.510009765625
1700076030,0.5622711181640625,-0.0430145263671875,-0.1545257568359375,-0.7287508845329285,-1.223881483078003,-3.709122896194458,118.39666748046876,-66.4564208984375,271.3522033691406
1700076030,0.6455078125,-0.0286102294921875,-0.18414306640625,-1.0381531715393066,-1.2150126695632937,-3.872371912002564,118.4117431640625,-66.46798706054688,271.8085632324219
1700076030,0.753265380859375,-0.02642822265625,-0.2272491455078125,-1.3550126552581787,-1.1917816400527954,-3.974734306335449,118.52268981933594,-65.98374938964844,271.3329467773437
1700076030,0.8690948486328125,0.0092010498046875,-0.2824249267578125,-1.821646332740784,-1.2399762868881226,-3.9038374423980713,118.14723205566406,-66.03036499023438,271.4013671875
1700076030,0.951171875,0.1194305419921875,-0.3079681396484375,-2.2165751457214355,-1.416694402694702,-3.6413300037384033,118.6925811767578,-65.734130859375,271.1639709472656
1700076030,1.002471923828125,0.2582550048828125,-0.2923126220703125,-2.3475658893585205,-1.631285548210144,-3.459297180175781,118.1839599609375,-65.46119689941406,271.33282470703125
1700076030,1.0764312744140625,0.337799072265625,-0.2652740478515625,-2.0461761951446533,-1.770815134048462,-3.3832244873046875,118.22219848632812,-64.93682861328125,271.9066467285156
1700076030,1.13006591796875,0.4678192138671875,-0.2719573974609375,-1.2339900732040403,-1.8794060945510864,-3.374817371368408,118.28529357910156,-64.76359558105469,271.8777770996094
1700076030,1.1658935546875,0.671051025390625,-0.305419921875,-0.3157608807086944,-2.1212940216064453,-3.454020500183105,118.1532745361328,-64.35948181152344,271.6011047363281
1700076030,1.2764129638671875,0.887176513671875,-0.23980712890625,0.0035209653433412,-2.287763833999634,-3.5589637756347656,118.21292114257812,-64.5584716796875,271.7418212890625
1700076030,1.4243621826171875,1.0830841064453125,-0.1967010498046875,-0.1932488232851028,-2.1215579509735107,-3.8285725116729736,117.90089416503906,-64.33926391601562,271.5032653808594
1700076030,1.4951629638671875,1.1472625732421875,-0.203216552734375,-0.1174864172935485,-1.759802222251892,-4.123566627502441,118.19998168945312,-63.90447998046875,271.4151916503906
1700076030,1.4340057373046875,1.0294952392578125,-0.1896514892578125,0.1289696991443634,-1.4259858131408691,-4.120140075683594,117.87945556640624,-63.61871337890625,271.5353698730469
1700076030,1.288848876953125,0.911163330078125,-0.3091278076171875,0.1778445690870285,-1.2565810680389404,-3.913956642150879,117.82339477539062,-63.08293151855469,271.8423156738281
1700076030,1.2034149169921875,0.8567352294921875,-0.4504547119140625,0.1667192131280899,-1.2383595705032349,-3.62176251411438,117.8933563232422,-63.13829040527344,272.28369140625
1700076030,1.20953369140625,0.8215789794921875,-0.5115509033203125,0.0658514499664306,-1.317255973815918,-3.336425304412842,117.87326049804688,-62.85369873046875,272.046875
1700076030,1.2768707275390625,0.7577362060546875,-0.5413360595703125,-0.0627619177103042,-1.3907581567764282,-3.1294586658477783,117.94256591796876,-62.88981628417969,272.0722045898437
1700076030,1.326507568359375,0.68310546875,-0.5632781982421875,-0.1789178252220153,-1.4009976387023926,-2.92981505393982,117.76719665527344,-62.71458435058594,271.5585327148437
1700076031,1.2472076416015625,0.633270263671875,-0.5047760009765625,-0.1325937360525131,-1.3739479780197144,-2.649862289428711,117.70077514648438,-62.16546630859375,271.9405517578125
1700076031,1.1243438720703125,0.620147705078125,-0.417510986328125,-0.0337784700095653,-1.3383334875106812,-2.3314828872680664,117.66407775878906,-61.74385070800781,272.1166687011719
1700076031,1.0373382568359375,0.611175537109375,-0.38812255859375,0.0640080124139785,-1.30035662651062,-2.0068113803863525,117.39306640625,-61.74943542480469,271.2585144042969
1700076031,0.9619903564453124,0.636322021484375,-0.3577423095703125,0.2536498606204986,-1.218727469444275,-1.7054414749145508,117.19947814941406,-61.02278137207031,271.22174072265625
1700076031,0.8901519775390625,0.6693878173828125,-0.3681793212890625,0.4628456830978393,-1.0830250978469849,-1.4137486219406128,117.54460144042967,-60.88034057617188,271.46392822265625
1700076031,0.768768310546875,0.681396484375,-0.40277099609375,0.6364089250564575,-0.8516075611114502,-1.1363836526870728,116.84178161621094,-60.41323852539063,271.47589111328125
1700076031,0.6263580322265625,0.6467437744140625,-0.4318695068359375,0.7309064269065857,-0.5489704608917236,-0.927688479423523,117.05819702148438,-59.44134521484375,270.85357666015625
1700076031,0.5128326416015625,0.5388641357421875,-0.4499053955078125,0.7904562950134277,-0.2625796794891357,-0.7194162011146545,116.80186462402344,-58.679931640625,271.0589904785156
1700076031,0.4647216796875,0.4055938720703125,-0.3892364501953125,0.7995243668556213,-0.0182525068521499,-0.4724346399307251,116.91485595703124,-58.24412536621094,271.0151672363281
1700076031,0.5517730712890625,0.307830810546875,-0.330413818359375,0.6917070746421814,0.1944033056497573,-0.144165426492691,116.63128662109376,-57.11854553222656,270.64166259765625
1700076031,0.7114105224609375,0.28363037109375,-0.3518829345703125,0.5750454664230347,0.3562617003917694,0.1480445861816406,116.22695922851562,-56.277252197265625,270.2374267578125
1700076031,0.8151092529296875,0.270965576171875,-0.4107818603515625,0.4440626800060272,0.4789764285087585,0.3816474974155426,116.3109893798828,-55.76960754394531,269.8073425292969
1700076031,0.81982421875,0.2816009521484375,-0.48846435546875,0.3438039720058441,0.5665289163589478,0.566577672958374,115.69984436035156,-54.59881591796875,269.42095947265625
1700076031,0.6920623779296875,0.2737884521484375,-0.54095458984375,0.243966594338417,0.7010167241096497,0.8278177976608276,115.68983459472656,-53.53692626953125,269.4341735839844
1700076031,0.54156494140625,0.2620391845703125,-0.5569000244140625,0.1537299007177353,0.7709968686103821,1.134216547012329,115.13113403320312,-52.55879211425781,268.4599609375
1700076031,0.5126495361328125,0.2130584716796875,-0.4560699462890625,0.0421770140528678,0.908040165901184,1.429574728012085,114.64749145507812,-51.75421142578125,268.2426147460937
1700076031,0.6816558837890625,0.259735107421875,-0.4572906494140625,-0.0913842394948005,0.84946209192276,1.3532350063323977,114.41883850097656,-50.677032470703125,267.6591186523437
1700076031,0.76312255859375,0.205474853515625,-0.409576416015625,0.1590975075960159,0.7968827486038208,0.9919731616973876,113.84788513183594,-49.894439697265625,267.0909423828125
1700076031,1.1708984375,-0.0238189697265625,-0.2178955078125,0.8089879155158997,3.666739702224731,1.4188928604125977,113.65928649902344,-48.455108642578125,266.546875
1700076031,0.391693115234375,0.59039306640625,-2.3294219970703125,1.9716955423355105,3.4931442737579346,2.632998466491699,113.3787841796875,-47.70643615722656,266.718994140625
1700076031,0.250030517578125,1.8892822265625,-2.028182983398437,0.4294677376747131,-1.3166604042053225,2.418259382247925,112.919921875,-46.84870910644531,266.635986328125
1700076031,3.899383544921875,0.597076416015625,1.0318450927734375,0.1244857385754585,0.061301440000534,-0.2293074876070022,112.27142333984376,-45.90419006347656,265.7124328613281
1700076031,3.4290313720703125,-1.5155792236328125,-0.5622711181640625,0.4458560347557068,0.8715397119522095,-0.9383307099342346,112.34295654296876,-45.32861328125,265.34832763671875
1700076031,1.5926513671875,-1.1680450439453125,0.933380126953125,0.3160671591758728,1.7308001518249512,0.126682847738266,111.55294799804688,-44.11929321289063,264.87579345703125
1700076031,0.63751220703125,-0.699493408203125,0.87811279296875,-0.59565669298172,1.7871803045272827,1.0977169275283811,110.83517456054688,-43.218353271484375,265.1469116210937
1700076031,0.2542877197265625,-0.5452880859375,-0.143585205078125,-1.091108798980713,1.399759292602539,1.1399098634719849,110.23056030273438,-42.12858581542969,264.68218994140625
1700076031,0.536285400390625,-0.636138916015625,-0.5066070556640625,-0.719010591506958,1.104495406150818,0.7090557217597961,109.49710083007812,-40.77650451660156,264.2939453125
1700076031,1.293243408203125,-0.7027587890625,-0.4098358154296875,-0.6557477712631226,0.4823810160160064,0.9470227360725404,108.74069213867188,-39.92535400390625,264.5074462890625
1700076031,2.023162841796875,-0.1719818115234375,-0.2168426513671875,-1.0454154014587402,0.0575727485120296,1.2713688611984253,107.96359252929688,-38.84135437011719,264.00750732421875
1700076031,2.209014892578125,0.1862030029296875,-0.19775390625,-0.9420878887176514,-0.4127630591392517,1.1779342889785769,107.3974151611328,-38.049896240234375,263.96441650390625
1700076031,1.9920654296875,0.24371337890625,0.1628875732421875,-1.4545751810073853,-0.1963047981262207,0.9996832609176636,106.06167602539062,-37.13961791992188,263.9700927734375
1700076031,1.83758544921875,0.26934814453125,0.12127685546875,-0.862153947353363,0.4786818921566009,0.6787915825843811,105.08674621582033,-35.842742919921875,263.6121520996094
1700076031,2.0255584716796875,-0.154541015625,0.3846282958984375,-0.4830292463302612,0.8912737369537354,1.1107256412506104,104.30995178222656,-34.61814880371094,263.9447631835937
1700076031,1.6228485107421875,0.103424072265625,0.0369873046875,-0.3431333899497986,0.7178561091423035,1.5993776321411133,102.8861846923828,-33.38816833496094,264.0722351074219
1700076031,1.1506805419921875,0.356292724609375,-0.3706512451171875,0.0250667370855808,0.3106798529624939,1.4561892747879028,101.67152404785156,-32.44606018066406,264.26873779296875
1700076031,0.8846588134765625,0.31231689453125,-0.56024169921875,0.1191658079624176,-0.3038877248764038,0.9035179018974304,99.9436492919922,-31.33074951171875,264.503173828125
1700076031,0.751922607421875,0.458099365234375,-0.623382568359375,0.0812045782804489,-0.4248447716236114,0.3631960451602936,98.45948791503906,-30.13438415527344,264.7359924316406
1700076031,0.8743896484375,0.632476806640625,-0.3939208984375,0.3509292602539062,-0.1265552788972854,0.0528911761939525,96.8672332763672,-28.91680908203125,265.63043212890625
1700076031,0.812744140625,0.5588226318359375,-0.0662994384765625,0.5983161330223083,0.1021412834525108,-0.1175636500120163,95.70193481445312,-28.511642456054688,265.16021728515625
1700076031,0.78778076171875,0.22174072265625,-0.135406494140625,0.480692058801651,0.1205194890499115,-0.2091574817895889,94.10789489746094,-27.65516662597656,265.05621337890625
1700076031,0.954010009765625,-0.033966064453125,-0.270294189453125,0.1754250824451446,0.1001425758004188,-0.1334182471036911,92.73527526855467,-26.93524169921875,265.7024841308594
1700076031,1.04571533203125,-0.1792755126953125,-0.3029632568359375,-0.069556176662445,0.0856315493583679,0.1782496273517608,91.29025268554688,-26.71372985839844,266.1146240234375
1700076031,0.9852447509765624,-0.1554718017578125,-0.3556060791015625,-0.1781833171844482,0.0143839996308088,0.448820412158966,89.839599609375,-26.20867919921875,266.3510131835937
1700076031,0.9723663330078124,-0.1187744140625,-0.35699462890625,-0.2750017344951629,-0.0170868411660194,0.5600801110267639,89.04481506347656,-25.6129150390625,266.5302124023437
1700076031,0.9588470458984376,0.007720947265625,-0.3550872802734375,-0.2536408007144928,-0.0087082702666521,0.538571834564209,87.59181213378906,-25.56318664550781,266.3502502441406
1700076031,0.9109954833984376,0.135009765625,-0.2901153564453125,-0.1752000451087951,0.0303872004151344,0.4796776473522186,86.8516845703125,-25.21942138671875,265.9494323730469
1700076031,0.8592376708984375,0.2183380126953125,-0.242645263671875,-0.0569064244627952,0.0888979136943817,0.4309063851833343,86.54376220703125,-25.31494140625,265.46484375
1700076031,0.84173583984375,0.2423248291015625,-0.2247772216796875,0.0750369578599929,0.1342648565769195,0.4304613769054413,85.88786315917969,-25.58509826660156,265.62957763671875
1700076031,0.8336181640625,0.1838531494140625,-0.237091064453125,0.1619393676519394,0.1724865436553955,0.5270867347717285,85.68447875976562,-25.19464111328125,266.0026550292969
1700076031,0.827178955078125,0.0939483642578125,-0.23468017578125,0.1670124232769012,0.227775901556015,0.6621657013893127,86.01448059082031,-25.67103576660156,266.4998779296875
1700076031,0.8784027099609375,-0.0308837890625,-0.16668701171875,0.0696256831288337,0.3154051005840301,0.7755506038665771,86.78781127929688,-26.413497924804688,266.82647705078125
1700076031,0.9619598388671876,-0.1936492919921875,-0.1153411865234375,0.0074946680106222,0.4741177856922149,0.9523413181304932,87.66120910644531,-26.705963134765625,267.7089233398437
1700076031,1.0078125,-0.270111083984375,-0.19342041015625,0.0994421690702438,0.5465844869613647,1.3073463439941406,89.17582702636719,-27.787322998046875,267.5289611816406
1700076031,0.9851226806640624,-0.1940460205078125,-0.2685699462890625,0.2290648818016052,0.5522218942642212,1.64145827293396,90.40457153320312,-28.540817260742188,267.6265869140625
1700076031,0.9655914306640624,-0.140777587890625,-0.2791900634765625,0.2515478134155273,0.6003262996673584,1.8459205627441408,91.95974731445312,-29.847396850585938,268.02685546875
1700076031,0.8808441162109375,-0.0452423095703125,-0.31219482421875,0.2077079266309738,0.644446074962616,1.9375189542770384,92.9955596923828,-31.055938720703125,267.78759765625
1700076031,0.7577056884765625,0.1303253173828125,-0.3315887451171875,0.2983022630214691,0.6919398307800293,1.907696008682251,94.17855834960938,-32.20768737792969,268.49200439453125
1700076031,0.711456298828125,0.3003387451171875,-0.238739013671875,0.4387142360210418,0.8092795014381409,1.7969623804092407,95.50758361816406,-33.48088073730469,268.7125244140625
1700076031,0.7924652099609375,0.4476318359375,-0.13031005859375,0.5999678373336792,0.9672068357467652,1.737102746963501,96.87425231933594,-34.81712341308594,268.4159545898437
1700076031,0.971771240234375,0.4744110107421875,-0.1064910888671875,0.8675918579101562,1.0652852058410645,1.789645075798035,97.92417907714844,-35.871612548828125,268.99200439453125
1700076031,1.144866943359375,0.3231353759765625,-0.149749755859375,0.9308669567108154,1.057323932647705,1.966222167015076,99.13499450683594,-37.2091064453125,268.99169921875
1700076031,1.2007598876953125,0.109832763671875,-0.26104736328125,0.6482394933700562,1.021082639694214,2.1040635108947754,100.1933135986328,-38.92427062988281,270.2113342285156
1700076031,1.0687255859375,-0.0578765869140625,-0.5004119873046875,0.5052578449249268,1.0082330703735352,2.272538661956787,101.6455535888672,-40.76557922363281,270.9241027832031
1700076031,0.78094482421875,-0.080810546875,-0.6957855224609375,0.8210964798927307,0.9936981201171876,2.518507242202759,102.44483947753906,-42.24687194824219,271.48516845703125
1700076031,0.63348388671875,0.1832427978515625,-0.5901947021484375,0.9770253896713256,1.0440595149993896,2.4137980937957764,103.8509521484375,-44.005889892578125,272.6369323730469
1700076031,0.875,0.542694091796875,-0.2833709716796875,0.9807644486427308,1.1752694845199585,2.2450649738311768,104.94395446777344,-45.69488525390625,272.7268981933594
1700076031,1.17242431640625,0.7670745849609375,-0.1255645751953125,1.084226369857788,1.2073832750320437,2.1942718029022217,105.24594116210938,-47.63169860839844,273.42242431640625
1700076031,1.478485107421875,0.630523681640625,-0.1688232421875,1.0598994493484497,1.1453073024749756,2.348626613616944,106.26116943359376,-48.63121032714844,274.68316650390625
1700076031,1.4917144775390625,0.3105926513671875,-0.3149261474609375,0.834526002407074,1.1279504299163818,2.6288037300109863,106.8673858642578,-50.73577880859375,274.9090576171875
1700076031,1.05694580078125,0.099761962890625,-0.4757232666015625,0.7217262387275696,1.1379567384719849,2.8931427001953125,107.24298095703124,-51.64935302734375,275.404541015625
1700076031,0.7657928466796875,0.1885986328125,-0.565521240234375,0.7727558612823486,1.1289349794387815,2.8733022212982178,107.5908203125,-53.258331298828125,275.91656494140625
1700076031,0.81512451171875,0.4432373046875,-0.486968994140625,0.9012842774391174,1.2323013544082642,2.7031280994415283,108.26132202148438,-54.85894775390625,276.913818359375
1700076031,0.7452239990234375,0.6011810302734375,-0.4200592041015625,1.0145604610443115,1.2561688423156738,2.479896545410156,108.25935363769533,-55.77824401855469,277.63702392578125
1700076031,0.8291015625,0.68499755859375,-0.476715087890625,1.1404223442077637,1.133967041969299,2.3739688396453857,108.51437377929688,-57.056396484375,279.0069885253906
1700076031,0.9724884033203124,0.6786956787109375,-0.4970855712890625,1.1470996141433716,1.0574123859405518,2.3773787021636963,108.81805419921876,-58.93751525878906,279.16412353515625
1700076031,1.0298004150390625,0.6633148193359375,-0.466827392578125,1.0759974718093872,0.963938057422638,2.378178834915161,108.95347595214844,-60.071533203125,279.9974975585937
1700076031,1.3004150390625,0.64337158203125,-0.4451141357421875,1.073711395263672,0.8311049342155457,2.4260945320129395,109.01763916015624,-61.12847900390625,280.9556884765625
1700076031,1.5221710205078125,0.5856475830078125,-0.43499755859375,1.0267252922058103,0.674475371837616,2.4670650959014893,109.54025268554688,-62.114044189453125,281.4109802246094
1700076031,1.67083740234375,0.519195556640625,-0.4286041259765625,1.0054959058761597,0.4715443551540375,2.452343463897705,109.39620971679688,-63.40184020996094,282.113525390625
1700076031,1.859161376953125,0.4044342041015625,-0.3863067626953125,0.8713969588279724,0.2198796272277832,2.4053850173950195,109.4697723388672,-64.09356689453125,282.3082275390625
1700076031,1.9041748046875,0.31561279296875,-0.395355224609375,0.5496295690536499,-0.0364512167870998,2.3487696647644043,109.4219970703125,-64.78065490722656,283.1280517578125
1700076031,1.6727752685546875,0.284149169921875,-0.4244842529296875,0.1799900084733963,-0.1252958625555038,2.271423816680908,109.4706573486328,-66.19438171386719,283.4278564453125
1700076031,1.17822265625,0.2855987548828125,-0.4992523193359375,-0.0915525555610656,-0.1168688312172889,2.148721218109131,109.64108276367188,-66.71507263183594,284.06005859375
1700076031,0.6853790283203125,0.3069305419921875,-0.568328857421875,-0.3461100161075592,-0.1081491038203239,1.880587697029113,109.36257934570312,-67.79951477050781,284.031494140625
1700076031,0.412139892578125,0.2808990478515625,-0.5611419677734375,-0.5977073311805725,-0.025912556797266,1.4140641689300537,109.783935546875,-68.33335876464844,284.3369140625
1700076031,0.190155029296875,0.176605224609375,-0.611297607421875,-0.6206731200218201,0.0164490137249231,0.9304102063179016,109.80361938476562,-69.13810729980469,285.137939453125
1700076031,-0.0761566162109375,0.108184814453125,-0.6298675537109375,-0.4930773377418518,-0.0304894652217626,0.4726634323596954,109.97453308105467,-69.51861572265625,284.7658996582031
1700076031,-0.2895355224609375,0.084503173828125,-0.6259307861328125,-0.17550790309906,-0.1936198025941848,-0.0540065094828605,110.29705810546876,-69.527587890625,284.77069091796875
1700076031,-0.410003662109375,0.0140228271484375,-0.48516845703125,0.2266169041395187,-0.4052620232105255,-0.765634298324585,110.11004638671876,-69.90390014648438,285.1060791015625
1700076031,-0.3902740478515625,-0.10546875,-0.067596435546875,0.6262940168380737,-0.5767882466316223,-1.4654219150543213,110.2810516357422,-69.63444519042969,285.25738525390625
1700076031,-0.2348175048828125,-0.1493072509765625,0.4011688232421875,0.7616057395935059,-0.7714080214500427,-1.995116114616394,110.71902465820312,-69.17636108398438,285.0277099609375
1700076031,-0.0646209716796875,-0.0240325927734375,0.3335113525390625,0.6614610552787781,-0.8345896601676941,-2.5057384967803955,110.6937255859375,-68.85249328613281,284.6571044921875
1700076031,0.1094818115234375,-0.1239471435546875,-0.0627288818359375,0.7368476390838623,-0.810980498790741,-3.041160821914673,110.89060974121094,-67.98982238769531,284.90283203125
1700076031,0.28009033203125,-0.4588775634765625,0.016387939453125,0.7629266977310181,-0.6996257305145264,-3.406958818435669,111.05827331542967,-67.35871887207031,284.8200988769531
1700076031,0.392120361328125,-0.6360015869140625,0.090087890625,0.5084685683250427,-0.6600087881088257,-3.62213134765625,111.4268035888672,-66.49409484863281,284.6756286621094
1700076031,0.5176544189453125,-0.6163177490234375,-0.0386199951171875,0.0166588723659515,-0.6711288690567017,-3.638835191726685,111.7763671875,-65.70643615722656,284.4893798828125
1700076031,0.5635223388671875,-0.361968994140625,-0.2079620361328125,-0.3812413513660431,-0.696672797203064,-3.719015121459961,112.53572082519533,-64.46575927734375,282.09527587890625
1700076031,0.60662841796875,-0.142974853515625,-0.27740478515625,-0.6293603777885437,-0.6947017908096313,-3.978045701980591,113.03645324707033,-62.938323974609375,280.5626525878906
1700076031,0.716461181640625,-0.018402099609375,-0.30035400390625,-0.7302297353744507,-0.6978278160095215,-4.323471546173096,113.24807739257812,-62.20759582519531,281.2255554199219
1700076032,0.8297119140625,0.0731658935546875,-0.21783447265625,-0.7249393463134766,-0.7558456063270569,-4.578850746154785,113.39260864257812,-63.09947204589844,281.8235168457031
1700076032,0.9076385498046876,0.176025390625,-0.09942626953125,-0.6859698295593262,-0.8127171397209167,-4.6707048416137695,114.2053680419922,-63.58831787109375,281.4801940917969
1700076032,0.9446563720703124,0.2827606201171875,-0.0815277099609375,-0.6134077310562134,-0.9193514585494996,-4.651669025421143,114.11029052734376,-63.55645751953125,280.7479553222656
1700076032,0.9724273681640624,0.3600006103515625,-0.0850982666015625,-0.5540131330490112,-1.047745943069458,-4.644988536834717,114.58502197265624,-63.23944091796875,279.6568603515625
1700076032,1.0253448486328125,0.4141082763671875,-0.06878662109375,-0.4265196323394775,-1.1896185874938965,-4.596677780151367,114.82601928710938,-62.701263427734375,279.092041015625
1700076032,1.0725555419921875,0.514404296875,-0.0093994140625,-0.1177878826856613,-1.281087040901184,-4.472074031829834,115.47476196289062,-61.63458251953125,278.94244384765625
1700076032,1.0867462158203125,0.6521453857421875,0.017974853515625,0.3416774272918701,-1.355329513549805,-4.330338478088379,115.27484130859376,-60.99034118652344,278.59686279296875
1700076032,1.119903564453125,0.791351318359375,0.0156707763671875,0.6179508566856384,-1.4502936601638794,-4.205252170562744,115.5310516357422,-60.29193115234375,277.69287109375
1700076032,1.1912689208984375,0.9402618408203124,-0.04412841796875,0.5519009828567505,-1.4845818281173706,-4.1394476890563965,115.68280029296876,-59.35366821289063,277.2338256835937
1700076032,1.3225250244140625,1.059326171875,-0.1827850341796875,0.1469108909368515,-1.4195321798324585,-4.111367702484131,115.2882843017578,-59.07246398925781,277.3657531738281
1700076032,1.470977783203125,1.14306640625,-0.3560638427734375,-0.449570894241333,-1.3863468170166016,-4.093879699707031,115.6110382080078,-59.05340576171875,276.8451538085937
1700076032,1.5856781005859375,1.1226348876953125,-0.482757568359375,-0.9166219830513,-1.3060530424118042,-4.033066749572754,115.38937377929688,-58.43125915527344,276.85089111328125
1700076032,1.6027374267578125,0.9938507080078124,-0.5868682861328125,-1.2288507223129272,-1.3538488149642944,-3.809845209121704,115.26951599121094,-57.878448486328125,276.6404113769531
1700076032,1.50872802734375,0.9337005615234376,-0.589111328125,-1.3697830438613892,-1.546062707901001,-3.3850882053375244,114.88076782226562,-56.835845947265625,276.6628723144531
1700076032,1.3581695556640625,0.9483795166015624,-0.5386962890625,-1.5240179300308228,-1.713188886642456,-2.91713285446167,114.69386291503906,-56.22573852539063,275.61163330078125
1700076032,1.195281982421875,0.9521331787109376,-0.5160980224609375,-1.5071576833724976,-1.7710721492767334,-2.4369025230407715,114.69650268554688,-55.3443603515625,276.1830444335937
1700076032,1.1187896728515625,0.966339111328125,-0.4538726806640625,-1.26616108417511,-1.677830934524536,-2.023184061050415,114.5004425048828,-55.388458251953125,276.35693359375
1700076032,1.1061553955078125,0.9788055419921876,-0.412933349609375,-0.900202214717865,-1.5002177953720093,-1.711538553237915,114.904296875,-55.36802673339844,276.4112548828125
1700076032,1.076263427734375,1.0073394775390625,-0.416839599609375,-0.5310977101325989,-1.2095153331756592,-1.5150675773620603,114.2023468017578,-55.38807678222656,275.72198486328125
1700076032,0.9728240966796876,0.9991455078125,-0.5258331298828125,-0.2119290381669998,-0.9299824833869934,-1.3285088539123535,114.77435302734376,-55.35273742675781,275.86297607421875
1700076032,0.7778778076171875,0.9469757080078124,-0.5478057861328125,0.0044810348190367,-0.635997474193573,-1.0998144149780271,114.80940246582033,-55.37611389160156,275.6625366210937
1700076032,0.58514404296875,0.822601318359375,-0.468780517578125,0.1546361744403839,-0.3125123679637909,-0.8116121888160706,114.79013061523438,-54.96160888671875,275.9486694335937
1700076032,0.5132904052734375,0.6732635498046875,-0.3405914306640625,0.2718011438846588,0.0289363097399473,-0.5182058811187744,114.2793426513672,-54.207611083984375,275.4552307128906
1700076032,0.5440673828125,0.539520263671875,-0.304046630859375,0.2391510605812072,0.3190024793148041,-0.1431664824485778,114.86209106445312,-54.45909118652344,275.30450439453125
1700076032,0.5644073486328125,0.5175933837890625,-0.37689208984375,0.1163926571607589,0.5318718552589417,0.3508581519126892,114.19696044921876,-54.15330505371094,275.9750366210937
1700076032,0.544769287109375,0.5894775390625,-0.4897613525390625,0.0799417048692703,0.5746193528175354,0.8130452036857605,114.28985595703124,-53.632171630859375,275.4236755371094
1700076032,0.54901123046875,0.605194091796875,-0.5386810302734375,-0.0788841620087623,0.7256174087524414,1.0785852670669556,113.81654357910156,-53.34808349609375,275.2161865234375
1700076032,0.6152801513671875,0.5438385009765625,-0.6899566650390625,-0.2920798063278198,0.5218405723571777,1.2802022695541382,114.24983215332033,-53.1290283203125,275.3414306640625
1700076032,0.7357940673828125,0.4659423828125,-0.48114013671875,-0.4051221907138824,0.9122123122215272,1.3223239183425903,114.15023803710938,-52.70533752441406,275.04888916015625
1700076032,1.02166748046875,0.299163818359375,-0.667633056640625,0.6281174421310425,3.690138816833496,2.0336015224456787,114.0050048828125,-52.37934875488281,275.5014038085937
1700076032,0.22430419921875,1.0850067138671875,-2.53802490234375,0.9228819608688354,1.5417695045471191,3.1759963035583496,113.61434936523438,-51.69645690917969,275.04913330078125
1700076032,1.1531982421875,1.952056884765625,-0.827880859375,-0.3786852657794952,-1.0265971422195437,1.4029591083526611,113.44190979003906,-50.75642395019531,274.98046875
1700076032,4.0511016845703125,-0.3079986572265625,0.6832275390625,0.6115262508392334,0.822192370891571,-0.8281453251838684,113.36361694335938,-50.17231750488281,274.1786804199219
1700076032,2.8474273681640625,-1.6736907958984375,0.0751495361328125,1.310688853263855,1.8585513830184937,-0.9190126657485962,113.02276611328124,-49.08262634277344,274.1410522460937
1700076032,1.254058837890625,-1.1325531005859375,0.8975830078125,0.4080948233604431,1.9305089712142944,0.0547588542103767,112.28556823730467,-48.386749267578125,273.59112548828125
1700076032,0.6619415283203125,-0.757720947265625,0.2944183349609375,-1.0810787677764893,1.5776206254959106,1.3041534423828125,112.353759765625,-47.41618347167969,273.7604675292969
1700076032,0.473602294921875,-0.6159515380859375,-0.491546630859375,-1.3294689655303955,1.501002311706543,1.653887152671814,111.90960693359376,-46.70118713378906,273.05419921875
1700076032,0.9065093994140624,-1.0564727783203125,-0.569488525390625,-0.327367216348648,1.4041271209716797,1.2045551538467407,111.29583740234376,-45.51936340332031,273.3074951171875
1700076032,1.497894287109375,-1.349639892578125,-0.377349853515625,0.122011125087738,1.1193130016326904,1.6343885660171509,110.99159240722656,-45.33708190917969,272.944091796875
1700076032,1.650421142578125,-0.5411224365234375,-0.490814208984375,-0.0270337481051683,0.6645857095718384,2.366765022277832,110.75576782226562,-44.00823974609375,272.4511413574219
1700076032,1.47882080078125,0.17144775390625,-0.288909912109375,-0.466087281703949,0.2074234932661056,2.519275426864624,109.93716430664062,-43.170257568359375,272.009765625
1700076032,1.1795196533203125,0.3963623046875,-0.154815673828125,-1.018163800239563,-0.1761175096035003,1.6795026063919067,109.424072265625,-41.91473388671875,272.00213623046875
1700076032,0.8798675537109375,0.3580474853515625,-0.2909088134765625,-0.9600834250450134,-0.1374465376138687,0.5911309719085693,108.1882781982422,-40.77996826171875,271.22283935546875
1700076032,0.719879150390625,0.55499267578125,-0.18450927734375,-0.9627801179885864,-0.0065484466031193,0.6699756979942322,107.70358276367188,-39.36837768554688,271.3712158203125
1700076032,1.159454345703125,1.0567626953125,0.15423583984375,-1.422807693481445,0.0367542877793312,0.7058393955230713,106.62800598144533,-38.3104248046875,271.0101928710937
1700076032,2.242156982421875,0.8694915771484375,0.2705841064453125,-0.6591835021972656,0.5690067410469055,0.231810063123703,106.29531860351562,-37.4744873046875,270.4794921875
1700076032,2.7138824462890625,0.435394287109375,-0.002593994140625,0.1306600123643875,0.4922214150428772,0.2404688000679016,105.612060546875,-35.90296936035156,270.79541015625
1700076032,1.9739227294921875,0.5803680419921875,-0.1311187744140625,-0.0085327681154012,0.1517543792724609,0.3470437228679657,104.9464111328125,-35.429901123046875,270.2042236328125
1700076032,1.1761932373046875,0.5046234130859375,-0.344696044921875,-0.0981484055519104,0.0278545338660478,0.221331849694252,103.62139892578124,-34.24456787109375,270.20635986328125
1700076032,0.72540283203125,0.18121337890625,-0.352386474609375,0.0490972399711608,0.171681210398674,0.1557054370641708,102.68276977539062,-33.308319091796875,270.41558837890625
1700076032,0.3981781005859375,-0.0807952880859375,-0.27801513671875,0.111585646867752,0.3727320432662964,0.2229007184505462,101.81509399414062,-32.29292297363281,269.87890625
1700076032,0.35284423828125,-0.331573486328125,-0.3202056884765625,0.195177748799324,0.3897549510002136,0.433283269405365,100.700927734375,-30.949493408203125,270.0140380859375
1700076032,0.60198974609375,-0.470550537109375,-0.4002685546875,0.4135292470455169,0.3384499549865722,0.7614254355430603,98.95401000976562,-29.826904296875,269.5501708984375
1700076032,0.9139251708984376,-0.4257659912109375,-0.3744354248046875,0.3957183063030243,0.2984308898448944,1.0634441375732422,97.67396545410156,-28.38368225097656,269.6639404296875
1700076032,1.0694732666015625,-0.1493988037109375,-0.3797607421875,0.230220690369606,0.2092671990394592,1.1895360946655271,96.04022216796876,-27.78768920898437,269.37176513671875
1700076032,1.07427978515625,0.1792144775390625,-0.3891143798828125,0.0629528686404228,0.1574119925498962,1.099989414215088,94.39958190917967,-26.66786193847656,269.42352294921875
1700076032,1.0055084228515625,0.355438232421875,-0.3030853271484375,0.04897952824831,0.2922662198543548,0.8996554613113403,92.71507263183594,-26.03266906738281,269.3558349609375
1700076032,0.9214019775390624,0.426788330078125,-0.1498260498046875,0.2640460431575775,0.4597273766994476,0.8213031888008118,91.67471313476562,-25.25286865234375,269.35601806640625
1700076032,0.822784423828125,0.3824615478515625,-0.136138916015625,0.4542620480060577,0.4475697875022888,0.8764790892601013,90.21736145019533,-24.719772338867188,268.8741760253906
1700076032,0.7542266845703125,0.282135009765625,-0.25921630859375,0.3943430483341217,0.4012443721294403,0.9748314619064332,89.04586791992188,-24.51387023925781,268.5557556152344
1700076032,0.7697601318359375,0.1699371337890625,-0.2945556640625,0.2095742672681808,0.4583196341991424,1.0655012130737305,88.05120849609375,-23.783355712890625,268.4376220703125
1700076032,0.8573455810546875,0.044403076171875,-0.261444091796875,0.1166848018765449,0.5902446508407593,1.1915949583053589,87.15330505371094,-23.76329040527344,268.6031799316406
1700076032,0.9855804443359376,-0.005584716796875,-0.28399658203125,0.1585923135280609,0.6421490907669067,1.39622163772583,86.71481323242188,-23.42486572265625,268.2396545410156
1700076032,1.062652587890625,0.0285491943359375,-0.3101959228515625,0.2780004739761352,0.6696345210075378,1.6043550968170166,86.09542846679688,-23.74598693847656,267.4864807128906
1700076032,1.0536651611328125,0.0333404541015625,-0.304412841796875,0.4289244711399078,0.7085795402526855,1.7636970281600952,86.34608459472656,-24.235275268554688,267.5220031738281
1700076032,0.91510009765625,-0.0060272216796875,-0.3202972412109375,0.5656575560569763,0.7485328316688538,1.8803882598876955,86.13258361816406,-24.41293334960937,268.0794982910156
1700076032,0.649871826171875,0.0735931396484375,-0.4580841064453125,0.7292179465293884,0.7346683740615845,1.8475687503814693,86.8814697265625,-24.872802734375,267.8970947265625
1700076032,0.503448486328125,0.3179473876953125,-0.4549713134765625,0.8969129920005798,0.8355039358139038,1.6649014949798584,88.15972900390625,-25.397979736328125,267.81982421875
1700076032,0.6664886474609375,0.59832763671875,-0.1916961669921875,0.9761172533035278,1.0328595638275146,1.5090315341949463,89.18846130371094,-26.160903930664062,267.7138671875
1700076032,1.051239013671875,0.6936798095703125,-0.006500244140625,1.149818778038025,1.1763256788253784,1.512102127075195,90.60490417480467,-26.83467102050781,268.2374267578125
1700076032,1.3464202880859375,0.482666015625,-0.183074951171875,1.2281053066253662,1.2051291465759275,1.6411210298538208,92.12432861328124,-27.644195556640625,268.4035949707031
1700076032,1.460418701171875,0.2088470458984375,-0.3799591064453125,1.1446372270584106,1.082225322723389,1.9615603685379028,93.72352600097656,-28.75131225585937,268.2465209960937
1700076032,1.1917877197265625,0.024627685546875,-0.427398681640625,0.8598702549934387,1.1181766986846924,2.3681423664093018,94.974853515625,-29.73231506347656,268.36932373046875
1700076032,0.805694580078125,-0.0439605712890625,-0.6137847900390625,0.780945360660553,1.1069458723068235,2.513668298721313,96.8830108642578,-30.7789306640625,268.0309753417969
1700076032,0.7367706298828125,0.193206787109375,-0.60064697265625,0.8759634494781494,1.0945336818695068,2.4032084941864014,97.94606018066406,-32.278167724609375,268.61090087890625
1700076032,0.8616790771484375,0.6013946533203125,-0.477783203125,1.0109516382217407,1.110465407371521,2.1989786624908447,99.5154266357422,-33.401519775390625,268.97906494140625
1700076032,1.02667236328125,0.7225341796875,-0.2889404296875,1.1455206871032717,1.093645453453064,2.1491000652313232,101.49075317382812,-34.93257141113281,269.8016357421875
1700076032,1.0682525634765625,0.5792388916015625,-0.3281402587890625,1.1075503826141355,0.9907063245773317,2.3131375312805176,103.04411315917967,-36.36836242675781,269.87725830078125
1700076032,0.9674072265625,0.4535369873046875,-0.482635498046875,0.8528586626052856,0.9254285097122192,2.4426534175872803,104.35316467285156,-37.9281005859375,270.368408203125
1700076032,1.0667266845703125,0.4377288818359375,-0.535400390625,0.699795663356781,0.8744415044784546,2.558723926544189,105.60443115234376,-39.60757446289063,270.61181640625
1700076032,1.109619140625,0.3975067138671875,-0.517303466796875,0.715426504611969,0.7690910696983337,2.6601216793060303,106.73040771484376,-41.7872314453125,271.24786376953125
1700076032,1.0712738037109375,0.49822998046875,-0.5255279541015625,0.7407305836677551,0.6660536527633667,2.6783716678619385,107.83499145507812,-43.65644836425781,271.874267578125
1700076032,1.19171142578125,0.6381072998046875,-0.5353546142578125,0.76615309715271,0.5779416561126709,2.67268967628479,109.4567413330078,-45.499542236328125,272.71368408203125
1700076032,1.233795166015625,0.615631103515625,-0.5189971923828125,0.7627993822097778,0.4801900386810303,2.7185099124908447,110.27490234375,-47.13229370117188,273.25982666015625
1700076032,1.3717498779296875,0.5936737060546875,-0.5209197998046875,0.7517238259315491,0.3548808693885803,2.771357774734497,111.21223449707033,-49.24833679199219,274.3245849609375
1700076032,1.604644775390625,0.5561676025390625,-0.457916259765625,0.6954323053359985,0.2059835195541381,2.7984211444854736,111.8521728515625,-51.358642578125,274.9692077636719
1700076032,1.77349853515625,0.46160888671875,-0.4003448486328125,0.5597469210624695,0.0139861227944493,2.824814796447754,112.50718688964844,-53.16958618164063,275.54119873046875
1700076032,1.8480682373046875,0.3553314208984375,-0.362091064453125,0.3016296327114105,-0.2106805443763733,2.706037998199463,112.63029479980467,-55.005218505859375,275.9999389648437
1700076032,1.78973388671875,0.207061767578125,-0.3653411865234375,0.0471555292606353,-0.4132871925830841,2.496752977371216,113.08358764648438,-56.59077453613281,276.8866577148437
1700076032,1.531036376953125,0.1324005126953125,-0.415740966796875,-0.0901831537485122,-0.5309493541717529,2.318635940551758,114.05094909667967,-58.32551574707031,278.1380615234375
1700076032,1.0592498779296875,0.1765899658203125,-0.5696868896484375,-0.3447573781013489,-0.5484204888343811,1.9306892156600952,113.98526000976562,-59.87721252441406,278.7789306640625
1700076032,0.66497802734375,0.1008148193359375,-0.7202911376953125,-0.6559946537017822,-0.4777796268463135,1.3710347414016724,114.42994689941406,-61.54319763183594,279.6148681640625
1700076032,0.3070526123046875,-0.010955810546875,-0.6923675537109375,-1.2351278066635132,-0.4357376396656036,1.0537073612213137,114.2225341796875,-62.69781494140625,280.03680419921875
1700076032,-0.1426544189453125,0.0423583984375,-0.6784210205078125,-1.4999696016311646,-0.5365017652511597,0.724010169506073,114.34207153320312,-64.11935424804688,280.69091796875
1700076032,-0.4682769775390625,-0.03936767578125,-0.423919677734375,-0.99075049161911,-0.78057461977005,0.1999088525772094,114.66387939453124,-65.67961120605469,281.1933898925781
1700076032,-0.66973876953125,-0.2078094482421875,0.09930419921875,-0.465860903263092,-1.0097495317459106,-0.4417481124401092,114.2886962890625,-66.5556640625,281.6247863769531
1700076032,-0.525909423828125,-0.2256011962890625,0.4141845703125,-0.5244235396385193,-1.2286556959152222,-1.000227928161621,114.85223388671876,-67.82218933105469,282.2831420898437
1700076032,-0.002471923828125,-0.0279541015625,0.2479705810546875,-0.4905827641487121,-1.559111475944519,-1.715067982673645,115.02073669433594,-68.76216125488281,282.8159484863281
1700076032,0.3601531982421875,-0.1748504638671875,0.040283203125,-0.0528222024440765,-1.7376558780670166,-2.5290637016296387,114.95660400390624,-69.28327941894531,282.9342346191406
1700076032,0.509033203125,-0.517425537109375,0.07305908203125,0.4741071164608001,-1.6887482404708862,-2.909165143966675,114.89569091796876,-70.38465881347656,283.82147216796875
1700076033,0.4564971923828125,-0.5161285400390625,0.11907958984375,0.4084378182888031,-1.6541399955749512,-2.890154361724853,115.39466857910156,-70.40484619140625,283.4963073730469
1700076033,0.4370880126953125,-0.272186279296875,-0.0011749267578125,0.0768215432763099,-1.7266849279403689,-2.947971820831299,115.3197784423828,-70.81678771972656,283.57684326171875
1700076033,0.5460205078125,-0.1470947265625,-0.0934600830078125,-0.1908128261566162,-1.7967045307159424,-3.244450569152832,115.41619873046876,-70.66311645507812,283.6770935058594
1700076033,0.61090087890625,-0.166015625,-0.150726318359375,-0.3678869307041168,-1.7930078506469729,-3.562336206436157,115.4603271484375,-70.13703918457031,283.2381286621094
1700076033,0.63519287109375,-0.1429901123046875,-0.2233428955078125,-0.5198026895523071,-1.7281146049499512,-3.749843597412109,115.53448486328124,-69.91531372070312,283.7165222167969
1700076033,0.678924560546875,-0.0242767333984375,-0.2725067138671875,-0.6459702253341675,-1.6807841062545776,-3.801438808441162,115.932861328125,-69.30694580078125,283.0374755859375
1700076033,0.76702880859375,0.145477294921875,-0.2676544189453125,-0.6843754053115845,-1.7595454454421997,-3.813955307006836,116.4139404296875,-68.38468933105469,283.42352294921875
1700076033,0.919097900390625,0.2914276123046875,-0.180694580078125,-0.8358826637268066,-1.9209332466125488,-4.005367279052734,116.29510498046876,-67.61665344238281,283.07403564453125
1700076033,1.146087646484375,0.3260650634765625,-0.119232177734375,-1.0889593362808228,-1.9193252325057983,-4.312618255615234,116.3334503173828,-66.53213500976562,282.86102294921875
1700076033,1.3309326171875,0.3008270263671875,-0.1771392822265625,-1.3293639421463013,-1.8157246112823489,-4.447729587554932,116.9656982421875,-65.94232177734375,281.651611328125
1700076033,1.3407440185546875,0.3297576904296875,-0.22894287109375,-1.4745323657989502,-1.7359389066696167,-4.381264686584473,117.32496643066406,-65.1162109375,281.0589599609375
1700076033,1.3030242919921875,0.3458404541015625,-0.2121734619140625,-1.441736340522766,-1.7823580503463743,-4.129016876220703,117.9653778076172,-63.7491455078125,277.8773193359375
1700076033,1.2661590576171875,0.403045654296875,-0.16583251953125,-1.1585110425949097,-1.93709659576416,-3.901288270950317,118.2138671875,-62.91842651367188,278.8887634277344
1700076033,1.3131561279296875,0.4367218017578125,-0.11175537109375,-0.917149782180786,-2.113900184631348,-3.837184429168701,118.67416381835938,-63.19343566894531,280.15673828125
1700076033,1.3966522216796875,0.4303131103515625,-0.1196136474609375,-0.948384165763855,-2.1913392543792725,-3.867382526397705,118.90084838867188,-63.968597412109375,280.0778503417969
1700076033,1.4420928955078125,0.4651336669921875,-0.2149505615234375,-1.1542425155639648,-2.1991608142852783,-3.869306564331055,119.6530303955078,-64.47877502441406,278.5313415527344
1700076033,1.45831298828125,0.573028564453125,-0.335784912109375,-1.3106496334075928,-2.197460651397705,-3.777575254440308,119.7978973388672,-65.12435913085938,277.9506225585937
1700076033,1.4821014404296875,0.7368621826171875,-0.4406585693359375,-1.4958269596099854,-2.323014497756958,-3.613908052444458,120.12962341308594,-64.63153076171875,277.57586669921875
1700076033,1.5353851318359375,0.8946075439453125,-0.4994964599609375,-1.581623911857605,-2.4118881225585938,-3.5046489238739014,120.66110229492188,-64.38729858398438,276.6717529296875
1700076033,1.607177734375,0.9382476806640624,-0.52008056640625,-1.4448455572128296,-2.3521547317504883,-3.5128560066223145,120.46852111816406,-63.59698486328125,276.5429992675781
1700076033,1.654022216796875,0.8739013671875,-0.4976654052734375,-1.177704095840454,-2.201162338256836,-3.555238008499145,120.38450622558594,-62.29862976074219,276.0904846191406
1700076033,1.6183319091796875,0.7813262939453125,-0.4830474853515625,-1.1317592859268188,-1.999881625175476,-3.5145819187164307,120.16070556640624,-60.78904724121094,275.88427734375
1700076033,1.4420013427734375,0.6604461669921875,-0.551116943359375,-1.2170299291610718,-1.810944676399231,-3.340693950653076,120.30670166015624,-59.6220703125,275.915283203125
1700076033,1.255859375,0.55108642578125,-0.598724365234375,-1.2351692914962769,-1.7011258602142334,-3.0213499069213867,120.12840270996094,-59.524505615234375,275.0798034667969
1700076033,1.1444854736328125,0.5088958740234375,-0.5589599609375,-1.146774411201477,-1.650943398475647,-2.631855726242065,120.29718017578124,-58.97257995605469,274.364501953125
1700076033,1.05023193359375,0.5185699462890625,-0.5230560302734375,-0.8653680682182312,-1.5649906396865845,-2.26572585105896,120.1562957763672,-58.57337951660156,272.87420654296875
1700076033,0.8979034423828125,0.558837890625,-0.531951904296875,-0.3650160431861877,-1.4072997570037842,-1.939225196838379,119.88641357421876,-57.51469421386719,272.6443786621094
1700076033,0.7252960205078125,0.6517486572265625,-0.4940338134765625,0.236311063170433,-1.146026611328125,-1.6479976177215576,119.69888305664062,-57.18356323242188,272.8153686523437
1700076033,0.628997802734375,0.8084716796875,-0.4126739501953125,0.7835299372673035,-0.7816769480705261,-1.4197583198547363,119.21852111816406,-56.714874267578125,272.911865234375
1700076033,0.6209716796875,0.9748992919921876,-0.328338623046875,1.2393555641174316,-0.3912215530872345,-1.1879069805145264,119.3708038330078,-56.25151062011719,273.5114440917969
1700076033,0.6301116943359375,1.059112548828125,-0.30279541015625,1.4684540033340454,-0.1054252237081527,-0.8829060792922974,119.005126953125,-56.20135498046875,272.7870178222656
1700076033,0.65301513671875,0.93011474609375,-0.338104248046875,1.3487979173660278,0.12063480168581,-0.5620148777961731,119.2476806640625,-55.61480712890625,272.9416809082031
1700076033,0.6947479248046875,0.6114044189453125,-0.3933258056640625,0.887202262878418,0.3503886461257934,-0.2281801700592041,119.01222229003906,-55.54730224609375,273.1212158203125
1700076033,0.7233428955078125,0.30535888671875,-0.4307098388671875,0.1444059163331985,0.5497137308120728,0.1624549627304077,119.15339660644533,-55.72178649902344,273.5363464355469
1700076033,0.7550201416015625,0.0785064697265625,-0.423919677734375,-0.7680314183235168,0.7435449957847595,0.6126852631568909,118.92976379394533,-55.7567138671875,273.3426513671875
1700076033,0.7153167724609375,-0.0611419677734375,-0.45452880859375,-1.6037532091140747,0.8201609253883362,1.038657546043396,118.90283203125,-55.64268493652344,273.06298828125
1700076033,0.6702117919921875,-0.1356201171875,-0.41961669921875,-2.113083839416504,0.8062637448310852,1.3976290225982666,119.02491760253906,-55.26426696777344,273.4949035644531
1700076033,0.632476806640625,-0.1464996337890625,-0.3820037841796875,-2.34725284576416,0.7908629775047302,1.7184598445892334,119.42251586914062,-55.2423095703125,273.4974365234375
1700076033,0.60015869140625,-0.067779541015625,-0.4034423828125,-2.5189898014068604,0.7321932315826416,2.096119403839112,119.24827575683594,-55.17990112304688,273.4513854980469
1700076033,0.650634765625,0.1769561767578125,-0.413299560546875,-2.5905182361602783,0.6445955038070679,2.303410291671753,118.97776794433594,-54.74150085449219,273.31317138671875
1700076033,0.780914306640625,0.4370269775390625,-0.44677734375,-2.522083044052124,1.0027073621749878,2.153061866760254,118.99000549316406,-54.49043273925781,273.1097412109375
1700076033,0.7105865478515625,0.62445068359375,-0.8100433349609375,-1.8735239505767824,1.9155858755111688,1.956771969795227,118.86160278320312,-54.40309143066406,273.19793701171875
1700076033,0.5457611083984375,0.7316131591796875,-1.30853271484375,0.1485487222671508,5.576425075531006,2.230463743209839,118.8815460205078,-54.47602844238281,273.1742553710937
1700076033,-0.0688934326171875,1.4728851318359375,-3.6285247802734375,-1.5478692054748535,0.3154258728027344,2.7388899326324463,118.39707946777344,-53.861846923828125,273.17791748046875
1700076033,2.4358367919921875,1.67071533203125,0.0502166748046875,-0.8635464906692505,-0.2036697715520858,0.3337324261665344,118.771484375,-53.39707946777344,273.11065673828125
1700076033,4.7750396728515625,-1.0784912109375,0.4400177001953125,1.4167710542678833,1.3202922344207764,-1.0304070711135864,118.39183044433594,-53.120697021484375,272.16680908203125
1700076033,2.580062866210937,-1.0879974365234375,0.0773468017578125,2.270159959793091,1.2649229764938354,-0.2933160364627838,118.26789855957033,-52.66964721679688,272.5497131347656
1700076033,0.9187469482421876,-0.275421142578125,0.84051513671875,2.357663631439209,1.016007661819458,0.91252201795578,118.29167175292967,-52.16075134277344,272.16168212890625
1700076033,0.2266845703125,-0.1930084228515625,0.80828857421875,1.4510715007781982,1.0035747289657593,1.2483160495758057,117.75978088378906,-51.30647277832031,272.39190673828125
1700076033,0.363555908203125,-0.1429443359375,0.7981109619140625,-0.0255735367536544,1.317412495613098,1.1910955905914309,117.2659912109375,-50.33430480957031,271.956298828125
1700076033,0.805908203125,-0.1931915283203125,0.3646697998046875,-1.1002402305603027,1.4714289903640747,1.1757166385650637,117.20555114746094,-49.78181457519531,271.25225830078125
1700076033,1.3548583984375,-0.1813507080078125,0.132293701171875,-1.040819764137268,1.1724209785461426,1.3686258792877195,117.21389770507812,-49.30513000488281,270.9016418457031
1700076033,2.007553100585937,-0.005126953125,0.2620697021484375,-1.3148510456085205,0.9349210858345032,1.3125981092453003,116.47547912597656,-48.94624328613281,271.0198974609375
1700076033,2.499664306640625,0.0186614990234375,-0.0911865234375,-1.190628170967102,0.9363743662834167,0.7548556923866272,116.30776977539062,-48.34259033203125,270.89923095703125
1700076033,2.8426513671875,-0.2269287109375,-0.1644439697265625,-0.4244945645332336,1.0261753797531128,0.8057947754859924,116.09019470214844,-47.61149597167969,270.43963623046875
1700076033,2.26397705078125,-0.1005096435546875,-0.087249755859375,0.017568340525031,0.908946454524994,1.348257541656494,115.79011535644533,-46.582794189453125,270.0132751464844
1700076033,1.195709228515625,0.047393798828125,-0.2176513671875,0.1956882774829864,0.7813615798950195,1.5255622863769531,115.40805053710938,-45.43133544921875,269.54229736328125
1700076033,0.6836395263671875,-0.08966064453125,-0.415924072265625,0.3028962314128876,0.5850333571434021,1.3702325820922852,114.38688659667967,-44.77806091308594,269.1235656738281
1700076033,0.4622802734375,-0.054718017578125,-0.600311279296875,0.2470649182796478,0.107601560652256,1.1303470134735107,113.9253387451172,-43.42059326171875,268.808349609375
1700076033,0.535614013671875,0.2195892333984375,-0.58038330078125,0.2229563891887664,-0.3488964736461639,0.9414790868759156,113.3328094482422,-42.43513488769531,268.808349609375
1700076033,0.8635406494140625,0.5218963623046875,-0.4268798828125,0.0737999230623245,-0.6185553669929504,0.665724515914917,112.42155456542967,-41.52574157714844,268.3241271972656
1700076033,1.0747528076171875,0.6939544677734375,-0.1916656494140625,-0.2339887917041778,-0.3856033384799957,0.2124856263399124,112.3954620361328,-40.363037109375,267.9385986328125
1700076033,1.0680084228515625,0.8023681640625,-0.0738372802734375,0.1134924739599227,-0.007136738859117,-0.3300415575504303,111.51963806152344,-39.73088073730469,267.42608642578125
1700076033,1.05682373046875,0.5917205810546875,0.0115814208984375,0.2850679457187652,0.13133005797863,-0.5785791873931885,110.34893798828124,-38.54615783691406,267.6370849609375
1700076033,1.1023712158203125,0.2620391845703125,-0.08355712890625,0.0971625000238418,0.1810645908117294,-0.5808671116828918,109.99810791015624,-37.61747741699219,267.43609619140625
1700076033,1.1602020263671875,0.01470947265625,-0.248077392578125,0.0059186089783906,0.1634243428707122,-0.4700362086296081,109.08258056640624,-36.90888977050781,267.43292236328125
1700076033,1.135589599609375,-0.153228759765625,-0.32342529296875,0.0113661047071218,0.020453343167901,-0.194282665848732,108.265869140625,-35.77494812011719,267.21697998046875
1700076033,1.0293426513671875,-0.1430511474609375,-0.4196014404296875,0.1085821390151977,-0.2528013586997986,0.0289672035723924,107.34364318847656,-34.574676513671875,267.6620483398437
1700076033,0.9640960693359376,-0.0809478759765625,-0.438568115234375,0.2569324672222137,-0.4967016577720642,0.0981342867016792,106.5732421875,-33.826873779296875,267.32818603515625
1700076033,0.9442138671875,0.0700531005859375,-0.3367462158203125,0.3463539481163025,-0.5438600778579712,0.0175688732415437,105.4857177734375,-32.5400390625,266.9088439941406
1700076033,0.91949462890625,0.25933837890625,-0.1843414306640625,0.3083037734031677,-0.383116751909256,-0.2249846458435058,104.22126770019533,-31.622848510742188,266.47686767578125
1700076033,0.865966796875,0.41253662109375,-0.0179443359375,0.2655256688594818,-0.1282378584146499,-0.3955521285533905,102.76898193359376,-30.376266479492188,266.8499450683594
1700076033,0.81341552734375,0.4051666259765625,0.0215606689453125,0.3801755607128143,0.0282417573034763,-0.3813399076461792,101.71786499023438,-29.689682006835938,266.4197998046875
1700076033,0.8254852294921875,0.1814727783203125,-0.1315460205078125,0.3387461006641388,0.0532088913023471,-0.30279341340065,100.7893524169922,-28.781784057617188,266.82818603515625
1700076033,0.9222259521484376,-0.056121826171875,-0.248931884765625,0.0608636178076267,0.0013864416396245,-0.1635364592075348,99.29432678222656,-27.98594665527344,266.7044372558594
1700076033,0.97711181640625,-0.2206268310546875,-0.2480010986328125,-0.2629671692848205,0.006484530866146,0.0200080629438161,98.24894714355467,-27.38983154296875,266.9306335449219
1700076033,0.9596405029296876,-0.331268310546875,-0.238739013671875,-0.3834347426891327,0.0763536244630813,0.2853734195232391,97.14785766601562,-26.176071166992188,267.1191711425781
1700076033,0.9056396484375,-0.3253936767578125,-0.2648773193359375,-0.2333267331123352,0.0622212961316108,0.5415599346160889,95.322509765625,-25.78211975097656,266.97344970703125
1700076033,0.91314697265625,-0.2105712890625,-0.2552947998046875,-0.1046680882573127,-0.0149019844830036,0.6905187964439392,94.25773620605467,-25.19488525390625,267.0248107910156
1700076033,0.98529052734375,0.003326416015625,-0.2166595458984375,-0.0945760384202003,-0.0378507077693939,0.7164185643196106,92.25961303710938,-24.48980712890625,267.02130126953125
1700076033,1.00567626953125,0.1772003173828125,-0.1437835693359375,-0.1545078158378601,0.0494426488876342,0.6489697694778442,90.64236450195312,-23.69429016113281,267.0380249023437
1700076033,0.9740447998046876,0.2754669189453125,-0.0758209228515625,-0.1235626861453056,0.2075430750846862,0.5843353271484375,89.47396850585938,-23.324478149414062,267.0786437988281
1700076033,0.9146270751953124,0.239837646484375,-0.05133056640625,-0.033094834536314,0.3140298426151275,0.6331303119659424,88.16169738769531,-23.23480224609375,267.0047607421875
1700076033,0.878265380859375,0.0563507080078125,-0.0678253173828125,-0.0485656708478927,0.384152203798294,0.7354598641395569,86.88681030273438,-22.89276123046875,266.7035522460937
1700076033,0.910491943359375,-0.1041259765625,-0.1664886474609375,-0.0582385398447513,0.4117422699928283,0.8819611668586731,86.37277221679688,-22.952392578125,266.0777893066406
1700076033,0.9532470703125,-0.183380126953125,-0.2704620361328125,0.0089924298226833,0.374555766582489,1.0893348455429075,85.82806396484375,-22.852783203125,265.6612243652344
1700076033,1.009918212890625,-0.162689208984375,-0.3188629150390625,0.0498493164777755,0.2913034856319427,1.2783559560775757,85.64892578125,-23.269454956054688,265.2589111328125
1700076033,1.07476806640625,-0.0475921630859375,-0.3273162841796875,0.0313603207468986,0.2007962167263031,1.3489505052566528,85.60530090332031,-23.728317260742188,265.016845703125
1700076033,1.1057891845703125,0.1349945068359375,-0.3088836669921875,0.0420640967786312,0.1374838203191757,1.3444249629974363,85.85728454589844,-23.96253967285156,265.2518005371094
1700076033,1.097808837890625,0.2709808349609375,-0.224395751953125,0.0359231121838092,0.1662840545177459,1.3218088150024414,86.26506042480469,-24.617904663085938,264.9613647460937
1700076033,1.06878662109375,0.32769775390625,-0.1297149658203125,0.0849348679184913,0.2353728413581848,1.352308988571167,86.85173034667969,-25.265182495117188,265.1112060546875
1700076033,1.039459228515625,0.2683563232421875,-0.0655364990234375,0.0914076790213584,0.2851550281047821,1.4327458143234253,88.32353210449219,-25.714340209960938,265.7391967773437
1700076033,1.068572998046875,0.15460205078125,-0.0790557861328125,0.0245857704430818,0.2977429926395416,1.5677679777145386,89.52093505859375,-26.744888305664062,266.242919921875
1700076033,1.11029052734375,0.0882415771484375,-0.144287109375,-0.0048256479203701,0.2821960151195526,1.7292141914367676,90.58653259277344,-28.13764953613281,267.2627258300781
1700076033,1.1400146484375,0.0816192626953125,-0.2091064453125,0.0619786828756332,0.243523970246315,1.8508087396621704,91.9713134765625,-29.202224731445312,267.2251892089844
1700076033,1.1877288818359375,0.0890350341796875,-0.2318267822265625,0.2072357386350631,0.2321117967367172,1.9410734176635744,93.10671997070312,-30.676544189453125,267.89569091796875
1700076033,1.222900390625,0.111328125,-0.2233734130859375,0.4388766884803772,0.2365478277206421,2.0156567096710205,94.51956176757812,-31.795944213867188,267.8720703125
1700076033,1.27264404296875,0.1171875,-0.1794891357421875,0.6672462224960327,0.2212460935115814,2.11334490776062,95.81044006347656,-33.01936340332031,268.2691345214844
1700076033,1.385009765625,0.10247802734375,-0.153045654296875,0.8315725922584534,0.2009813040494918,2.1945960521698,97.1995849609375,-34.79145812988281,268.39874267578125
1700076034,1.525787353515625,0.055908203125,-0.1981201171875,0.9869874715805054,0.1751307994127273,2.284233808517456,98.64907836914062,-36.34857177734375,268.00421142578125
1700076034,1.624420166015625,-0.01873779296875,-0.1857757568359375,1.1668328046798706,0.1200936511158943,2.41703200340271,99.55885314941406,-37.8289794921875,268.23956298828125
1700076034,1.70526123046875,-0.106658935546875,-0.06243896484375,1.3025949001312256,0.0695686936378479,2.5259249210357666,100.4407958984375,-39.533935546875,268.249755859375
1700076034,1.8431243896484373,-0.223968505859375,0.071136474609375,1.283907771110535,0.0420569069683551,2.623990297317505,101.19752502441406,-41.153228759765625,268.01318359375
1700076034,1.9994964599609373,-0.3176727294921875,0.1383514404296875,1.203332781791687,0.0329960323870182,2.6649482250213623,101.81834411621094,-42.53623962402344,267.81866455078125
1700076034,2.130233764648437,-0.4449005126953125,0.207855224609375,1.2365411520004272,-0.0347949974238872,2.692568778991699,102.13914489746094,-44.10078430175781,269.2087707519531
1700076034,2.09033203125,-0.4920196533203125,0.2910919189453125,1.1370561122894287,-0.1191117465496063,2.796823263168335,102.90638732910156,-45.78132629394531,270.0489196777344
1700076034,1.8336181640625,-0.381622314453125,0.0770111083984375,0.4189751446247101,0.1328720301389694,2.8290882110595703,103.58477783203124,-47.54380798339844,270.9864196777344
1700076034,1.43597412109375,-0.3390655517578125,-0.59393310546875,-0.9212185740470886,0.3291763067245483,3.0217843055725098,104.1626434326172,-49.5224609375,271.7548217773437
1700076034,1.06768798828125,-0.20330810546875,-1.0078277587890625,-1.879337906837464,0.1181325018405914,3.0787572860717773,104.84849548339844,-51.020599365234375,272.727294921875
1700076034,0.8249359130859375,-0.0891571044921875,-1.0373382568359375,-2.094439744949341,-0.3081985712051391,2.873531103134156,105.02223205566406,-52.73179626464844,273.33740234375
1700076034,0.706878662109375,-0.002716064453125,-1.0968017578125,-2.020027637481689,-0.5064395070075989,2.6459977626800537,105.52389526367188,-54.21955871582031,274.6312255859375
1700076034,0.77850341796875,0.0789642333984375,-1.1024169921875,-1.8837337493896484,-0.5508983135223389,2.437014579772949,105.67420959472656,-56.025482177734375,274.92535400390625
1700076034,0.821136474609375,0.15960693359375,-1.0150146484375,-1.6914840936660769,-0.6413224935531616,2.2645812034606934,105.66018676757812,-57.34600830078125,275.3468017578125
1700076034,0.7344818115234375,0.2872772216796875,-0.89959716796875,-1.6328953504562378,-0.795818030834198,2.114575386047364,105.8875732421875,-58.59773254394531,276.0151062011719
1700076034,0.66107177734375,0.5064544677734375,-0.62945556640625,-1.9710347652435305,-0.9528329372406006,1.7408369779586792,106.00300598144533,-59.73126220703125,276.787109375
1700076034,0.6641998291015625,0.7608795166015625,-0.15966796875,-2.0167527198791504,-0.9158983826637268,1.213931679725647,105.6875,-61.158294677734375,277.5077209472656
1700076034,0.5679473876953125,0.75115966796875,0.080596923828125,-1.4120583534240725,-0.8405290246009827,0.7308624982833862,105.57992553710938,-61.35478210449219,277.5171203613281
1700076034,0.494964599609375,0.3804931640625,0.056427001953125,-0.9267477989196776,-1.003299593925476,0.2259676158428192,105.80990600585938,-62.36024475097656,278.9989624023437
1700076034,0.543670654296875,0.0673828125,-0.0012664794921875,-0.7640460133552551,-1.307128667831421,-0.1366212218999862,105.70315551757812,-63.54911804199219,279.3526916503906
1700076034,0.521331787109375,-0.111053466796875,-0.0564117431640625,-0.8807560801506042,-1.5445120334625244,-0.3808253705501556,105.37710571289062,-63.67753601074219,279.8941955566406
1700076034,0.4400634765625,-0.2108917236328125,-0.1181182861328125,-1.170903205871582,-1.6751978397369385,-0.5076009035110474,104.7797393798828,-64.45323181152344,280.41876220703125
1700076034,0.3406829833984375,-0.2393951416015625,-0.1655731201171875,-1.4745336771011353,-1.750316500663757,-0.5965089201927185,104.35446166992188,-64.89329528808594,281.1044616699219
1700076034,0.2653045654296875,-0.253570556640625,-0.2004852294921875,-1.708340048789978,-1.7971290349960327,-0.7500369548797607,104.8845672607422,-65.4346923828125,281.21044921875
1700076034,0.2674407958984375,-0.265838623046875,-0.286346435546875,-1.87786328792572,-1.8821344375610352,-0.9857110381126404,104.29750061035156,-65.73847961425781,281.0911865234375
1700076034,0.344512939453125,-0.2468414306640625,-0.40289306640625,-2.023284673690796,-2.068672180175781,-1.2502238750457764,104.2764129638672,-65.68841552734375,281.4728698730469
1700076034,0.4711761474609375,-0.1992950439453125,-0.4698638916015625,-2.211955547332764,-2.299506664276123,-1.5363019704818726,104.13494873046876,-65.47610473632812,281.279296875
1700076034,0.6053466796875,-0.1457977294921875,-0.4584503173828125,-2.470413446426392,-2.476592779159546,-1.7918049097061155,103.8307647705078,-65.88124084472656,281.14337158203125
1700076034,0.705230712890625,-0.1044464111328125,-0.4380035400390625,-2.740142107009888,-2.5704002380371094,-1.972999691963196,104.02590942382812,-65.84030151367188,280.4862060546875
1700076034,0.76287841796875,-0.0606842041015625,-0.4773712158203125,-2.976149082183838,-2.620737075805664,-2.090057611465454,103.7886199951172,-65.400146484375,281.4081420898437
1700076034,0.7785797119140625,-0.0061798095703125,-0.5832366943359375,-3.184027671813965,-2.6547164916992188,-2.170860528945923,103.76611328125,-65.05181884765625,280.3675842285156
1700076034,0.7884521484375,0.048187255859375,-0.6757659912109375,-3.394146680831909,-2.714852809906006,-2.21750545501709,103.68397521972656,-64.90690612792969,280.364501953125
1700076034,0.817352294921875,0.1032867431640625,-0.710968017578125,-3.6107661724090576,-2.811574459075928,-2.24599289894104,103.33822631835938,-64.44691467285156,280.1062927246094
1700076034,0.8788604736328125,0.137725830078125,-0.71435546875,-3.771649837493897,-2.8809776306152344,-2.2799551486968994,103.79244995117188,-64.32112121582031,279.927978515625
1700076034,0.9438018798828124,0.1492767333984375,-0.708892822265625,-3.872811079025269,-2.9133119583129883,-2.3013081550598145,104.20193481445312,-63.39125061035156,277.566650390625
1700076034,0.976287841796875,0.1781768798828125,-0.706878662109375,-3.986302614212036,-2.923063278198242,-2.307744264602661,103.55172729492188,-62.795745849609375,278.2568664550781
1700076034,0.994415283203125,0.225677490234375,-0.7256622314453125,-4.158269882202148,-2.916717767715454,-2.316660165786743,103.34274291992188,-63.06304931640625,278.80877685546875
1700076034,1.04364013671875,0.2528076171875,-0.74835205078125,-4.395503520965576,-2.883575439453125,-2.365744113922119,104.08827209472656,-63.97740173339844,278.8360595703125
1700076034,1.128265380859375,0.2412567138671875,-0.7868804931640625,-4.706153869628906,-2.8271706104278564,-2.394954204559326,104.19720458984376,-64.27149963378906,278.565673828125
1700076034,1.1952362060546875,0.229400634765625,-0.8686981201171875,-5.073594093322754,-2.783779621124268,-2.382756471633911,103.98983764648438,-64.10624694824219,277.84161376953125
1700076034,1.2310638427734375,0.2133331298828125,-0.9643402099609376,-5.439277648925781,-2.7790417671203613,-2.311800956726074,104.13360595703124,-63.289306640625,277.702392578125
1700076034,1.25579833984375,0.1903076171875,-1.0416717529296875,-5.766077995300293,-2.7832067012786865,-2.2269628047943115,103.908203125,-62.98204040527344,276.6851806640625
1700076034,1.2754974365234375,0.1487274169921875,-1.07708740234375,-5.98025369644165,-2.7585690021514893,-2.10775089263916,103.7432098388672,-62.70851135253906,276.8475341796875
1700076034,1.2507476806640625,0.120147705078125,-1.0745391845703125,-5.929890155792236,-2.651571273803711,-1.990792751312256,103.9524383544922,-62.01310729980469,275.91552734375
1700076034,1.2272491455078125,0.1031646728515625,-1.033477783203125,-5.698898315429688,-2.4926135540008545,-1.8100565671920776,103.29753112792967,-61.44984436035156,276.1151123046875
1700076034,1.1896514892578125,0.1699676513671875,-1.0254974365234375,-5.331577301025391,-2.349306583404541,-1.6489003896713257,103.17225646972656,-61.08146667480469,276.46697998046875
1700076034,1.1764984130859375,0.25811767578125,-1.03192138671875,-4.852801322937012,-2.220715045928955,-1.5810688734054563,103.08529663085938,-60.27769470214844,276.2254943847656
1700076034,1.181671142578125,0.3290863037109375,-1.006591796875,-4.291571140289307,-2.0968565940856934,-1.6394422054290771,103.03909301757812,-59.89039611816406,275.5927429199219
1700076034,1.1689910888671875,0.4045562744140625,-0.938446044921875,-3.615816354751587,-1.9738266468048096,-1.7679970264434814,102.73138427734376,-59.04017639160156,275.4608154296875
1700076034,1.1410369873046875,0.4929656982421875,-0.8148193359375,-2.8917932510375977,-1.8245396614074707,-1.8828303813934328,102.26840209960938,-58.56146240234375,274.913330078125
1700076034,1.1088104248046875,0.6038665771484375,-0.691802978515625,-2.283654928207397,-1.6034942865371704,-1.9667130708694456,101.93467712402344,-57.7227783203125,274.50701904296875
1700076034,1.118499755859375,0.6997833251953125,-0.6260833740234375,-1.8588848114013672,-1.379958987236023,-2.079453229904175,102.1977081298828,-57.59797668457031,274.9132080078125
1700076034,1.1572113037109375,0.70947265625,-0.5904541015625,-1.676271915435791,-1.1572731733322144,-2.1325929164886475,102.12249755859376,-57.78376770019531,274.74688720703125
1700076034,1.1244659423828125,0.6326446533203125,-0.6149444580078125,-1.6961432695388794,-0.9681674242019652,-2.022968053817749,102.04205322265624,-57.32652282714844,274.9555358886719
1700076034,1.04229736328125,0.4857177734375,-0.672943115234375,-1.919681072235108,-0.8054608106613159,-1.8069167137146,101.86830139160156,-57.59016418457031,275.43377685546875
1700076034,0.9787139892578124,0.34716796875,-0.7411346435546875,-2.242715835571289,-0.6686475872993469,-1.5030604600906372,102.32537841796876,-57.868072509765625,275.4398498535156
1700076034,0.9096527099609376,0.2694244384765625,-0.762664794921875,-2.5085713863372803,-0.5089511275291443,-1.1693726778030396,102.03913879394533,-57.88578796386719,275.139892578125
1700076034,0.8363800048828125,0.2523193359375,-0.777374267578125,-2.642165184020996,-0.3239817917346954,-0.8732380270957947,101.78843688964844,-57.46311950683594,274.686279296875
1700076034,0.779205322265625,0.31048583984375,-0.7950439453125,-2.626669406890869,-0.1375243067741394,-0.6146908402442932,102.08824157714844,-57.56719970703125,275.0961303710937
1700076034,0.74908447265625,0.4295654296875,-0.759033203125,-2.42958402633667,0.0562302507460117,-0.4336086809635162,101.92843627929688,-56.865753173828125,274.71563720703125
1700076034,0.763916015625,0.51934814453125,-0.6878204345703125,-2.043829202651977,0.2463935315608978,-0.318110316991806,102.32212829589844,-56.9188232421875,274.4486694335937
1700076034,0.78265380859375,0.5855255126953125,-0.642669677734375,-1.5500662326812744,0.4106016457080841,-0.2390298843383789,101.8335418701172,-56.62321472167969,274.6794128417969
1700076034,0.795013427734375,0.6310882568359375,-0.6495361328125,-1.090360403060913,0.5798471570014954,-0.1908088326454162,102.0478973388672,-56.21743774414063,274.4677734375
1700076034,0.7896270751953125,0.635406494140625,-0.694671630859375,-0.6605888605117798,0.7727894186973572,-0.1697789132595062,102.01057434082033,-56.12675476074219,274.5981140136719
1700076034,0.77911376953125,0.5806732177734375,-0.731658935546875,-0.1627396494150161,0.9760708808898926,-0.1773257851600647,101.68743896484376,-55.79196166992188,274.93585205078125
1700076034,0.848114013671875,0.46051025390625,-0.699432373046875,0.1071456298232078,0.94011127948761,0.177633911371231,101.46778869628906,-55.68939208984375,274.6664123535156
1700076034,0.814849853515625,0.5489349365234375,-0.52777099609375,0.0274185743182897,0.8918265700340271,0.4518468081951141,101.2476043701172,-55.04167175292969,274.9779968261719
1700076034,0.9008941650390624,0.4942626953125,-0.3763427734375,-0.1674345284700393,0.706682562828064,-0.0969332009553909,101.09107971191406,-54.52067565917969,274.1220703125
1700076034,1.3333740234375,-0.1886749267578125,0.0797576904296875,-0.2340993136167526,0.0392438098788261,-1.1088201999664309,100.38107299804688,-53.90718078613281,274.0419311523437
1700076034,1.9783935546875,-1.073760986328125,1.0088958740234375,-0.7788148522377014,1.2302656173706057,-0.7392114996910095,100.36050415039062,-52.95501708984375,274.07080078125
1700076034,1.633880615234375,-0.702606201171875,0.1125640869140625,-1.7110037803649902,1.752661943435669,0.6270199418067932,99.8360595703125,-52.5023193359375,273.39898681640625
1700076034,1.1046295166015625,-0.0307769775390625,-0.3123779296875,-2.592045307159424,1.044011116027832,1.6886097192764282,99.51643371582033,-51.71087646484375,273.5083312988281
1700076034,1.1144256591796875,0.2310333251953125,-0.256927490234375,-2.867294788360596,0.2421029061079025,1.4958858489990234,99.13673400878906,-51.076080322265625,273.2441101074219
1700076034,1.2960662841796875,0.1605224609375,-0.05621337890625,-3.291835069656372,-0.0147935934364795,0.9508909583091736,98.47015380859376,-50.45716857910156,272.944580078125
1700076034,1.26171875,0.62335205078125,0.4717864990234375,-2.858989715576172,0.6840531826019287,0.3471715450286865,97.88713073730467,-49.22795104980469,273.4114685058594
1700076034,1.03778076171875,1.1298370361328125,0.723297119140625,-0.9220454692840576,1.2603009939193726,-0.2065539807081222,97.6075439453125,-48.70915222167969,272.58111572265625
1700076034,0.9893646240234376,0.859649658203125,0.6736602783203125,0.3221258521080017,1.3733340501785278,-0.5040645003318787,96.9013214111328,-47.95635986328125,272.7940673828125
1700076034,1.070831298828125,0.4116668701171875,0.2661285400390625,0.3500096797943115,1.2462619543075562,-0.6439789533615112,96.14053344726562,-47.17112731933594,272.2899780273437
1700076034,1.0449066162109375,0.15081787109375,-0.1897735595703125,0.0532360561192035,1.0465658903121948,-0.7669293880462646,95.35040283203124,-45.9912109375,271.8988342285156
1700076034,1.012481689453125,-0.1158599853515625,-0.336395263671875,-0.3222792446613312,0.8715242743492126,-0.7284019589424133,94.5631866455078,-45.20765686035156,272.12603759765625
1700076034,0.9668121337890624,-0.312530517578125,-0.38818359375,-0.7166654467582703,0.7062793970108032,-0.4772893190383911,93.7786102294922,-44.38966369628906,271.7302551269531
1700076034,0.9197998046875,-0.385284423828125,-0.4481964111328125,-0.9576714038848876,0.4987826347351074,-0.2662881314754486,93.20693969726562,-43.58537292480469,271.1590881347656
1700076034,0.9267578125,-0.4603424072265625,-0.4273681640625,-0.7714785933494568,0.2919098734855652,-0.1830654293298721,92.31297302246094,-43.21568298339844,271.5154724121094
1700076034,0.95635986328125,-0.5660858154296875,-0.2678070068359375,-0.5013211369514465,0.2215795218944549,-0.116605706512928,91.16921997070312,-42.245391845703125,271.09942626953125
1700076034,0.929229736328125,-0.57318115234375,-0.128875732421875,-0.6460596919059753,0.2727630734443664,0.1155140772461891,89.54383850097656,-41.18136596679688,270.9678955078125
1700076034,0.8631744384765625,-0.380218505859375,-0.0358734130859375,-1.011479735374451,0.4052867889404297,0.3377146422863006,89.20606994628906,-40.2784423828125,271.0001220703125
1700076034,0.882415771484375,-0.1920623779296875,0.0544586181640625,-1.1755847930908203,0.5380802154541016,0.4073307514190674,87.97637939453125,-39.61576843261719,270.7790222167969
1700076034,0.95343017578125,-0.0774993896484375,0.061614990234375,-1.078398823738098,0.5893149375915527,0.3671393990516662,86.586181640625,-39.01580810546875,270.54931640625
1700076034,1.011016845703125,0.0105438232421875,0.017852783203125,-0.9077847599983216,0.5695457458496094,0.2910206615924835,85.45970153808594,-38.5355224609375,270.4381103515625
1700076034,1.068115234375,0.080291748046875,-0.01129150390625,-0.7784507870674133,0.5661225318908691,0.1974355727434158,84.65052795410156,-37.74253845214844,270.1671142578125
1700076034,1.102935791015625,0.1083984375,0.005279541015625,-0.6362200975418091,0.5997214913368225,0.1157090216875076,83.82392883300781,-36.69914245605469,270.0655517578125
1700076034,1.0625152587890625,0.065338134765625,0.0197601318359375,-0.4921769201755523,0.6351527571678162,0.0885178819298744,82.45213317871094,-35.81549072265625,270.31793212890625
1700076034,0.9940643310546876,-0.0171661376953125,-0.0372467041015625,-0.4276807606220245,0.6201061606407166,0.0970663651823997,81.12461853027344,-35.62884521484375,270.0587158203125
1700076034,0.973907470703125,-0.096221923828125,-0.124725341796875,-0.4274256229400635,0.5591863393783569,0.1289302855730056,79.78424072265625,-35.076568603515625,270.28814697265625
1700076034,0.9812774658203124,-0.1503143310546875,-0.17010498046875,-0.4288525581359863,0.4937101006507873,0.1911654323339462,78.39480590820312,-34.13972473144531,270.26239013671875
1700076034,0.9956207275390624,-0.161773681640625,-0.171173095703125,-0.4329263865947723,0.4461897313594818,0.2477866262197494,76.49180603027344,-33.52369689941406,270.3663024902344
1700076034,1.0116424560546875,-0.12213134765625,-0.157623291015625,-0.4582312107086181,0.4147734940052032,0.2547023296356201,75.01434326171875,-33.3809814453125,270.20025634765625
1700076034,1.0288848876953125,-0.058502197265625,-0.1348876953125,-0.4640145301818847,0.4006707072257995,0.2237145900726318,73.92082214355469,-32.59761047363281,270.2094116210937
1700076034,1.0263519287109375,-0.011627197265625,-0.10430908203125,-0.4298379123210907,0.4092045426368713,0.1883366256952285,72.39849853515625,-32.76548767089844,269.721923828125
1700076034,1.0112762451171875,-0.005706787109375,-0.0821075439453125,-0.4061736166477203,0.4323911070823669,0.159857839345932,70.6363525390625,-32.57322692871094,269.2362060546875
1700076035,0.99676513671875,-0.0369415283203125,-0.0974578857421875,-0.4189663827419281,0.4362524151802063,0.1495383530855178,69.86160278320312,-32.35337829589844,268.470947265625
1700076035,0.990478515625,-0.0702056884765625,-0.1358795166015625,-0.4556559324264526,0.4083257019519806,0.15796460211277,68.88084411621094,-32.1630859375,267.8955078125
1700076035,0.9982757568359376,-0.0873565673828125,-0.165130615234375,-0.4771628379821777,0.3759808242321014,0.1640344709157943,68.06448364257812,-32.17547607421875,267.34429931640625
1700076035,1.0072784423828125,-0.0871124267578125,-0.167755126953125,-0.4770627021789551,0.3547767400741577,0.182399109005928,68.15908813476562,-32.27662658691406,267.24725341796875
1700076035,1.0035247802734375,-0.0655059814453125,-0.15362548828125,-0.4629048109054565,0.3429653346538543,0.1728567332029342,68.24104309082031,-32.6278076171875,267.2441101074219
1700076035,0.9959869384765624,-0.045013427734375,-0.1486358642578125,-0.4558434188365936,0.3354610800743103,0.1474062353372573,68.73365783691406,-32.83656311035156,267.4087219238281
1700076035,0.9836578369140624,-0.0516510009765625,-0.1707916259765625,-0.4758698642253876,0.3096521198749542,0.1298735737800598,69.41693115234375,-33.05036926269531,267.5350952148437
1700076035,0.97613525390625,-0.0866851806640625,-0.175872802734375,-0.535731315612793,0.3164567649364471,0.1359695494174957,69.96893310546875,-33.51383972167969,267.95904541015625
1700076035,0.9696197509765624,-0.135833740234375,-0.157989501953125,-0.6130468845367432,0.3331031203269958,0.1854004859924316,71.16944885253906,-34.04911804199219,267.7789306640625
1700076035,0.9542083740234376,-0.1524505615234375,-0.163177490234375,-0.7108551859855652,0.3240723609924316,0.2479794472455978,72.14300537109375,-34.920867919921875,267.5472412109375
1700076035,0.9617767333984376,-0.128021240234375,-0.19378662109375,-0.7760986685752869,0.2926505208015442,0.2742344737052917,73.10751342773438,-35.32832336425781,267.3995361328125
1700076035,0.9900665283203124,-0.0915374755859375,-0.184906005859375,-0.7795583605766296,0.2800111472606659,0.2747538089752197,74.01792907714844,-35.90968322753906,267.71630859375
1700076035,0.99993896484375,-0.068603515625,-0.16778564453125,-0.7626278400421143,0.2781479954719543,0.2781546711921692,74.85404968261719,-36.69685363769531,267.8843994140625
1700076035,0.9882049560546876,-0.06854248046875,-0.184844970703125,-0.7454217076301575,0.2546325623989105,0.2875367105007171,76.07411193847656,-37.59059143066406,267.56317138671875
1700076035,0.9807281494140624,-0.0725555419921875,-0.2044525146484375,-0.6922482252120972,0.2195121198892593,0.3065596520900726,77.13916015625,-38.5892333984375,266.97674560546875
1700076035,0.986083984375,-0.084686279296875,-0.1935577392578125,-0.6030014753341675,0.1889627277851104,0.3357865214347839,78.24197387695312,-39.85601806640625,267.14947509765625
1700076035,0.98370361328125,-0.08441162109375,-0.1755218505859375,-0.4911995530128479,0.1727139800786972,0.3612005412578583,79.200927734375,-40.910675048828125,267.3267822265625
1700076035,0.9764404296875,-0.075775146484375,-0.1667327880859375,-0.3804703652858734,0.172501191496849,0.3696491420269012,80.26222229003906,-42.10414123535156,266.7244873046875
1700076035,0.977691650390625,-0.0633087158203125,-0.1611785888671875,-0.32644122838974,0.171790674328804,0.3646144568920135,81.07345581054688,-43.08714294433594,266.9512939453125
1700076035,0.9793853759765624,-0.034820556640625,-0.182342529296875,-0.3225644528865814,0.1581126749515533,0.3317214846611023,82.01248168945312,-43.93356323242188,267.0927124023437
1700076035,0.985107421875,-0.0146636962890625,-0.1738128662109375,-0.3873386681079864,0.1666627526283264,0.3202016949653625,82.87132263183594,-45.12225341796875,267.4494934082031
1700076035,0.993896484375,-0.0159149169921875,-0.1656341552734375,-0.4937854707241058,0.1534569263458252,0.3020786345005035,83.69514465332031,-46.50552368164063,267.5462341308594
1700076035,0.9905853271484376,-0.0389251708984375,-0.2105255126953125,-0.5995196104049683,0.1118330582976341,0.2931834161281585,83.92539978027344,-47.96836853027344,268.628662109375
1700076035,0.9889068603515624,-0.0433349609375,-0.2457733154296875,-0.6362161040306091,0.0655939206480979,0.281832218170166,84.76448059082031,-48.772705078125,268.0312194824219
1700076035,0.993560791015625,-0.0517578125,-0.25030517578125,-0.5866344571113586,0.0202536061406135,0.2992255985736847,85.34989929199219,-49.9705810546875,268.624267578125
1700076035,0.991790771484375,-0.0240325927734375,-0.23370361328125,-0.4964632987976074,-0.020668527111411,0.2964276671409607,85.85897827148438,-50.99848937988281,268.6396789550781
1700076035,0.9976959228515624,0.0164947509765625,-0.19952392578125,-0.4269270896911621,-0.023158049210906,0.2545712888240814,86.28327941894531,-52.201171875,268.5279541015625
1700076035,1.0053253173828125,0.05047607421875,-0.1582794189453125,-0.3925200998783111,-0.0094286557286977,0.2192665785551071,87.16036987304688,-52.90715026855469,269.19122314453125
1700076035,0.9993743896484376,0.044677734375,-0.14544677734375,-0.4009048044681549,-0.0026218821294605,0.1947175562381744,87.20753479003906,-53.72492980957031,269.14678955078125
1700076035,0.992645263671875,-0.0193939208984375,-0.1786346435546875,-0.4840883910655975,-0.0165739171206951,0.1896570175886154,87.56840515136719,-54.70381164550781,269.06939697265625
