timestamp,acc-x,acc-y,acc-z,gyr-x,gyr-y,gyr-z,mag-x,mag-y,mag-z
1700074903,0.876739501953125,-0.04315185546875,-0.3999481201171875,0.4260303974151611,0.8552744388580322,0.5385132431983948,95.60153198242188,-65.25363159179688,227.03237915039065
1700074903,0.85919189453125,0.0048065185546875,-0.405303955078125,0.4004427492618561,0.9386398792266846,0.5685100555419922,96.31910705566406,-66.12290954589844,228.2852783203125
1700074903,0.886993408203125,0.0427398681640625,-0.3522796630859375,0.4532055556774139,1.010616421699524,0.5969624519348145,96.88810729980467,-66.900146484375,229.37213134765625
1700074903,0.880340576171875,0.01513671875,-0.3444976806640625,0.5497605800628662,1.0353808403015137,0.6278146505355835,97.79127502441406,-68.150634765625,230.47059631347656
1700074903,0.793548583984375,-0.0276641845703125,-0.4697723388671875,0.5671915411949158,1.0108903646469116,0.622319757938385,97.87850952148438,-69.3182373046875,231.1533660888672
1700074903,0.737762451171875,0.0038299560546875,-0.5848541259765625,0.5460649132728577,0.9927399158477784,0.5905234813690186,98.42991638183594,-71.03471374511719,232.42564392089844
1700074903,0.7694549560546875,0.107421875,-0.58270263671875,0.5483866930007935,1.0121958255767822,0.5416829586029053,98.8989715576172,-72.7113037109375,233.1603546142578
1700074903,0.8507232666015625,0.1849517822265625,-0.51898193359375,0.5666000247001648,1.0391957759857178,0.5237314105033875,99.70062255859376,-74.09884643554688,234.4757843017578
1700074903,0.8973388671875,0.1988372802734375,-0.4878387451171875,0.5806071758270264,1.0896477699279783,0.5632372498512268,99.56776428222656,-75.49778747558594,235.2386169433593
1700074903,0.918975830078125,0.162139892578125,-0.4941864013671875,0.5920177698135376,1.1803548336029053,0.6611512899398804,99.8618621826172,-77.55033874511719,236.67745971679688
1700074903,0.9289093017578124,0.1016998291015625,-0.4755706787109375,0.5604848861694336,1.272723913192749,0.8226912021636963,99.9359893798828,-78.95278930664062,238.3505096435547
1700074903,0.97564697265625,0.038360595703125,-0.4252166748046875,0.4635612666606903,1.3724504709243774,0.9880002737045288,100.09963989257812,-80.62088012695312,239.36959838867188
1700074903,1.016021728515625,-0.0464935302734375,-0.3996429443359375,0.4088458120822906,1.4320783615112305,1.1141499280929563,99.77647399902344,-81.62054443359375,240.68911743164065
1700074903,0.8979644775390625,-0.1038055419921875,-0.50146484375,0.3458785712718963,1.4106982946395874,1.1449432373046875,100.32754516601562,-83.07905578613281,241.74801635742188
1700074903,0.6938018798828125,-0.023681640625,-0.6752471923828125,0.2783317565917969,1.385633945465088,1.0434342622756958,99.8664093017578,-83.91355895996094,243.48019409179688
1700074903,0.5693817138671875,0.1819915771484375,-0.7149810791015625,0.3195819854736328,1.384138822555542,0.895257294178009,100.3154296875,-84.36912536621094,244.7113342285156
1700074903,0.590972900390625,0.3690643310546875,-0.6160430908203125,0.4649138748645782,1.3826333284378052,0.7972747683525085,99.89590454101562,-85.39082336425781,245.60455322265625
1700074903,0.698760986328125,0.4430389404296875,-0.541107177734375,0.5716784000396729,1.414189696311951,0.7937807440757751,100.07537841796876,-86.07112121582031,246.24200439453125
1700074903,0.8358154296875,0.39556884765625,-0.5611114501953125,0.6081900596618652,1.496358871459961,0.8834394812583923,100.00602722167967,-86.75245666503906,247.3096466064453
1700074903,0.96807861328125,0.256500244140625,-0.5960540771484375,0.6087805032730103,1.6184887886047363,1.036779284477234,99.52285766601562,-87.2083740234375,248.1401214599609
1700074903,1.1405487060546875,0.0971527099609375,-0.565673828125,0.6035037040710449,1.7343189716339111,1.254127025604248,99.11773681640624,-87.96559143066406,248.72227478027344
1700074903,1.2291259765625,-0.0090789794921875,-0.551239013671875,0.5902894139289856,1.8349096775054927,1.426039695739746,98.95343017578124,-88.74734497070312,249.6199951171875
1700074903,1.1197509765625,-0.036590576171875,-0.61920166015625,0.6214624643325806,1.9160243272781368,1.5048763751983645,98.77703857421876,-88.80952453613281,250.53643798828125
1700074903,0.9529266357421876,0.0809478759765625,-0.687347412109375,0.6596338152885437,1.9504930973052976,1.4435880184173584,98.97265625,-89.58346557617188,251.1638336181641
1700074903,0.8456268310546875,0.2594146728515625,-0.664306640625,0.8100323677062988,1.94720721244812,1.3364444971084597,98.62998962402344,-90.00697326660156,251.6312561035156
1700074903,0.72222900390625,0.396392822265625,-0.6506805419921875,1.0094813108444214,1.9326828718185425,1.230016589164734,98.45979309082033,-90.32365417480467,251.9510803222656
1700074903,0.6495819091796875,0.4788970947265625,-0.662353515625,1.1670794486999512,1.9048222303390503,1.171856164932251,98.303466796875,-90.79627990722656,253.0783233642578
1700074903,0.6853179931640625,0.4845733642578125,-0.6824493408203125,1.2747867107391355,1.9533979892730715,1.1816493272781372,98.20475769042967,-90.7187042236328,252.89236450195312
1700074903,0.833587646484375,0.394317626953125,-0.6588592529296875,1.3177746534347534,2.045083999633789,1.2464983463287354,97.4425811767578,-91.0625457763672,252.9112091064453
1700074903,0.917144775390625,0.2431182861328125,-0.617034912109375,1.3766875267028809,2.1081392765045166,1.3452398777008057,97.94912719726562,-91.0085906982422,252.4843292236328
1700074903,0.8476104736328125,0.1373291015625,-0.73065185546875,1.3642425537109375,2.179060697555542,1.421296000480652,97.08126831054688,-91.08570861816406,251.90660095214844
1700074903,0.920013427734375,0.1483306884765625,-0.80804443359375,1.4398510456085205,2.234431505203247,1.4082380533218384,97.25027465820312,-91.08963012695312,252.2535552978516
1700074903,1.1145172119140625,0.133941650390625,-0.823089599609375,1.549717903137207,2.154365539550781,1.4610387086868286,96.84210205078124,-90.693115234375,252.01466369628903
1700074903,1.43182373046875,0.1049041748046875,-0.917510986328125,1.7723935842514038,2.0993874073028564,1.4319329261779783,96.64749145507812,-90.5991668701172,251.3850250244141
1700074903,1.6893768310546875,-0.0051116943359375,-0.869140625,2.0440945625305176,2.0497138500213623,1.1996909379959106,96.48956298828124,-90.07173156738281,250.787109375
1700074903,1.82733154296875,-0.1830596923828125,-0.640289306640625,2.360811710357666,1.971858263015747,1.1094257831573486,96.0386962890625,-90.09358215332033,250.7880401611328
1700074903,1.7894134521484375,-0.212799072265625,-0.5595855712890625,2.3620312213897705,1.9738982915878296,1.298961877822876,96.11795043945312,-89.82949829101562,250.0367431640625
1700074903,1.4573211669921875,-0.0010528564453125,-0.72613525390625,1.948835730552673,2.118765592575073,1.3622380495071411,95.8363800048828,-89.74319458007812,250.5546417236328
1700074903,1.0180816650390625,0.239654541015625,-1.0938720703125,1.3844932317733765,2.1006221771240234,1.1500959396362305,95.80934143066406,-89.02210998535156,249.8899383544922
1700074903,0.81182861328125,0.2995452880859375,-1.2115020751953125,0.9750008583068848,2.175717353820801,0.8370219469070435,95.30686950683594,-88.76734924316406,249.4167633056641
1700074903,0.606109619140625,0.2307891845703125,-1.226898193359375,0.9940925240516664,2.1535744667053223,0.397599309682846,95.17942810058594,-88.70158386230469,249.215576171875
1700074903,0.3807220458984375,0.039306640625,-1.19140625,1.2727198600769043,1.918817162513733,-0.2074237614870071,94.75096130371094,-88.10528564453125,249.48098754882807
1700074903,0.2891387939453125,-0.1751861572265625,-0.877777099609375,1.608433723449707,1.444054365158081,-1.0163261890411377,94.29910278320312,-87.96760559082031,248.8414306640625
1700074903,0.402557373046875,-0.4293975830078125,-0.1555023193359375,1.614291071891785,0.9916275143623352,-1.739108324050903,93.97479248046876,-87.665283203125,248.52261352539065
1700074903,0.5018157958984375,-0.6114349365234375,0.369171142578125,1.2488465309143066,0.6462751626968384,-2.079850673675537,93.53280639648438,-87.53634643554688,247.56163024902344
1700074903,0.3837127685546875,-0.5882568359375,0.405731201171875,0.7134656310081482,0.3225074708461761,-2.3323090076446533,92.94613647460938,-87.20289611816406,247.0052795410156
1700074903,0.4639434814453125,-0.465545654296875,0.27178955078125,0.0460615009069442,0.0242115966975688,-2.612718343734741,91.79495239257812,-86.71696472167969,246.0985870361328
1700074903,0.5427093505859375,-0.2152557373046875,0.0515289306640625,-0.5354831218719482,-0.3037122189998626,-3.245136022567749,90.81295776367188,-86.25001525878906,244.9462432861328
1700074903,0.65203857421875,-0.2675018310546875,0.0037994384765625,-1.003225564956665,-0.5834788680076599,-3.6815106868743896,90.97520446777344,-86.61024475097656,244.8409118652344
1700074903,0.631103515625,-0.3280487060546875,0.0538787841796875,-1.1529303789138794,-0.8567684888839722,-3.966902256011963,90.60952758789062,-86.47758483886719,244.51719665527344
1700074903,0.62152099609375,-0.2482757568359375,-0.022216796875,-1.0709694623947144,-1.1396459341049194,-4.335273742675781,90.1563720703125,-85.75738525390625,244.35617065429688
1700074903,0.77252197265625,-0.09442138671875,-0.0933685302734375,-0.799111545085907,-1.4359064102172852,-4.75609302520752,89.49917602539062,-84.60359191894531,242.9174346923828
1700074903,0.9541473388671876,0.127716064453125,-0.078369140625,-0.2014883756637573,-1.7343002557754517,-5.12145471572876,89.02192687988281,-84.25262451171875,242.42811584472656
1700074903,1.1295623779296875,0.344573974609375,0.0477752685546875,0.6046648621559143,-1.9775640964508057,-5.382013320922852,88.69416809082031,-84.1402587890625,242.0330047607422
1700074903,1.250152587890625,0.550628662109375,0.1250152587890625,1.2840646505355835,-2.130319833755493,-5.567873477935791,88.56373596191406,-83.79263305664062,242.53189086914065
1700074903,1.3462677001953125,0.74993896484375,0.0911102294921875,1.7366864681243896,-2.249334812164306,-5.7325215339660645,88.0806884765625,-83.85592651367188,242.9261169433593
1700074903,1.421966552734375,0.8613739013671875,0.017608642578125,1.9313185214996336,-2.361396789550781,-5.886409759521484,87.67695617675781,-83.40762329101562,243.0391082763672
1700074903,1.4440460205078125,0.842254638671875,-0.031890869140625,1.846031665802002,-2.456379175186157,-5.957907676696777,87.30429077148438,-83.4774169921875,242.3232879638672
1700074903,1.4224853515625,0.7757110595703125,-0.078887939453125,1.6607048511505127,-2.587838649749756,-5.9554057121276855,87.78948974609375,-83.15101623535156,242.5118103027344
1700074903,1.46514892578125,0.6964874267578125,-0.0853118896484375,1.5489959716796875,-2.75480055809021,-5.856332778930664,87.21690368652344,-82.79595947265625,242.10386657714844
1700074903,1.526611328125,0.68829345703125,0.025848388671875,1.5703582763671875,-2.839893579483032,-5.732546806335449,86.93606567382812,-82.31517028808594,241.7530975341797
1700074903,1.5487213134765625,0.7471771240234375,0.057708740234375,1.6659259796142578,-2.951965093612671,-5.635666370391846,86.84109497070312,-81.8001708984375,241.04458618164065
1700074903,1.62982177734375,0.8289947509765625,-0.0438079833984375,1.835945725440979,-3.093347787857056,-5.597292900085449,86.47892761230469,-81.5308837890625,241.2137451171875
1700074903,1.758270263671875,0.8907318115234375,-0.1385650634765625,2.145946264266968,-3.1460607051849365,-5.559265613555908,86.50856018066406,-81.36601257324219,241.00128173828125
1700074903,1.83349609375,0.9311370849609376,-0.148193359375,2.6586525440216064,-3.1223373413085938,-5.474957466125488,85.9925537109375,-81.04084777832031,240.5742950439453
1700074903,1.792022705078125,0.98150634765625,-0.135772705078125,3.13093376159668,-3.0438942909240723,-5.412111282348633,86.16339111328125,-80.82936096191406,240.3982391357422
1700074903,1.72711181640625,1.02459716796875,-0.1832427978515625,3.4232568740844727,-2.872727632522583,-5.389931201934815,85.7576904296875,-80.32026672363281,240.4092712402344
1700074903,1.662353515625,1.065185546875,-0.2571563720703125,3.562869071960449,-2.7186851501464844,-5.395694255828857,86.0018310546875,-80.12271118164062,240.15213012695312
1700074903,1.6069488525390625,1.0363616943359375,-0.3320465087890625,3.588028907775879,-2.581534147262573,-5.318512916564941,85.347900390625,-80.30950927734375,239.9024658203125
1700074903,1.5460968017578125,0.961181640625,-0.374298095703125,3.6569316387176514,-2.4368796348571777,-5.1293792724609375,85.65156555175781,-79.97784423828125,240.0733337402344
1700074903,1.464111328125,0.8839569091796875,-0.347137451171875,3.728116035461426,-2.330141544342041,-4.873819351196289,85.706787109375,-80.12635803222656,239.8198089599609
1700074903,1.40960693359375,0.871551513671875,-0.3004302978515625,3.873274326324463,-2.242877960205078,-4.524522304534912,85.36685180664062,-79.75906372070312,239.8978729248047
1700074903,1.3952484130859375,0.9584197998046876,-0.2536773681640625,4.032627582550049,-2.1309356689453125,-4.110978126525879,85.48403930664062,-79.88665771484375,239.3537750244141
1700074903,1.3948822021484375,1.0281829833984375,-0.2095947265625,4.071314811706543,-2.019604682922364,-3.700694084167481,85.49679565429688,-79.71903991699219,240.00645446777344
1700074903,1.2874908447265625,1.0904388427734375,-0.1966400146484375,3.854231834411621,-1.856661081314087,-3.255751848220825,85.17868041992188,-79.63868713378906,240.0159454345703
1700074904,1.1451416015625,1.1793212890625,-0.1688385009765625,3.4788742065429688,-1.667154312133789,-2.7320683002471924,85.23426818847656,-78.75897216796875,239.6445770263672
1700074904,1.0457763671875,1.13262939453125,-0.1996002197265625,2.9209349155426025,-1.4241684675216677,-2.138507604598999,85.0501708984375,-78.94975280761719,239.53668212890625
1700074904,0.8796844482421875,1.0185089111328125,-0.2776031494140625,2.167461395263672,-1.1846275329589844,-1.5053470134735107,85.25044250488281,-78.84043884277344,239.3134765625
1700074904,0.7391815185546875,0.92572021484375,-0.366729736328125,1.3106601238250732,-0.9686912894248962,-0.9044763445854188,84.76365661621094,-78.66091918945312,239.6200408935547
1700074904,0.6965789794921875,0.818328857421875,-0.4390411376953125,0.5002210140228271,-0.757566511631012,-0.3325300216674804,85.01322937011719,-77.81986999511719,239.1369781494141
1700074904,0.6993560791015625,0.7635650634765625,-0.50372314453125,-0.1312813311815261,-0.580699622631073,0.1738740503787994,84.54362487792969,-77.82374572753906,239.11363220214844
1700074904,0.756622314453125,0.7604522705078125,-0.574249267578125,-0.5473996996879578,-0.3958227038383484,0.5525110960006714,84.42202758789062,-77.42849731445312,238.85076904296875
1700074904,0.8021697998046875,0.7569427490234375,-0.65679931640625,-0.811204731464386,-0.0301344655454158,0.7190819978713989,84.11672973632812,-77.2354736328125,238.74220275878903
1700074904,0.798828125,0.6142578125,-0.9258880615234376,-0.7395364046096802,0.2821739017963409,1.0879391431808472,83.74955749511719,-76.96992492675781,238.1609802246093
1700074904,0.5959320068359375,0.645599365234375,-1.250152587890625,-0.2145008444786071,0.4934296905994415,0.7560016512870789,83.28150939941406,-76.36466979980469,237.8935089111328
1700074904,0.817352294921875,0.2350616455078125,-1.3896942138671875,1.0716538429260254,0.058771438896656,-0.3590593636035919,83.04762268066406,-75.98313903808594,237.6560821533203
1700074904,1.6771392822265625,-0.668548583984375,-0.4516448974609375,1.8455772399902344,0.1748607605695724,-0.4611050486564636,82.7587890625,-75.64111328125,237.7717437744141
1700074904,2.097686767578125,-0.85516357421875,0.3638763427734375,0.5459491014480591,0.9219613075256348,1.1659188270568848,82.73628234863281,-75.55381774902344,237.3859100341797
1700074904,1.535888671875,-0.449554443359375,0.120452880859375,-1.031998872756958,1.0092756748199463,2.192196846008301,82.15234375,-75.01008605957031,237.13043212890625
1700074904,1.35064697265625,-0.7378692626953125,-0.2027130126953125,-1.3642255067825315,0.8715061545372009,2.292940855026245,81.77021789550781,-74.45980834960938,237.0734100341797
1700074904,0.98187255859375,-0.629913330078125,-0.3104248046875,-1.1065984964370728,0.7786300182342529,2.04457688331604,81.62271118164062,-74.13755798339844,236.7815856933593
1700074904,0.5695343017578125,0.041168212890625,-0.4222412109375,-0.9506710171699524,0.753978967666626,1.3600196838378906,81.11917114257812,-73.63984680175781,236.6830139160156
1700074904,0.5580291748046875,0.5931396484375,-0.51116943359375,-0.5481499433517456,0.7932976484298706,0.8354000449180603,80.55374145507812,-73.08058166503906,236.6020050048828
1700074904,0.8437347412109375,0.8638458251953125,-0.3509063720703125,0.1907813996076584,0.7578467130661011,0.4763247370719909,80.22023010253906,-72.76348876953125,236.7867431640625
1700074904,1.19671630859375,0.5815277099609375,-0.30999755859375,0.6551365852355957,0.713776171207428,0.2726355195045471,79.85205078125,-72.37376403808594,236.12432861328125
1700074904,1.3561248779296875,0.1488800048828125,-0.3530731201171875,0.9103105068206788,0.6550513505935669,0.3350533545017242,79.18418884277344,-71.68211364746094,236.43736267089844
1700074904,1.238983154296875,-0.0477447509765625,-0.3344268798828125,1.0740275382995603,0.6041346192359924,0.4273771643638611,78.65072631835938,-71.40658569335938,235.6493530273437
1700074904,1.049713134765625,-0.1690521240234375,-0.3451995849609375,1.169031858444214,0.523616373538971,0.4829767644405365,78.05642700195312,-70.78228759765625,235.97613525390625
1700074904,0.9076995849609376,-0.1606903076171875,-0.3851470947265625,1.1295180320739746,0.4452155530452728,0.4215637445449829,77.63542175292969,-70.371337890625,235.6529693603516
1700074904,0.9054412841796876,-0.1117095947265625,-0.3986053466796875,0.9942959547042848,0.4026609063148498,0.3098907470703125,77.294921875,-70.23262023925781,235.60769653320312
1700074904,0.92022705078125,-0.0594024658203125,-0.4415435791015625,0.804854691028595,0.333230972290039,0.2125849723815918,76.50047302246094,-69.50386047363281,235.49069213867188
1700074904,0.977142333984375,-0.0228729248046875,-0.435791015625,0.6252567172050476,0.2722429633140564,0.1376737058162689,75.98912048339844,-69.44541931152344,235.1461181640625
1700074904,1.0121917724609375,-0.0458526611328125,-0.4444427490234375,0.5055491924285889,0.2178106158971786,0.0980986058712005,75.1484375,-68.72917175292969,235.21832275390625
1700074904,1.0002593994140625,-0.08477783203125,-0.4354400634765625,0.4249978959560394,0.167249709367752,0.1002970412373542,74.68264770507812,-67.96757507324219,234.4378204345703
1700074904,0.971649169921875,-0.1074066162109375,-0.4131622314453125,0.3779776692390442,0.1189839094877243,0.1159511059522628,73.76019287109375,-67.35649108886719,234.7779693603516
1700074904,0.9397125244140624,-0.133941650390625,-0.416839599609375,0.3417357504367828,0.0724821910262107,0.1500022858381271,72.83413696289062,-67.16058349609375,234.02828979492188
1700074904,0.92633056640625,-0.1419677734375,-0.428741455078125,0.3260590732097626,0.0236129183322191,0.1811370253562927,72.48529052734375,-66.26640319824219,234.41372680664065
1700074904,0.938507080078125,-0.1380767822265625,-0.4162139892578125,0.2958359122276306,-0.016119847074151,0.1884799003601074,71.69633483886719,-65.30186462402344,234.6044769287109
1700074904,0.954345703125,-0.1277923583984375,-0.3843841552734375,0.2770268023014068,-0.0466543212532997,0.1860609501600265,70.91447448730469,-64.62391662597656,234.51712036132807
1700074904,0.9531707763671876,-0.1237640380859375,-0.3919525146484375,0.2887657582759857,-0.0885746031999588,0.1834142953157425,69.8365478515625,-63.54093933105469,234.40447998046875
1700074904,0.949127197265625,-0.1245574951171875,-0.399932861328125,0.3104486763477325,-0.1159039661288261,0.169346421957016,69.13923645019531,-63.28834533691406,234.38720703125
1700074904,0.957855224609375,-0.1259765625,-0.37457275390625,0.3243498504161834,-0.1389938443899154,0.1511043012142181,68.12545776367188,-62.8101806640625,233.8645935058593
1700074904,0.96136474609375,-0.130157470703125,-0.32867431640625,0.4074878692626953,-0.1630051583051681,0.1496448814868927,67.39927673339844,-61.93730163574219,234.279052734375
1700074904,0.9536895751953124,-0.1153411865234375,-0.2960968017578125,0.4728285372257232,-0.1841586530208587,0.1479276716709137,66.26820373535156,-60.77679443359375,234.23960876464844
1700074904,0.9488525390625,-0.0945281982421875,-0.3035888671875,0.5167858600616455,-0.1976797878742218,0.126175507903099,65.39247131347656,-59.66725158691406,234.8477478027344
1700074904,0.9510345458984376,-0.0994110107421875,-0.321807861328125,0.580403745174408,-0.1964336931705474,0.1154166087508201,63.94546508789063,-58.93218994140625,234.95301818847656
1700074904,0.952606201171875,-0.1069793701171875,-0.306304931640625,0.6329804062843323,-0.1872540414333343,0.114491157233715,62.96034240722656,-57.926513671875,234.85665893554688
1700074904,0.9572296142578124,-0.0977935791015625,-0.27008056640625,0.6852973699569702,-0.1534111201763153,0.1062950119376182,61.80793762207031,-56.18463134765625,235.5854339599609
1700074904,0.9695587158203124,-0.10357666015625,-0.243194580078125,0.7600017189979553,-0.1257003992795944,0.0884355902671814,60.88986206054688,-55.2344970703125,235.2829742431641
1700074904,0.9846649169921876,-0.113922119140625,-0.236297607421875,0.8229112029075623,-0.0839276537299156,0.1018203720450401,60.01533508300781,-54.327423095703125,235.5779266357422
1700074904,0.9702911376953124,-0.097076416015625,-0.2681427001953125,0.8026825785636902,-0.0333185419440269,0.1371280252933502,58.71237182617188,-53.20692443847656,236.03091430664065
1700074904,0.941436767578125,-0.0845947265625,-0.2951507568359375,0.7408900856971741,0.0066536418162286,0.1940253973007202,57.4305419921875,-52.60519409179688,235.3547821044922
1700074904,0.9073486328125,-0.1096038818359375,-0.29974365234375,0.6455028653144836,0.0633344948291778,0.2051121443510055,56.89622497558594,-51.3343505859375,235.7600555419922
1700074904,0.8955535888671875,-0.15838623046875,-0.27984619140625,0.5243364572525024,0.1193122789263725,0.2630433440208435,56.19511413574219,-50.5152587890625,235.90985107421875
1700074904,0.8776092529296875,-0.1931304931640625,-0.25421142578125,0.4301905333995819,0.1600381433963775,0.3391154706478119,55.7188720703125,-49.79388427734375,236.46365356445312
1700074904,0.875762939453125,-0.227752685546875,-0.2615509033203125,0.3226528763771057,0.1972946971654892,0.4183991253376007,56.117279052734375,-48.62004089355469,236.1034393310547
1700074904,0.8862457275390625,-0.2078399658203125,-0.3101654052734375,0.2444520890712738,0.2253255248069763,0.4695102274417877,56.33758544921875,-48.1553955078125,236.80528259277344
1700074904,0.9053955078125,-0.12677001953125,-0.31854248046875,0.1707480400800705,0.2521065473556518,0.5043609142303467,56.56463623046875,-47.34130859375,236.48953247070312
1700074904,0.921234130859375,-0.03973388671875,-0.310943603515625,0.199102982878685,0.2952612042427063,0.4668278992176056,56.953460693359375,-46.86293029785156,236.596420288086
1700074904,0.9454345703125,-0.016387939453125,-0.300994873046875,0.2448092103004455,0.3328810334205627,0.423762708902359,57.70220947265625,-46.6318359375,235.78860473632807
1700074904,0.9514007568359376,0.000885009765625,-0.260498046875,0.2691102921962738,0.3828978538513183,0.4358494877815246,58.34197998046875,-46.20783996582031,236.08370971679688
1700074904,0.9121551513671876,-0.022796630859375,-0.271514892578125,0.3074603378772735,0.4318794906139374,0.4657171070575714,59.23423767089844,-45.51762390136719,235.57293701171875
1700074904,0.9021759033203124,-0.084503173828125,-0.294525146484375,0.313890278339386,0.4647799432277679,0.5069124698638916,60.51539611816406,-45.67021179199219,234.85055541992188
1700074904,0.90582275390625,-0.127655029296875,-0.3117828369140625,0.3110233843326568,0.4917686581611633,0.5545020699501038,62.38201904296875,-45.45249938964844,234.88967895507807
1700074904,0.89910888671875,-0.1262664794921875,-0.334808349609375,0.3033383190631866,0.5087122321128845,0.5813677906990051,64.27850341796875,-44.899505615234375,234.9520568847656
1700074904,0.9081878662109376,-0.104827880859375,-0.3505706787109375,0.3120396435260772,0.5205259919166565,0.5889370441436768,66.07069396972656,-44.580474853515625,235.08370971679688
1700074904,0.9195709228515624,-0.0802459716796875,-0.3692626953125,0.3483875393867492,0.5413181185722351,0.591161847114563,68.43241882324219,-43.66648864746094,235.70919799804688
1700074904,0.918548583984375,-0.041107177734375,-0.35748291015625,0.374855101108551,0.5629632472991943,0.5854392647743225,70.23870849609375,-43.25090026855469,236.13043212890625
1700074904,0.9324493408203124,-0.002593994140625,-0.3245086669921875,0.3857833743095398,0.604245126247406,0.5967345237731934,72.28134155273438,-42.75714111328125,236.552734375
1700074904,0.94793701171875,0.003204345703125,-0.3246612548828125,0.3885075151920318,0.636066734790802,0.6326839923858643,74.89776611328125,-42.72175598144531,237.3740997314453
1700074904,0.9531402587890624,0.0078277587890625,-0.3221893310546875,0.3763779103755951,0.6630696058273315,0.6594801545143127,77.19503784179688,-42.99946594238281,237.68801879882807
1700074904,0.976409912109375,0.0095977783203125,-0.3323516845703125,0.3847503364086151,0.6837072372436523,0.662297785282135,79.54118347167969,-42.79933166503906,238.87255859375
1700074904,0.9967041015625,0.0042877197265625,-0.3688201904296875,0.4382327497005462,0.7135452628135681,0.6783958077430725,81.73330688476562,-43.45329284667969,239.52243041992188
1700074904,0.9926605224609376,0.0173492431640625,-0.3742828369140625,0.4808944463729858,0.7540892362594604,0.709139347076416,84.52362060546875,-44.04136657714844,239.4334411621093
1700074904,0.982452392578125,0.0180511474609375,-0.345367431640625,0.5398315191268921,0.8147557973861694,0.7379190325737,86.47650146484375,-44.37635803222656,240.91319274902344
1700074904,0.970672607421875,-0.0069427490234375,-0.34930419921875,0.6532701849937439,0.8837689161300659,0.7803352475166321,88.86598205566406,-45.02134704589844,241.78746032714844
1700074904,0.974456787109375,-0.0310211181640625,-0.3506011962890625,0.7447593808174133,0.9644864201545716,0.792980968952179,90.80471801757812,-45.94107055664063,242.90774536132807
1700074904,0.9818267822265624,-0.0298004150390625,-0.3649139404296875,0.8566550016403198,1.0551140308380127,0.8058916926383972,93.40048217773438,-46.220947265625,244.0203552246093
1700074904,0.9825897216796876,-0.0209808349609375,-0.3810577392578125,1.0542863607406616,1.0946316719055176,0.8501065969467163,95.64703369140624,-47.123077392578125,246.1272430419922
1700074904,0.999786376953125,0.0235137939453125,-0.3520050048828125,1.111415982246399,1.1420398950576782,0.972824215888977,98.18344116210938,-48.00758361816406,247.0848693847656
1700074904,1.068572998046875,0.153594970703125,-0.26824951171875,0.9284725189208984,1.242935061454773,1.0516130924224854,99.9505615234375,-49.43992614746094,248.6018829345703
1700074904,1.1313934326171875,0.2277984619140625,-0.273193359375,0.8795371651649475,1.3386890888214111,1.0969730615615845,101.68757629394533,-50.90708923339844,249.564453125
1700074904,1.2017669677734375,0.1703338623046875,-0.3097076416015625,0.8771288990974426,1.394010305404663,1.161019206047058,103.09005737304688,-52.04341125488281,250.7196350097656
1700074904,1.30328369140625,0.1065826416015625,-0.3201141357421875,0.8492772579193115,1.4101883172988892,1.2492380142211914,104.84147644042967,-53.26426696777344,252.2174530029297
1700074904,1.41436767578125,0.0717010498046875,-0.2801971435546875,0.877860426902771,1.4499229192733765,1.3371806144714355,105.76133728027344,-54.6248779296875,253.6676025390625
1700074904,1.4967193603515625,0.067901611328125,-0.241729736328125,0.9306988716125488,1.5536231994628906,1.443647384643555,107.45277404785156,-55.53526306152344,254.6622314453125
1700074904,1.547943115234375,0.1029815673828125,-0.18353271484375,1.0351619720458984,1.6853721141815186,1.524454951286316,108.5772705078125,-56.75923156738281,256.06060791015625
1700074904,1.6203765869140625,0.105438232421875,-0.1277008056640625,1.2403515577316284,1.764672875404358,1.5336254835128784,109.26956176757812,-57.44537353515625,257.1513061523437
1700074904,1.7079620361328125,0.0375823974609375,-0.1095428466796875,1.4934653043746948,1.7813937664031982,1.4980441331863403,109.9010009765625,-57.93603515625,257.2229919433594
1700074904,1.8138427734375,-0.0426025390625,-0.0576171875,1.722158432006836,1.8001112937927246,1.43291437625885,110.47103881835938,-58.22161865234375,258.2719116210937
1700074904,1.895172119140625,-0.0971527099609375,0.016876220703125,2.032836675643921,1.8198654651641848,1.2742836475372314,111.04533386230467,-58.57200622558594,257.9401550292969
1700074904,1.935638427734375,-0.1755523681640625,0.0563201904296875,2.293111085891724,1.879477500915528,1.158627152442932,111.34356689453124,-58.65376281738281,258.64520263671875
1700074904,1.769073486328125,-0.176544189453125,-0.090850830078125,2.422285795211792,1.8989653587341309,0.9985018968582152,111.4321746826172,-58.334503173828125,258.7828063964844
1700074904,1.400177001953125,-0.130340576171875,-0.4109344482421875,2.405369520187378,2.016966819763184,0.7854785919189453,111.4567413330078,-57.74876403808594,258.70916748046875
1700074904,0.9441680908203124,-0.1396331787109375,-0.938995361328125,2.1597723960876465,2.004114389419556,0.7866753935813904,111.8287353515625,-57.39552307128906,258.5586242675781
1700074904,0.483795166015625,0.0395355224609375,-1.3721923828125,2.128382682800293,1.7833911180496216,0.5755178928375244,111.78076171875,-56.55906677246094,258.2035522460937
1700074904,0.4771270751953125,0.1142425537109375,-1.323944091796875,2.36385440826416,1.4062784910202026,-0.0805097594857215,111.7991943359375,-56.734130859375,258.5240783691406
1700074904,0.7871856689453125,0.022552490234375,-0.9087371826171876,2.7735583782196045,1.167088508605957,-0.9491721987724304,112.30995178222656,-56.94113159179688,258.2561340332031
1700074904,0.9330291748046876,-0.160064697265625,-0.417724609375,2.957564353942871,1.1001065969467163,-1.6997369527816772,112.325927734375,-56.98771667480469,257.7253112792969
1700074904,0.714263916015625,-0.3338623046875,-0.2715301513671875,2.89443588256836,0.9867957234382628,-1.984423041343689,112.20440673828124,-55.49037170410156,257.11163330078125
1700074904,0.38970947265625,-0.3900604248046875,-0.260772705078125,2.734583616256714,0.778627872467041,-1.9933563470840447,112.1506805419922,-54.99407958984375,256.0585327148437
1700074904,0.2266082763671875,-0.3841400146484375,-0.1639556884765625,2.633723258972168,0.5596630573272705,-2.1297054290771484,111.697021484375,-54.044189453125,255.4551544189453
1700074904,0.2956085205078125,-0.5220947265625,-0.0075836181640625,2.175541639328003,0.3656773269176483,-2.207126379013061,111.56890869140624,-53.497894287109375,254.7849273681641
1700074904,0.34771728515625,-0.37371826171875,0.037322998046875,1.6799020767211914,0.2288994938135147,-2.337146759033203,111.2123565673828,-53.078033447265625,254.6371917724609
1700074905,0.4161224365234375,-0.1389923095703125,0.0514678955078125,1.4081504344940186,0.0783659145236015,-2.5459721088409424,111.0813446044922,-52.95088195800781,253.7548675537109
1700074905,0.52215576171875,0.0242919921875,0.053924560546875,1.2908658981323242,-0.1284152269363403,-2.773130178451538,111.2511749267578,-52.36778259277344,253.7071533203125
1700074905,0.6088714599609375,0.154998779296875,0.05328369140625,1.2151814699172974,-0.3428511023521423,-3.0193140506744385,110.96954345703124,-51.90116882324219,253.4497833251953
1700074905,0.6681976318359375,0.229949951171875,0.0371246337890625,1.14003586769104,-0.5487121343612671,-3.253065824508667,110.9250030517578,-52.06791687011719,252.9366149902344
1700074905,0.715057373046875,0.2668609619140625,-0.0023193359375,1.0890344381332395,-0.7576727867126465,-3.445378541946411,110.99337768554688,-51.441802978515625,253.29234313964844
1700074905,0.7747955322265625,0.2778167724609375,-0.037078857421875,1.0587722063064575,-0.956669270992279,-3.59014105796814,110.83164978027344,-51.06248474121094,253.62136840820312
1700074905,0.845184326171875,0.2690582275390625,-0.030731201171875,1.0026791095733645,-1.146703839302063,-3.66711950302124,110.39700317382812,-50.91865539550781,252.7816925048828
1700074905,0.8693695068359375,0.26690673828125,-0.0076751708984375,0.9212340116500854,-1.282612681388855,-3.689428329467773,110.52458190917967,-50.59416198730469,253.33401489257807
1700074905,0.85882568359375,0.2775115966796875,-0.0009002685546875,0.7849614024162292,-1.3935589790344238,-3.6826229095458975,110.26893615722656,-50.25950622558594,252.92144775390625
1700074905,0.8871307373046875,0.29327392578125,0.013397216796875,0.5736443400382996,-1.503369927406311,-3.604658365249634,110.18714904785156,-50.36116027832031,252.50038146972656
1700074905,0.912933349609375,0.3573150634765625,-0.001861572265625,0.3141502141952514,-1.6042160987854004,-3.4498722553253174,110.143310546875,-49.989593505859375,253.53253173828125
1700074905,0.925628662109375,0.47540283203125,-0.074798583984375,0.1418729871511459,-1.7360183000564575,-3.2403600215911865,110.33392333984376,-49.92919921875,252.8470764160156
1700074905,0.96466064453125,0.60009765625,-0.1377105712890625,0.1470594853162765,-1.885339856147766,-3.0666608810424805,110.11906433105467,-49.55099487304688,253.36788940429688
1700074905,1.0301666259765625,0.6806793212890625,-0.1456298828125,0.3506757318973541,-1.9833154678344729,-2.9744949340820312,110.45855712890624,-49.45623779296875,252.8563690185547
1700074905,1.0734100341796875,0.732574462890625,-0.1463470458984375,0.6840430498123169,-2.004758358001709,-2.9642300605773926,110.46438598632812,-49.40086364746094,253.32565307617188
1700074905,1.077606201171875,0.8040924072265625,-0.2196197509765625,1.05709969997406,-2.037477970123291,-2.8420569896698,110.33306884765624,-49.5595703125,253.13194274902344
1700074905,1.0088958740234375,0.87762451171875,-0.3460845947265625,1.3616290092468262,-2.0786027908325195,-2.764284133911133,109.99317932128906,-49.14527893066406,253.27989196777344
1700074905,0.978790283203125,0.9215545654296876,-0.4541473388671875,1.5581369400024414,-2.067194700241089,-2.708367347717285,109.88909912109376,-49.50730895996094,253.7903747558593
1700074905,0.9569091796875,0.9825439453125,-0.522186279296875,1.642797589302063,-1.9970043897628784,-2.642994880676269,109.9853973388672,-49.24078369140625,253.5264587402344
1700074905,0.9019622802734376,0.997161865234375,-0.53851318359375,1.6742292642593384,-1.8963704109191888,-2.5644330978393555,109.84393310546876,-49.089752197265625,254.1896209716797
1700074905,0.8862762451171875,0.94140625,-0.48626708984375,1.7845631837844849,-1.8311126232147217,-2.3921964168548584,109.93499755859376,-49.26228332519531,254.02040100097656
1700074905,0.9117584228515624,0.83685302734375,-0.3929290771484375,1.843051791191101,-1.8097697496414185,-2.1893200874328613,109.93888854980467,-49.02351379394531,254.46131896972656
1700074905,0.9614410400390624,0.7392120361328125,-0.3700714111328125,1.711615800857544,-1.752632737159729,-2.0087149143218994,109.64822387695312,-48.96989440917969,254.5420837402344
1700074905,0.99603271484375,0.662811279296875,-0.44830322265625,1.5116547346115112,-1.6924617290496826,-1.841660022735596,109.80880737304688,-48.86592102050781,254.8720092773437
1700074905,1.000152587890625,0.59381103515625,-0.496307373046875,1.3006412982940674,-1.6379796266555786,-1.6612415313720703,109.89981079101562,-48.61955261230469,255.0644073486328
1700074905,0.94366455078125,0.535430908203125,-0.5137481689453125,1.090035080909729,-1.5276142358779907,-1.4481316804885864,109.85052490234376,-48.58076477050781,254.95008850097656
1700074905,0.8402862548828125,0.4940185546875,-0.50372314453125,0.9569712281227112,-1.3921799659729004,-1.2279380559921265,110.17237854003906,-48.43035888671875,255.36183166503903
1700074905,0.7632904052734375,0.44091796875,-0.4530181884765625,0.8689050078392029,-1.2597886323928833,-1.0469129085540771,110.10574340820312,-48.244140625,255.80470275878903
1700074905,0.724761962890625,0.3972015380859375,-0.4098358154296875,0.8132503032684326,-1.127949357032776,-0.8983808755874634,109.73526000976562,-48.60350036621094,256.50787353515625
1700074905,0.7003936767578125,0.3708038330078125,-0.37060546875,0.7871891260147095,-1.0016891956329346,-0.7915458083152771,109.82791137695312,-48.01953125,255.9029693603516
1700074905,0.6982574462890625,0.334716796875,-0.3368682861328125,0.7492209672927856,-0.8738089799880981,-0.7082580924034119,109.50070190429688,-48.32139587402344,255.6805877685547
1700074905,0.7051544189453125,0.2945098876953125,-0.330078125,0.7710745930671692,-0.7460707426071167,-0.6209743022918701,109.6268310546875,-47.50181579589844,256.0228881835937
1700074905,0.6791229248046875,0.256805419921875,-0.313995361328125,0.8263495564460754,-0.6165848970413208,-0.4665522575378418,109.62332153320312,-47.24424743652344,255.7923126220703
1700074905,0.6432952880859375,0.2492523193359375,-0.290252685546875,0.8616090416908264,-0.5140332579612732,-0.256314605474472,109.93125915527344,-47.01066589355469,255.8592224121093
1700074905,0.6319427490234375,0.256927490234375,-0.2419281005859375,0.8420337438583374,-0.4229299426078796,-0.0490330569446086,109.597412109375,-47.002227783203125,255.8259429931641
1700074905,0.6641845703125,0.24615478515625,-0.178619384765625,0.6706026196479797,-0.3102846443653106,0.1209037825465202,109.4649658203125,-46.70060729980469,255.87472534179688
1700074905,0.71466064453125,0.2148895263671875,-0.2017974853515625,0.3630900681018829,-0.1940637528896331,0.2673233151435852,109.1045379638672,-46.95536804199219,255.6524658203125
1700074905,0.7153167724609375,0.17132568359375,-0.316650390625,0.0003004045574925,0.0533774718642234,0.4331522285938263,108.8876953125,-46.60249328613281,255.64181518554688
1700074905,0.588134765625,0.1115570068359375,-0.5079803466796875,-0.3890590667724609,0.3673612177371979,0.5999001860618591,109.43333435058594,-46.257904052734375,255.0608367919922
1700074905,0.46923828125,0.02581787109375,-0.6587982177734375,-0.7271726727485657,0.5632702708244324,0.7528713941574097,109.00869750976562,-45.85661315917969,255.49282836914065
1700074905,0.422027587890625,-0.0690155029296875,-0.6344757080078125,-0.9345327615737916,0.5899956226348877,0.931949257850647,108.65985107421876,-45.53700256347656,254.9080505371093
1700074905,0.4889678955078125,-0.083160400390625,-0.40447998046875,-1.0577125549316406,0.5193411707878113,1.1061266660690308,108.87516784667967,-45.032012939453125,254.78717041015625
1700074905,0.680450439453125,0.0534515380859375,-0.139678955078125,-1.0512855052947998,0.5817869901657104,1.1741455793380735,108.5491943359375,-44.61444091796875,254.5962677001953
1700074905,0.7792510986328125,0.1826324462890625,-0.07305908203125,-1.0541188716888428,1.0486441850662231,1.0649515390396118,108.59884643554688,-44.46177673339844,254.6169891357422
1700074905,0.7604522705078125,0.2227325439453125,-0.5309600830078125,-0.7916885614395142,1.1635500192642212,0.7116496562957764,108.47012329101562,-44.02532958984375,254.2559967041016
1700074905,0.64337158203125,-0.043731689453125,-0.8851470947265625,-0.2406999617815017,1.931383848190308,0.9912216067314148,108.11561584472656,-43.70832824707031,253.6788787841797
1700074905,0.6944732666015625,0.15386962890625,-1.1612396240234375,0.4078380763530731,5.633476257324219,1.3530642986297607,107.98109436035156,-43.40486145019531,253.8196716308593
1700074905,-0.580047607421875,0.7605438232421875,-5.036300659179688,-0.1386955678462982,-0.2422150373458862,2.808821678161621,107.70169067382812,-43.2529296875,254.08026123046875
1700074905,1.6376190185546875,1.3386077880859375,0.2711944580078125,0.4690260887145996,0.3923059999942779,0.508076548576355,107.37066650390624,-42.82286071777344,253.3942108154297
1700074905,4.927520751953125,-0.86328125,2.290252685546875,0.4325338304042816,3.2446706295013428,-1.0486012697219849,107.33250427246094,-42.7762451171875,253.0150146484375
1700074905,2.524810791015625,-1.734832763671875,0.9662322998046876,-0.5397924184799194,2.160630226135254,-0.2881258130073547,107.24041748046876,-42.30712890625,253.0589904785156
1700074905,0.7231903076171875,-0.6410980224609375,0.1238555908203125,0.5275455713272095,1.6218243837356567,0.9369708895683287,106.69241333007812,-41.90547180175781,252.68716430664065
1700074905,0.4185791015625,-0.77825927734375,0.08441162109375,0.2273242324590683,1.3075695037841797,0.9891520738601683,106.39680480957033,-41.45347595214844,252.5909881591797
1700074905,0.7858428955078125,-1.2648468017578125,-0.217987060546875,-0.6444202661514282,1.1672216653823853,0.4488483667373657,106.10653686523438,-41.11170959472656,252.8194122314453
1700074905,1.296478271484375,-1.288299560546875,-0.5196990966796875,-0.4839704036712646,1.030969262123108,0.6895933151245117,105.9870147705078,-40.53875732421875,252.3106842041016
1700074905,1.535675048828125,-0.626434326171875,-0.2365570068359375,-0.6416881084442139,0.8998805284500122,1.2519855499267578,105.46478271484376,-40.12580871582031,251.304931640625
1700074905,1.741058349609375,0.1922149658203125,-0.1884918212890625,-0.9510251879692078,0.6635476350784302,1.5715686082839966,105.2869110107422,-39.37828063964844,251.3742218017578
1700074905,1.79736328125,0.732879638671875,-0.314178466796875,-1.097234129905701,0.3947435915470123,1.5288232564926147,104.88882446289062,-38.70660400390625,251.39732360839844
1700074905,1.77081298828125,1.1515045166015625,-0.1235198974609375,-1.461044192314148,0.5584835410118103,1.3159438371658323,103.93821716308594,-38.2559814453125,250.68048095703125
1700074905,1.8873138427734373,1.3477630615234375,0.1645965576171875,-1.347228765487671,0.9881105422973632,0.6990196108818054,103.64216613769533,-37.55856323242188,250.0807037353516
1700074905,2.2536163330078125,0.827362060546875,0.1494598388671875,-0.3366605639457702,1.068451166152954,0.2993062734603882,102.81439208984376,-37.058929443359375,250.1192626953125
1700074905,2.075668334960937,0.19482421875,-0.2442779541015625,0.5539969205856323,0.6893336772918701,0.4037272334098816,101.9131317138672,-36.69723510742188,250.1522674560547
1700074905,1.3927154541015625,0.070648193359375,-0.631072998046875,0.8828943371772766,0.3677377998828888,0.5690629482269287,101.41104125976562,-36.06077575683594,249.1982269287109
1700074905,0.8972320556640625,0.049072265625,-0.650634765625,0.7856830954551697,0.2343677580356598,0.3913011848926544,100.39518737792967,-35.2730712890625,249.4873962402344
1700074905,0.57745361328125,0.055877685546875,-0.6094512939453125,0.6599366664886475,0.1189130693674087,0.1641449928283691,99.66322326660156,-34.20930480957031,248.6047821044922
1700074905,0.3596649169921875,0.1190032958984375,-0.6058807373046875,0.6299151182174683,0.0400661937892437,0.1328749656677246,98.8203125,-33.772216796875,248.64520263671875
1700074905,0.3838043212890625,0.2232666015625,-0.5150299072265625,0.5666179060935974,-0.0118406806141138,0.1158437803387641,98.1151885986328,-33.2840576171875,248.0740203857422
1700074905,0.663848876953125,0.2181549072265625,-0.406036376953125,0.368692010641098,-0.0354229733347892,0.029234318062663,96.84822082519533,-32.19303894042969,248.6031494140625
1700074905,0.8735198974609375,0.0939788818359375,-0.3801422119140625,0.1259028017520904,-0.0130486907437443,0.0025790052022784,96.28005981445312,-32.36036682128906,248.9380798339844
1700074905,0.9531097412109376,-0.0491485595703125,-0.350830078125,-0.0818743631243705,0.0591623894870281,0.1456626653671264,95.72885131835938,-31.66011047363281,248.78631591796875
1700074905,1.0104827880859375,-0.1750640869140625,-0.3067626953125,-0.1947444528341293,0.1654416918754577,0.3234491646289825,94.96446228027344,-30.892791748046875,248.9416656494141
1700074905,1.1144256591796875,-0.2869415283203125,-0.2465667724609375,-0.2296470403671264,0.2807587087154388,0.5408110618591309,93.98463439941406,-30.435958862304688,249.2953186035156
1700074905,1.1230621337890625,-0.2890167236328125,-0.22369384765625,-0.2735279500484466,0.4071035981178283,0.7489016652107239,93.31491088867188,-30.15156555175781,248.777084350586
1700074905,1.042999267578125,-0.1678619384765625,-0.2677001953125,-0.3281091749668121,0.542527973651886,0.8521779775619507,93.12181091308594,-30.00450134277344,249.39459228515625
1700074905,0.9544677734375,-0.0761566162109375,-0.2633056640625,-0.3193396329879761,0.7176020741462708,0.8944301009178162,93.03392028808594,-30.202880859375,249.8619842529297
1700074905,0.8643798828125,-0.0789337158203125,-0.155364990234375,-0.1102239787578582,0.8681207299232483,0.963703155517578,93.24591064453124,-30.184295654296875,250.4431915283203
1700074905,0.794647216796875,-0.1358642578125,-0.11090087890625,0.1678992509841919,0.9632152915000916,1.0282065868377686,93.77708435058594,-30.48817443847656,251.1463928222656
1700074905,0.76953125,-0.1764068603515625,-0.2460784912109375,0.2993302643299103,1.0087153911590576,1.050822377204895,94.76744079589844,-30.77349853515625,252.0218505859375
1700074905,0.7627716064453125,-0.09527587890625,-0.4009246826171875,0.277350902557373,1.0373494625091553,1.0698972940444946,95.42390441894533,-31.82382202148437,252.3670959472656
1700074905,0.7573089599609375,0.1288604736328125,-0.4688568115234375,0.1472123563289642,1.092122197151184,1.0531220436096191,96.39120483398438,-32.35047912597656,253.4174652099609
1700074905,0.8192138671875,0.33514404296875,-0.4165496826171875,0.1292658448219299,1.196754813194275,1.0179952383041382,96.84700012207033,-33.20930480957031,253.8373565673828
1700074905,0.9097442626953124,0.4275970458984375,-0.316162109375,0.3418947458267212,1.3378759622573853,1.000776290893555,98.01907348632812,-33.846923828125,253.73513793945312
1700074905,0.9857177734375,0.385528564453125,-0.272979736328125,0.605815589427948,1.450930953025818,0.960500717163086,98.68511962890624,-35.12272644042969,254.43551635742188
1700074905,1.029327392578125,0.1953277587890625,-0.2818145751953125,0.819733738899231,1.511533498764038,0.940232753753662,99.6182861328125,-36.06370544433594,254.20265197753903
1700074905,0.93658447265625,-0.0100860595703125,-0.335418701171875,0.9418620467185974,1.4999500513076782,0.9726953506469728,101.25143432617188,-37.06044006347656,254.86892700195312
1700074905,0.67242431640625,-0.0879364013671875,-0.527008056640625,0.942194163799286,1.459834337234497,1.0093865394592283,102.52406311035156,-38.480010986328125,255.1858673095703
1700074905,0.4108123779296875,0.051422119140625,-0.678558349609375,0.7275944948196411,1.4516578912734983,1.005005121231079,103.45468139648438,-39.47560119628906,256.1629638671875
1700074905,0.49420166015625,0.308990478515625,-0.56591796875,0.562024712562561,1.5235917568206787,0.983059585094452,104.4623565673828,-41.23881530761719,256.75750732421875
1700074905,0.8357696533203125,0.46270751953125,-0.4342803955078125,0.6284652948379517,1.605957269668579,0.9264674186706544,105.95355224609376,-43.02267456054688,257.4263916015625
1700074905,1.1196441650390625,0.37847900390625,-0.4470672607421875,0.8999438881874084,1.6724680662155151,0.9335514307022096,107.4030303955078,-44.76835632324219,257.8360595703125
1700074905,1.192169189453125,0.1875762939453125,-0.5002593994140625,1.0959751605987549,1.707613229751587,1.0232272148132324,107.9707489013672,-46.3052978515625,259.1367492675781
1700074905,1.0716094970703125,0.051513671875,-0.5587310791015625,1.107805252075195,1.7193692922592163,1.1822099685668943,108.95668029785156,-48.199462890625,259.3536682128906
1700074905,0.917083740234375,0.005523681640625,-0.5629425048828125,0.98239403963089,1.713271141052246,1.3307222127914429,109.8734130859375,-50.010528564453125,259.9760131835937
1700074905,0.804840087890625,0.026275634765625,-0.5572967529296875,0.8664546608924866,1.683991312980652,1.377934217453003,110.28572082519533,-51.267852783203125,260.78240966796875
1700074905,0.780609130859375,0.0661163330078125,-0.7070770263671875,0.8253831267356873,1.661787509918213,1.3988674879074097,110.60003662109376,-52.94088745117188,261.75927734375
1700074905,0.7751922607421875,0.213134765625,-0.7170257568359375,0.8690747022628784,1.668961763381958,1.3706419467926023,111.1888427734375,-53.98301696777344,262.9063720703125
1700074905,0.793212890625,0.3417205810546875,-0.6347198486328125,0.8863303661346436,1.6491552591323853,1.382707595825195,111.39398193359376,-55.57785034179688,263.5668029785156
1700074905,0.822906494140625,0.414825439453125,-0.58917236328125,0.8627334237098694,1.6077487468719482,1.43001389503479,111.95079040527344,-57.377044677734375,264.734130859375
1700074905,0.836273193359375,0.4039306640625,-0.649871826171875,0.8027864694595337,1.601528882980347,1.513993501663208,112.03199768066406,-58.26708984375,266.1836242675781
1700074905,0.9651947021484376,0.392425537109375,-0.769775390625,0.6848265528678894,1.5452853441238403,1.6504546403884888,112.32904052734376,-59.66084289550781,267.0508117675781
1700074906,1.2615814208984375,0.378936767578125,-0.7534332275390625,0.5972775220870972,1.504504680633545,1.807300448417664,112.82307434082033,-61.166290283203125,268.11480712890625
1700074906,1.3641357421875,0.3437042236328125,-0.73626708984375,0.5719031691551208,1.491883635520935,1.9092167615890503,112.74050903320312,-62.25796508789063,268.36627197265625
1700074906,1.365020751953125,0.3367462158203125,-0.7095794677734375,0.5429748892784119,1.459756851196289,2.002260684967041,112.9309539794922,-63.91401672363281,269.9433898925781
1700074906,1.4185943603515625,0.3634033203125,-0.7389068603515625,0.471206396818161,1.3805387020111084,2.0480716228485107,112.89305114746094,-64.49069213867188,271.0975341796875
1700074906,1.532562255859375,0.386077880859375,-0.75201416015625,0.3940863311290741,1.2580636739730835,2.042084217071533,112.67572021484376,-65.93017578125,271.86700439453125
1700074906,1.62237548828125,0.37799072265625,-0.7113494873046875,0.3058960139751434,1.087664246559143,1.939213752746582,112.56785583496094,-66.61434936523438,272.80291748046875
1700074906,1.6280670166015625,0.3371429443359375,-0.677215576171875,0.2515872418880462,0.8419319987297058,1.7320475578308103,112.41156005859376,-67.68208312988281,273.1168518066406
1700074906,1.5676727294921875,0.2780303955078125,-0.6097412109375,0.1728828251361847,0.547389566898346,1.4788190126419067,112.65048217773438,-68.0533447265625,273.7963256835937
1700074906,1.3746795654296875,0.23822021484375,-0.52667236328125,0.1697474867105484,0.2860741019248962,1.2639623880386353,112.27032470703124,-69.02439880371094,274.0931396484375
1700074906,0.9777984619140624,0.229278564453125,-0.476043701171875,0.2794385552406311,0.2450574189424514,0.995297074317932,111.97761535644533,-69.53555297851562,275.7200927734375
1700074906,0.511077880859375,0.175750732421875,-0.5413665771484375,0.6363841891288757,0.2515467405319214,0.5138034224510193,112.11004638671876,-70.01301574707031,276.30108642578125
1700074906,0.215118408203125,0.0151519775390625,-0.4882049560546875,1.060459017753601,0.1570780277252197,0.1581920385360717,111.98196411132812,-70.29315185546875,277.03375244140625
1700074906,0.030914306640625,0.033355712890625,-0.3868865966796875,1.350056529045105,-0.05654077231884,-0.0727666169404983,111.82606506347656,-70.45932006835938,277.439453125
1700074906,-0.1333770751953125,0.1990203857421875,-0.3543548583984375,1.571089744567871,-0.4021543562412262,-0.350197434425354,112.23574829101562,-70.90487670898438,277.9630432128906
1700074906,-0.11871337890625,0.26300048828125,-0.21502685546875,1.8801491260528564,-0.8875871300697327,-0.7617066502571106,111.99607849121094,-71.15760803222656,277.8820495605469
1700074906,0.0275421142578125,0.1857757568359375,0.05364990234375,1.7304751873016355,-1.1579509973526,-1.2771223783493042,111.6217041015625,-71.466796875,278.35919189453125
1700074906,0.066741943359375,0.0080108642578125,0.102386474609375,1.0594526529312134,-1.358970046043396,-1.6723476648330688,111.5255126953125,-71.47634887695312,278.5350341796875
1700074906,-0.07305908203125,-0.18505859375,-0.0890045166015625,0.5109120011329651,-1.5312873125076294,-1.926823973655701,111.66423034667967,-71.73927307128906,278.16436767578125
1700074906,-0.0028076171875,-0.513885498046875,-0.0294342041015625,-0.0707695111632347,-1.6361161470413208,-2.16856336593628,111.9313507080078,-71.5833740234375,278.69879150390625
1700074906,0.3128814697265625,-0.8258209228515625,0.059051513671875,-0.9024310111999512,-1.6594436168670654,-2.343801736831665,111.74952697753906,-71.02261352539062,278.8652038574219
1700074906,0.54534912109375,-0.9413604736328124,-0.00360107421875,-1.89386522769928,-1.759682059288025,-2.1199424266815186,111.85415649414062,-70.6343994140625,278.7257995605469
1700074906,0.572784423828125,-0.5616302490234375,-0.220367431640625,-2.431631803512573,-1.997896790504456,-2.0565338134765625,111.9595184326172,-70.31669616699219,278.7972412109375
1700074906,0.6551666259765625,-0.261016845703125,-0.2944488525390625,-2.4960224628448486,-2.2925586700439453,-2.204869508743286,112.33175659179688,-69.91168212890625,278.443603515625
1700074906,0.77044677734375,-0.0316925048828125,-0.25006103515625,-2.3315751552581787,-2.6270670890808105,-2.414103507995605,112.2193603515625,-69.00967407226562,278.1588134765625
1700074906,0.850799560546875,0.2624969482421875,-0.180389404296875,-2.1171231269836426,-2.8650872707366943,-2.64549207687378,112.06497192382812,-68.361572265625,277.8221130371094
1700074906,0.9301910400390624,0.4945831298828125,-0.2292327880859375,-1.8129644393920896,-2.945627927780152,-2.859072208404541,112.57453918457033,-67.68475341796875,277.2198486328125
1700074906,0.990203857421875,0.6237945556640625,-0.300201416015625,-1.258177638053894,-3.015242338180542,-2.903067111968994,112.59730529785156,-67.38484191894531,277.3837280273437
1700074906,0.9545745849609376,0.72027587890625,-0.370758056640625,-0.284262090921402,-3.1327507495880127,-2.882542133331299,112.70664978027344,-66.51173400878906,275.7200927734375
1700074906,0.8959808349609375,0.703369140625,-0.4000244140625,0.7378538250923157,-3.2396724224090576,-2.977289915084839,113.64503479003906,-65.3641357421875,274.05194091796875
1700074906,0.953155517578125,0.592529296875,-0.4404449462890625,1.208242654800415,-3.2722833156585693,-3.175588130950928,113.5810089111328,-65.388671875,274.89776611328125
1700074906,1.075653076171875,0.542816162109375,-0.5526580810546875,1.1119507551193235,-3.222240447998047,-3.3516948223114014,113.85520935058594,-65.7601318359375,273.3236083984375
1700074906,1.147979736328125,0.5430908203125,-0.6327972412109375,0.6971873641014099,-3.1426594257354736,-3.356738567352295,114.3582000732422,-66.13128662109375,271.9524841308594
1700074906,1.1551666259765625,0.5271148681640625,-0.6705322265625,0.2179296612739563,-3.058459043502808,-3.2061595916748047,114.51251220703124,-66.21453857421875,271.224609375
1700074906,1.1067047119140625,0.4874420166015625,-0.6925506591796875,-0.1570902913808822,-2.918015718460083,-2.996837615966797,114.63681030273438,-65.27685546875,270.1249694824219
1700074906,1.0618438720703125,0.4503631591796875,-0.759307861328125,-0.3034477531909942,-2.7479872703552246,-2.8071069717407227,114.27195739746094,-65.17770385742188,269.5716552734375
1700074906,1.05975341796875,0.43304443359375,-0.843414306640625,-0.3378448784351349,-2.6539883613586426,-2.6642873287200928,114.61688232421876,-64.67112731933594,268.5680847167969
1700074906,1.130157470703125,0.4519805908203125,-0.81011962890625,-0.2796124815940857,-2.597787380218506,-2.5344693660736084,114.48731994628906,-64.17781066894531,267.66607666015625
1700074906,1.2326507568359375,0.5020751953125,-0.7313079833984375,-0.2352513968944549,-2.526873826980591,-2.4190690517425537,114.41375732421876,-63.8856201171875,267.452392578125
1700074906,1.3031005859375,0.55352783203125,-0.6830596923828125,-0.2424171715974807,-2.4143104553222656,-2.2955989837646484,114.32551574707033,-62.5989990234375,266.5140991210937
1700074906,1.316619873046875,0.5877227783203125,-0.6779022216796875,-0.0319595299661159,-2.3060481548309326,-2.105645179748535,114.6065673828125,-61.80734252929688,266.04656982421875
1700074906,1.2605133056640625,0.60650634765625,-0.6445465087890625,0.2578523159027099,-2.174266576766968,-1.937947392463684,114.1876220703125,-61.234161376953125,266.410400390625
1700074906,1.142547607421875,0.5597381591796875,-0.591339111328125,0.4596557319164276,-2.009784698486328,-1.7865447998046875,114.1448211669922,-60.31890869140625,265.2666015625
1700074906,1.022796630859375,0.4983062744140625,-0.5637359619140625,0.5590869784355164,-1.82499098777771,-1.6576683521270752,114.27996826171876,-60.10542297363281,264.64678955078125
1700074906,0.9523773193359376,0.4382476806640625,-0.5389251708984375,0.5936926603317261,-1.6363372802734375,-1.5457618236541748,114.18934631347656,-60.10429382324219,264.60028076171875
1700074906,0.9162139892578124,0.3671875,-0.529083251953125,0.6281070709228516,-1.4272726774215698,-1.411704659461975,113.65411376953124,-59.496978759765625,264.5498046875
1700074906,0.8599700927734375,0.3144073486328125,-0.5065460205078125,0.6888774633407593,-1.2196478843688965,-1.2519330978393557,113.47596740722656,-59.85209655761719,264.09649658203125
1700074906,0.78021240234375,0.289398193359375,-0.4556732177734375,0.7540705800056458,-0.9928112626075744,-1.10617196559906,113.3338623046875,-59.63362121582031,263.87506103515625
1700074906,0.6901092529296875,0.291046142578125,-0.396240234375,0.8792650103569031,-0.7777855396270752,-0.974920392036438,113.51202392578124,-59.14404296875,264.6748046875
1700074906,0.6215972900390625,0.2934722900390625,-0.26885986328125,1.0221561193466189,-0.6067692637443542,-0.8730244040489197,113.451904296875,-59.29193115234375,264.4237670898437
1700074906,0.658599853515625,0.2607421875,-0.1322479248046875,1.046636700630188,-0.4343341290950775,-0.7512039542198181,113.08528137207033,-59.46824645996094,264.8028564453125
1700074906,0.697296142578125,0.230743408203125,-0.1310882568359375,1.0255638360977173,-0.2684149444103241,-0.5762050151824951,113.32029724121094,-59.372344970703125,264.6372375488281
1700074906,0.71466064453125,0.2312774658203125,-0.1900482177734375,0.9590860605239868,-0.1491133123636245,-0.3529165089130401,113.37588500976562,-59.20365905761719,264.3488464355469
1700074906,0.746185302734375,0.251190185546875,-0.258087158203125,0.9006099700927734,-0.0591618567705154,-0.1342781782150268,113.63064575195312,-59.02946472167969,263.8514404296875
1700074906,0.8069915771484375,0.2469482421875,-0.306182861328125,0.8706967830657959,0.027521638199687,0.0455198138952255,113.46612548828124,-58.76631164550781,263.6871337890625
1700074906,0.8109893798828125,0.1952972412109375,-0.3176727294921875,0.7748461961746216,0.1245094388723373,0.1478499174118042,113.7262725830078,-58.28485107421875,263.2923583984375
1700074906,0.832611083984375,0.1064910888671875,-0.31591796875,0.5704682469367981,0.1593427807092666,0.1877339482307434,113.52406311035156,-57.679931640625,263.5687866210937
1700074906,0.92156982421875,0.00872802734375,-0.2546234130859375,0.2219294607639312,0.1632930487394333,0.2332337945699691,113.20108032226562,-57.297760009765625,262.81085205078125
1700074906,0.925201416015625,-0.0518035888671875,-0.2266082763671875,-0.2092171311378479,0.1659508943557739,0.3147699236869812,112.72599792480467,-56.40428161621094,262.5045166015625
1700074906,0.8567657470703125,-0.0621337890625,-0.2227630615234375,-0.6080158948898315,0.2250781208276748,0.3923792243003845,112.670654296875,-55.89761352539063,261.8949890136719
1700074906,0.7317352294921875,-0.0542449951171875,-0.2499847412109375,-0.8678352236747742,0.3456655144691467,0.4941942691802978,112.71522521972656,-55.0108642578125,261.35125732421875
1700074906,0.587615966796875,-0.01727294921875,-0.260986328125,-1.0441758632659912,0.658410906791687,0.6577879786491394,112.0845947265625,-54.59762573242188,260.56903076171875
1700074906,0.52532958984375,0.0581817626953125,-0.3529052734375,-1.1126340627670288,1.1293044090270996,0.6983420848846436,111.92543029785156,-53.984222412109375,259.9919738769531
1700074906,0.49005126953125,0.115234375,-0.7593841552734375,-0.9835898280143738,1.2716937065124512,0.8978658318519592,111.43888854980467,-53.34146118164063,259.669189453125
1700074906,0.5655364990234375,0.2555084228515625,-0.8635101318359375,-0.7562386989593506,2.856616735458374,1.0935570001602173,111.09979248046876,-52.50927734375,259.08892822265625
1700074906,0.5303497314453125,0.36749267578125,-1.930084228515625,-0.53266841173172,4.118153095245361,0.9722244739532472,110.73880004882812,-51.90440368652344,258.68487548828125
1700074906,-0.240447998046875,0.5915069580078125,-3.936370849609375,-0.4085909724235534,-0.3253317475318908,1.434401512145996,110.49526977539062,-50.97590637207031,258.1408996582031
1700074906,2.6690216064453125,0.453826904296875,1.21063232421875,1.223805546760559,0.6728809475898743,-0.3965974152088165,109.94107055664062,-50.54765319824219,257.47052001953125
1700074906,4.1438751220703125,-1.300323486328125,1.2619171142578125,1.2391566038131714,2.2391059398651123,-0.7198092937469482,109.50653076171876,-49.78974914550781,257.0081787109375
1700074906,1.9455108642578125,-1.284698486328125,0.7906646728515625,0.9880713820457458,1.8520112037658687,0.4163016080856323,108.97550964355467,-48.82316589355469,256.55908203125
1700074906,0.595672607421875,-0.4439239501953125,0.198577880859375,1.7395890951156616,1.3576632738113403,0.8493472933769226,108.77333068847656,-48.802001953125,255.6027984619141
1700074906,0.527099609375,-0.5063629150390625,0.21563720703125,0.7250424027442932,1.0320359468460083,0.4387398064136505,108.50804138183594,-47.53846740722656,255.3563537597656
1700074906,0.768890380859375,-0.420501708984375,-0.05377197265625,-0.7412975430488586,1.0473546981811523,0.2568408548831939,108.16447448730467,-47.46041870117188,254.4266815185547
1700074906,1.0553741455078125,-0.231292724609375,-0.0992279052734375,-1.027591109275818,0.9116405248641968,0.4715867042541504,107.22447204589844,-46.697509765625,254.3917694091797
1700074906,1.482696533203125,-0.0618438720703125,-0.1631622314453125,-1.0198434591293335,0.8784189224243164,0.7310747504234314,106.74166870117188,-46.00030517578125,253.677474975586
1700074906,1.91912841796875,0.118988037109375,-0.171417236328125,-1.08796489238739,0.7317171096801758,0.8466974496841431,106.25477600097656,-44.90545654296875,253.4493408203125
1700074906,2.0037078857421875,0.323455810546875,0.0363311767578125,-0.8568142652511597,0.9244649410247804,0.9445379972457886,105.55157470703124,-43.71601867675781,252.5273895263672
1700074906,1.790283203125,0.2989044189453125,0.245513916015625,-0.434995949268341,1.1394596099853516,0.8780271410942078,104.9237823486328,-43.058624267578125,251.8824615478516
1700074906,2.0061492919921875,-0.132720947265625,0.437591552734375,-0.0220757406204938,1.4530625343322754,1.0567630529403689,103.9534149169922,-42.14491271972656,250.9920654296875
1700074906,1.944488525390625,-0.2550811767578125,-0.0300140380859375,0.0628071948885917,1.190099000930786,1.3884038925170898,103.55860900878906,-41.55711364746094,250.8789520263672
1700074906,1.340911865234375,0.136138916015625,-0.7252960205078125,-0.1594000458717346,0.7156307697296143,1.179274082183838,102.69674682617188,-40.59703063964844,250.1160430908203
1700074906,0.9147491455078124,0.26171875,-0.8815765380859375,-0.2549270987510681,0.5003541707992554,0.6096673607826233,101.69148254394533,-39.62638854980469,250.2434539794922
1700074906,0.659210205078125,0.3808746337890625,-0.647979736328125,0.2280467450618744,0.4272301495075226,0.2547580003738403,100.4932861328125,-38.433380126953125,249.66944885253903
1700074906,0.540924072265625,0.6136932373046875,-0.36114501953125,0.7721912860870361,0.3209830820560455,0.00542858755216,99.36053466796876,-37.51974487304688,249.04360961914065
1700074906,0.8788909912109375,0.4763031005859375,-0.261566162109375,0.9834084510803224,0.2014039456844329,-0.1234471052885055,98.5517120361328,-36.6727294921875,248.4838409423828
1700074906,1.084625244140625,0.2595367431640625,-0.3455810546875,0.808742105960846,0.1493580639362335,-0.1915209591388702,97.59675598144533,-35.61767578125,248.5596923828125
1700074906,1.0801849365234375,0.1318206787109375,-0.489776611328125,0.4815613031387329,0.087887242436409,-0.1857818514108657,96.45509338378906,-34.729766845703125,247.6608428955078
1700074906,1.0741729736328125,-0.00244140625,-0.4619293212890625,0.1143683865666389,0.0504264235496521,-0.0927762761712074,95.02854919433594,-34.190887451171875,247.66506958007807
1700074906,1.0437469482421875,-0.0957183837890625,-0.392364501953125,-0.1734538078308105,0.0336503721773624,0.0173757951706647,93.620849609375,-32.756561279296875,247.34390258789065
1700074906,1.0220184326171875,-0.1566619873046875,-0.372802734375,-0.2915780544281006,3.86158353649e-05,0.1238119527697563,92.7627410888672,-32.27287292480469,246.7247772216797
1700074906,0.9875946044921876,-0.152557373046875,-0.392242431640625,-0.3048864006996155,-0.0357385575771331,0.1860449761152267,91.66519165039062,-31.6505126953125,246.4821319580078
1700074906,0.934234619140625,-0.0726470947265625,-0.40020751953125,-0.2576033174991607,-0.049722284078598,0.1831658333539962,90.48974609375,-31.364166259765625,246.7978515625
1700074906,0.9111785888671876,0.011749267578125,-0.35595703125,-0.0900140479207038,-0.0340317375957965,0.1303297728300094,89.52200317382812,-31.1102294921875,246.2435760498047
1700074906,0.8995361328125,0.0585174560546875,-0.2805328369140625,0.1862598806619644,0.0068235513754189,0.0781637802720069,88.75244140625,-30.71713256835937,246.60791015625
1700074906,0.879791259765625,0.058929443359375,-0.2194061279296875,0.3997716307640075,0.0678349733352661,0.0802516937255859,88.77149963378906,-30.47589111328125,246.7070770263672
1700074906,0.876800537109375,0.034393310546875,-0.222381591796875,0.4217565655708313,0.1363469213247299,0.1366473287343979,88.79362487792969,-30.251449584960938,247.5063018798828
1700074906,0.9013671875,-0.0105133056640625,-0.2625274658203125,0.3094955384731293,0.2133999019861221,0.2177517712116241,88.24226379394531,-29.897430419921875,247.9814910888672
1700074906,0.9282379150390624,-0.077728271484375,-0.2669525146484375,0.1697219163179397,0.2989579439163208,0.3200672268867492,88.749267578125,-29.942596435546875,249.2579345703125
1700074906,0.9278564453125,-0.1298980712890625,-0.2604217529296875,0.0553261041641235,0.3917129039764404,0.4409603476524353,89.28890991210938,-29.864715576171875,250.14979553222656
1700074906,0.91522216796875,-0.1552276611328125,-0.247161865234375,-0.0251460988074541,0.477774828672409,0.5484783053398132,90.00289916992188,-30.374435424804688,250.48081970214844
1700074907,0.898834228515625,-0.14227294921875,-0.2263336181640625,-0.0251101460307836,0.5414835214614868,0.6218153238296509,90.9556884765625,-30.96253967285156,251.16812133789065
1700074907,0.879669189453125,-0.0960693359375,-0.2525482177734375,0.0410414412617683,0.5997015237808228,0.6494512557983398,92.03874206542967,-31.194549560546875,251.743408203125
1700074907,0.8837890625,-0.019989013671875,-0.3029632568359375,0.119177259504795,0.680750846862793,0.6589800119400024,92.8299560546875,-32.120330810546875,252.0135498046875
1700074907,0.8957672119140625,0.06317138671875,-0.2957611083984375,0.2034114450216293,0.7717334628105164,0.6578670740127563,93.71937561035156,-32.78181457519531,251.1669006347656
1700074907,0.917388916015625,0.1067352294921875,-0.2568359375,0.3002764582633972,0.8604143261909485,0.6647841334342957,94.46078491210938,-33.871856689453125,251.2656097412109
1700074907,0.9305572509765624,0.07733154296875,-0.225189208984375,0.397527128458023,0.9315348863601683,0.7042803764343262,96.00862121582033,-34.746063232421875,250.8384246826172
1700074907,0.8939208984375,0.0100555419921875,-0.2779998779296875,0.4441708028316498,0.966257393360138,0.7719894051551819,96.978515625,-35.65519714355469,250.84019470214844
1700074907,0.837371826171875,-0.025482177734375,-0.3837127685546875,0.4447313845157623,0.9751012325286864,0.8336074948310852,98.21726989746094,-37.060577392578125,250.65663146972656
1700074907,0.8073272705078125,0.001129150390625,-0.458709716796875,0.4188627600669861,0.9926541447639464,0.8496692776679993,99.576904296875,-37.98735046386719,251.4369964599609
1700074907,0.8217315673828125,0.04742431640625,-0.4419097900390625,0.4708508849143982,1.04179048538208,0.8349814414978027,100.8695831298828,-38.66828918457031,252.0160217285156
1700074907,0.8154754638671875,0.1062469482421875,-0.401611328125,0.5512762069702148,1.1154695749282837,0.839083731174469,101.8114776611328,-39.86358642578125,253.1737365722656
1700074907,0.836456298828125,0.1855316162109375,-0.36798095703125,0.5958085060119629,1.2141317129135132,0.8332328200340271,103.53912353515624,-41.13810729980469,255.05555725097656
1700074907,0.92498779296875,0.1964111328125,-0.2964324951171875,0.6369178891181946,1.2893710136413574,0.810687780380249,104.62548828125,-42.238037109375,256.234375
1700074907,0.966278076171875,0.091552734375,-0.278839111328125,0.6631678342819214,1.326393723487854,0.874791145324707,106.21255493164062,-43.65255737304688,257.61285400390625
1700074907,0.884796142578125,-0.004608154296875,-0.42529296875,0.5606372356414795,1.3270670175552368,1.0088067054748535,106.93621826171876,-44.73384094238281,259.1796569824219
1700074907,0.8396453857421875,-0.0150604248046875,-0.5593719482421875,0.4644598066806793,1.3617395162582395,1.145134210586548,107.89471435546876,-46.32441711425781,260.7936096191406
1700074907,0.862701416015625,0.0339508056640625,-0.5780181884765625,0.4075986742973327,1.3887029886245728,1.22819185256958,109.0986328125,-47.77720642089844,262.21270751953125
1700074907,0.9339141845703124,0.104461669921875,-0.469879150390625,0.474381685256958,1.432417631149292,1.2477359771728516,109.59222412109376,-48.99617004394531,263.6175537109375
1700074907,0.9703521728515624,0.1147003173828125,-0.4076690673828125,0.5504359602928162,1.442717671394348,1.2713252305984497,110.63682556152344,-49.91697692871094,265.0235900878906
1700074907,0.832275390625,0.12353515625,-0.5123138427734375,0.5444758534431458,1.370848536491394,1.2906445264816284,110.93301391601562,-51.09222412109375,265.8392333984375
1700074907,0.66815185546875,0.181304931640625,-0.6200714111328125,0.4881893694400787,1.304027795791626,1.2824771404266355,111.547607421875,-52.29515075683594,267.1864318847656
1700074907,0.5673065185546875,0.308135986328125,-0.670013427734375,0.4481809735298157,1.294253706932068,1.265706181526184,112.03794860839844,-53.58013916015625,268.19732666015625
1700074907,0.6511077880859375,0.4178619384765625,-0.583099365234375,0.5336180925369263,1.32600736618042,1.266170859336853,112.11106872558594,-54.51187133789063,269.3441772460937
1700074907,0.8557586669921875,0.4021759033203125,-0.4949798583984375,0.6360217332839966,1.3315829038619995,1.3539063930511477,112.62786865234376,-55.68182373046875,270.5296630859375
1700074907,1.0457000732421875,0.3198089599609375,-0.498046875,0.6479702591896057,1.3580243587493896,1.5284078121185305,112.689453125,-56.54757690429688,271.7027587890625
1700074907,1.14556884765625,0.2484130859375,-0.573699951171875,0.6128641963005066,1.3778820037841797,1.7068073749542236,112.81369018554688,-57.322601318359375,272.4686889648437
1700074907,1.271087646484375,0.17938232421875,-0.588134765625,0.5975475907325745,1.3988916873931885,1.89400053024292,113.2290496826172,-58.03810119628906,273.3685913085937
1700074907,1.26177978515625,0.1269989013671875,-0.5528717041015625,0.5573969483375549,1.4112505912780762,2.0187084674835205,113.49050903320312,-58.99449157714844,273.8939208984375
1700074907,0.9937896728515624,0.1376953125,-0.613525390625,0.5355179905891418,1.3741437196731567,2.0081944465637207,113.5838623046875,-59.778594970703125,274.4490051269531
1700074907,0.7402191162109375,0.2572174072265625,-0.6896820068359375,0.6024467349052429,1.3567548990249634,1.8959581851959229,113.71507263183594,-60.243499755859375,275.1871337890625
1700074907,0.63299560546875,0.4051666259765625,-0.66217041015625,0.7292922735214233,1.3609994649887085,1.7485058307647705,113.69436645507812,-60.660919189453125,275.6797790527344
1700074907,0.6393890380859375,0.52716064453125,-0.60662841796875,0.8663601279258728,1.359733819961548,1.65931236743927,113.8698272705078,-61.12919616699219,276.6878662109375
1700074907,0.79345703125,0.6066436767578125,-0.629058837890625,0.9388838410377502,1.3688008785247805,1.6929703950881958,114.22312927246094,-61.51631164550781,277.3043212890625
1700074907,1.0326080322265625,0.6409759521484375,-0.66094970703125,0.8737466335296631,1.3682562112808228,1.8551537990570068,113.847900390625,-61.93699645996094,277.0549011230469
1700074907,1.3962860107421875,0.630859375,-0.62158203125,0.7225465178489685,1.3576552867889404,2.092277765274048,114.14842224121094,-62.29441833496094,277.3168334960937
1700074907,1.7108917236328125,0.553131103515625,-0.5951995849609375,0.4997570812702179,1.3006417751312256,2.351034164428711,114.27114868164062,-62.60127258300781,277.7757568359375
1700074907,1.8601837158203125,0.43170166015625,-0.6228485107421875,0.2818205058574676,1.1804858446121216,2.563075542449951,114.49845886230467,-62.12147521972656,278.21905517578125
1700074907,1.8887786865234373,0.334564208984375,-0.6536102294921875,0.1299087256193161,1.0176178216934204,2.679443359375,114.66905212402344,-62.25616455078125,278.3467712402344
1700074907,1.8055267333984373,0.295501708984375,-0.714080810546875,0.0270278882235288,0.7623546123504639,2.5558552742004395,114.68016052246094,-62.33265686035156,278.04620361328125
1700074907,1.696014404296875,0.262359619140625,-0.6490936279296875,-0.1192813888192176,0.4493138790130615,2.2258667945861816,115.08683776855467,-61.83370971679688,278.4952392578125
1700074907,1.539306640625,0.1849822998046875,-0.4538726806640625,-0.1076590865850448,0.1483617722988128,1.8478518724441528,115.05435180664062,-61.89111328125,278.5303955078125
1700074907,1.2849273681640625,0.083984375,-0.2912445068359375,0.0844427123665809,0.4413284063339233,1.3698538541793823,115.22654724121094,-61.44071960449219,278.7296142578125
1700074907,0.7489166259765625,-0.0839691162109375,-0.6821746826171875,0.2906810939311981,0.4854050576686859,0.8197779655456543,115.40728759765624,-61.16029357910156,278.7631530761719
1700074907,0.29974365234375,-0.304443359375,-0.900543212890625,-0.1592309325933456,0.4633519351482391,0.8330037593841553,115.6659698486328,-60.31864929199219,278.1007080078125
1700074907,-0.25714111328125,-0.0532989501953125,-0.975738525390625,-0.6379575729370117,0.2045736461877823,0.5707314014434814,115.9143524169922,-59.43321228027344,278.0008850097656
1700074907,-0.5216217041015625,-0.0359649658203125,-0.7518768310546875,-0.2750068008899688,-0.3881139159202575,-0.0689345896244049,116.343505859375,-59.20166015625,276.98004150390625
1700074907,-0.352508544921875,-0.3133392333984375,0.138946533203125,0.2779253721237182,-0.9828163981437684,-0.6231243014335632,116.83023071289062,-58.20243835449219,275.1895751953125
1700074907,-0.304107666015625,-0.35235595703125,0.7534637451171875,0.3250356018543243,-1.3750030994415283,-0.9265094995498656,117.26119995117188,-57.47843933105469,273.689208984375
1700074907,-0.089324951171875,-0.04193115234375,0.5630645751953125,0.2592757642269134,-1.7466394901275637,-1.5664966106414795,117.67713928222656,-57.00889587402344,274.2486267089844
1700074907,0.296417236328125,-0.2197418212890625,0.213958740234375,0.2970316708087921,-2.148172616958618,-2.1234219074249268,118.1024169921875,-58.37455749511719,273.8636474609375
1700074907,0.421661376953125,-0.5465240478515625,0.144073486328125,0.2247521579265594,-2.307524919509888,-2.329861879348755,118.7255401611328,-58.46739196777344,272.8902587890625
1700074907,0.4293975830078125,-0.5572967529296875,0.1194610595703125,-0.2169898301362991,-2.352290630340576,-2.295222759246826,118.94880676269533,-58.178985595703125,272.0771484375
1700074907,0.4513397216796875,-0.3650970458984375,0.0087738037109375,-0.8853287696838379,-2.4665720462799072,-2.284440994262696,119.29542541503906,-58.13568115234375,271.236328125
1700074907,0.5532989501953125,-0.2283172607421875,-0.075592041015625,-1.39548659324646,-2.6719412803649902,-2.362515687942505,119.29550170898438,-57.9310302734375,271.2696533203125
1700074907,0.634674072265625,-0.1674652099609375,-0.1721954345703125,-1.5659000873565674,-2.8729496002197266,-2.517915725708008,119.47372436523438,-57.46257019042969,270.098876953125
1700074907,0.70574951171875,-0.1403961181640625,-0.249664306640625,-1.4711568355560305,-2.9792072772979736,-2.701352834701538,119.73956298828124,-57.27165222167969,269.7072448730469
1700074907,0.77484130859375,-0.028167724609375,-0.3412933349609375,-1.3275165557861328,-3.104832649230957,-2.881419897079468,119.71055603027344,-56.50001525878906,269.2948913574219
1700074907,0.8307647705078125,0.2057952880859375,-0.46356201171875,-1.193454384803772,-3.3057971000671387,-3.1628317832946777,119.78445434570312,-56.03764343261719,269.0293273925781
1700074907,0.968170166015625,0.389007568359375,-0.4919586181640625,-1.0406414270401,-3.473390579223633,-3.4194116592407227,119.81190490722656,-55.410552978515625,267.9257202148437
1700074907,1.1125335693359375,0.4975738525390625,-0.427734375,-0.8544853329658508,-3.5008318424224854,-3.5159225463867188,119.5364990234375,-55.16450500488281,267.4452514648437
1700074907,1.1056060791015625,0.5547332763671875,-0.4317626953125,-0.4267414808273315,-3.4704248905181885,-3.433751344680786,119.18630981445312,-53.93942260742188,266.0497436523437
1700074907,1.0008392333984375,0.5576324462890625,-0.514892578125,0.1612706482410431,-3.449308395385742,-3.319896697998047,118.82603454589844,-53.25993347167969,265.1451110839844
1700074907,0.9901123046875,0.527679443359375,-0.593414306640625,0.5902233123779297,-3.462443590164185,-3.306398868560791,118.5758056640625,-52.66905212402344,265.0158996582031
1700074907,1.0976409912109375,0.472412109375,-0.61907958984375,0.6185905337333679,-3.347084283828736,-3.340525388717652,118.55166625976562,-52.59413146972656,264.50958251953125
1700074907,1.20416259765625,0.466461181640625,-0.691558837890625,0.2421306073665619,-3.107759714126587,-3.335522413253784,118.73371887207033,-52.25907897949219,264.5760803222656
1700074907,1.21478271484375,0.5037994384765625,-0.89617919921875,-0.2748507261276245,-2.924699544906616,-3.16733717918396,118.28785705566406,-51.81037902832031,264.7391967773437
1700074907,1.18585205078125,0.5739898681640625,-1.085296630859375,-0.5732901692390442,-2.782494306564331,-2.909038543701172,118.5176239013672,-52.21501159667969,264.6478271484375
1700074907,1.177825927734375,0.644775390625,-1.0795745849609375,-0.6251163482666016,-2.7019333839416504,-2.631333112716675,118.76936340332033,-52.16778564453125,265.3861389160156
1700074907,1.2140045166015625,0.7276611328125,-0.9540557861328124,-0.4782094657421112,-2.5676393508911133,-2.392944812774658,118.72404479980467,-52.29293823242188,265.2337951660156
1700074907,1.21533203125,0.80712890625,-0.845245361328125,-0.2812836170196533,-2.370979070663452,-2.311787366867065,118.73684692382812,-52.52777099609375,264.7709045410156
1700074907,1.20208740234375,0.8084564208984375,-0.767608642578125,-0.1193359792232513,-2.180682897567749,-2.2729406356811523,118.49449157714844,-52.88589477539063,264.8397827148437
1700074907,1.1536407470703125,0.7826080322265625,-0.644439697265625,0.0193262938410043,-2.019098281860352,-2.220795154571533,118.5244598388672,-52.48982238769531,265.3682556152344
1700074907,1.0772552490234375,0.696014404296875,-0.564727783203125,0.1611606627702713,-1.8789904117584229,-2.0384554862976074,118.8115692138672,-52.44581604003906,265.25787353515625
1700074907,0.9952545166015624,0.56866455078125,-0.522796630859375,0.2227379977703094,-1.7349834442138672,-1.7759462594985962,118.452392578125,-52.08369445800781,265.14080810546875
1700074907,0.990325927734375,0.4743804931640625,-0.5458984375,0.2394080609083175,-1.588037610054016,-1.5381110906600952,118.4585418701172,-52.2135009765625,265.06793212890625
1700074907,1.0199737548828125,0.392791748046875,-0.5467071533203125,0.3187199234962463,-1.4490413665771484,-1.3638635873794556,118.45182800292967,-52.07179260253906,265.3597717285156
1700074907,1.0245361328125,0.3640594482421875,-0.5216217041015625,0.3884585201740265,-1.2936089038848877,-1.198712706565857,118.55699157714844,-51.62794494628906,265.020751953125
1700074907,0.984344482421875,0.4019622802734375,-0.5069732666015625,0.4072495400905609,-1.1210936307907104,-1.0103002786636353,118.77359008789062,-51.58906555175781,265.2742919921875
1700074907,0.919586181640625,0.446624755859375,-0.48968505859375,0.368130087852478,-0.9418959021568298,-0.8292620182037354,118.28848266601562,-51.71556091308594,265.37860107421875
1700074907,0.8509979248046875,0.4502105712890625,-0.4647369384765625,0.3230315744876861,-0.737454891204834,-0.6719232797622681,118.34799194335938,-51.67823791503906,265.043701171875
1700074907,0.7719879150390625,0.3969573974609375,-0.411468505859375,0.2956375181674957,-0.5122544765472412,-0.5424821972846985,118.2064971923828,-51.28462219238281,264.7750244140625
1700074907,0.726715087890625,0.2764129638671875,-0.333740234375,0.2621557116508484,-0.3339726626873016,-0.4590312242507934,118.1880340576172,-50.92201232910156,264.045654296875
1700074907,0.750518798828125,0.15380859375,-0.23773193359375,0.2417817413806915,-0.2554773092269897,-0.4012731313705444,117.59925842285156,-50.88739013671875,264.2877197265625
1700074907,0.812225341796875,0.0772247314453125,-0.1313934326171875,0.1995586454868316,-0.2376969754695892,-0.3474956452846527,117.7667236328125,-50.36854553222656,263.5964660644531
1700074907,0.8918914794921875,0.0248870849609375,-0.0549774169921875,0.1198209449648857,-0.2075537294149398,-0.235993355512619,117.6848602294922,-49.95481872558594,263.45428466796875
1700074907,0.923553466796875,0.0347137451171875,-0.0520477294921875,0.0135642783716321,-0.1958379447460174,-0.1162080988287925,117.62051391601562,-49.69831848144531,262.549072265625
1700074907,0.9490966796875,0.07855224609375,-0.0784912109375,-0.0101144192740321,-0.1548710763454437,-0.0435157865285873,116.78668212890624,-49.16232299804688,262.6413879394531
1700074907,0.8768463134765625,0.0736846923828125,-0.09332275390625,0.0471864193677902,-0.0724635496735572,0.0429179072380065,117.10195922851562,-48.632232666015625,262.115478515625
1700074907,0.769287109375,0.069091796875,-0.0898895263671875,0.0815904662013053,0.0422635674476623,0.1741949617862701,116.69621276855467,-48.46467590332031,261.9793701171875
1700074907,0.6876220703125,0.0712432861328125,-0.0800933837890625,0.0028975191526114,0.2158097922801971,0.2823491394519806,116.56930541992188,-47.93914794921875,261.4061279296875
1700074907,0.6548919677734375,0.0313568115234375,-0.1179656982421875,-0.1469755917787552,0.3535982668399811,0.3707298636436462,116.37608337402344,-47.46917724609375,260.91650390625
1700074907,0.6699676513671875,-0.0179901123046875,-0.1470184326171875,-0.3339787721633911,0.4738557040691376,0.4605857133865356,116.03048706054688,-47.07440185546875,260.35479736328125
1700074907,0.7104949951171875,-0.049530029296875,-0.18170166015625,-0.5283802151679993,0.6172666549682617,0.5728437900543213,115.73933410644533,-46.55696105957031,259.53271484375
1700074907,0.7408447265625,-0.0583038330078125,-0.2548065185546875,-0.7766209244728088,1.018626093864441,0.7128877639770508,115.161376953125,-45.81916809082031,259.0302734375
1700074907,0.79205322265625,-0.0324554443359375,-0.523529052734375,-0.8390824198722839,1.4303343296051023,0.626737654209137,115.0916748046875,-45.47050476074219,258.66387939453125
1700074907,0.6690826416015625,-0.097259521484375,-0.9368133544921876,-0.8831121921539307,1.6399234533309937,1.010096549987793,114.5382843017578,-44.68760681152344,258.2702331542969
1700074907,0.6571197509765625,0.1112213134765625,-1.0242462158203125,-0.6267515420913696,3.824442386627197,1.338395595550537,114.04034423828124,-44.27738952636719,257.7606201171875
1700074907,0.2904052734375,0.2638397216796875,-2.706451416015625,-0.3915800154209137,1.9920154809951784,1.584452509880066,113.89552307128906,-43.21310424804688,257.0985107421875
1700074907,0.5820159912109375,0.4459381103515625,-1.6439361572265625,0.0526858493685722,-0.1283736824989318,1.1992262601852417,113.46760559082033,-42.64109802246094,256.4658508300781
1700074907,3.26824951171875,-0.129669189453125,1.5985260009765625,1.2999552488327026,1.7718024253845217,-0.0933251529932022,113.16262817382812,-41.842559814453125,256.0594482421875
1700074908,3.0712890625,-1.2015228271484375,1.251251220703125,0.8649997711181641,2.1603503227233887,0.1313811987638473,112.49517822265624,-41.183502197265625,255.05178833007807
1700074908,1.2666473388671875,-0.56256103515625,0.5087738037109375,1.1627496480941772,1.7172541618347168,0.7532865405082703,111.60823059082033,-40.85226440429688,254.50946044921875
1700074908,0.8631134033203125,-0.3131561279296875,0.272979736328125,0.8189185857772827,1.367782711982727,1.0152387619018557,111.20138549804688,-39.98112487792969,254.0288848876953
1700074908,0.848388671875,-0.310791015625,0.043853759765625,0.0476492792367935,1.2342071533203125,0.7798643708229065,110.71841430664062,-39.022064208984375,253.6949615478516
1700074908,1.0838775634765625,-0.379058837890625,-0.2419586181640625,-0.5494338274002075,1.2366644144058228,0.5689915418624878,110.02067565917967,-38.45066833496094,253.2296295166016
1700074908,1.400238037109375,-0.4531402587890625,-0.266815185546875,-0.7029792070388794,1.121381759643555,0.8678627014160156,109.43167114257812,-37.60357666015625,252.5885162353516
1700074908,1.57470703125,-0.0926055908203125,-0.2693634033203125,-0.7915617823600769,0.9634203314781188,1.2082573175430298,108.83621215820312,-36.72427368164063,252.21441650390625
1700074908,1.617156982421875,0.3365936279296875,-0.2569580078125,-0.9211717247962952,0.9170323610305786,1.1051691770553589,107.73135375976562,-35.802459716796875,251.88082885742188
1700074908,1.462432861328125,0.564239501953125,-0.1883544921875,-0.940541923046112,0.7783809900283813,0.827570915222168,106.97795104980467,-35.020843505859375,251.879135131836
1700074908,1.241455078125,0.7077178955078125,0.0345458984375,-0.9819537997245787,0.8818354606628418,0.7753868103027344,105.5197296142578,-33.79167175292969,250.9219970703125
1700074908,1.1643829345703125,0.5442352294921875,0.183929443359375,-0.9857797026634216,1.0163384675979614,0.6303582191467285,104.58644104003906,-33.00904846191406,250.1814117431641
1700074908,1.528717041015625,-0.004730224609375,0.0687713623046875,-0.2404402941465377,1.129127860069275,0.4839134216308594,103.96527099609376,-32.22962951660156,249.8412933349609
1700074908,1.80377197265625,-0.3591766357421875,-0.1983795166015625,0.4179983139038086,0.8395820260047913,0.8807313442230225,102.75645446777344,-31.275924682617188,249.5649261474609
1700074908,1.562774658203125,0.0247955322265625,-0.592803955078125,0.2635786533355713,0.2863348126411438,1.1186957359313965,101.73773193359376,-30.424545288085938,248.87643432617188
1700074908,1.2105255126953125,0.367889404296875,-0.8861083984375,-0.1309271305799484,-0.0900816917419433,0.7286427617073059,100.9435577392578,-29.651031494140625,248.924560546875
1700074908,1.056640625,0.4084625244140625,-0.7152252197265625,-0.2439434230327606,0.0136396456509828,0.2227372080087661,99.73143005371094,-28.8792724609375,249.0460968017578
1700074908,0.878509521484375,0.4757080078125,-0.2736663818359375,0.113088734447956,0.1996020525693893,0.0548781640827655,98.65968322753906,-27.956771850585938,248.49905395507807
1700074908,0.6704864501953125,0.3914337158203125,-0.055511474609375,0.3447600603103637,0.1486888080835342,0.0875676646828651,96.75367736816406,-27.16098022460937,247.9208831787109
1700074908,0.736358642578125,0.1193084716796875,-0.27960205078125,0.4213336408138275,0.1006523072719574,0.2338593602180481,95.04147338867188,-26.46357727050781,248.5228729248047
1700074908,0.899658203125,-0.0411376953125,-0.392578125,0.347801923751831,0.1221221834421157,0.3932926952838897,93.34661865234376,-25.5692138671875,247.74253845214844
1700074908,0.976959228515625,-0.10638427734375,-0.3361968994140625,0.1130178943276405,0.1910035163164138,0.4423401355743408,91.96815490722656,-24.92901611328125,247.79031372070312
1700074908,1.04241943359375,-0.190093994140625,-0.227294921875,-0.1027681902050972,0.3117496371269226,0.525867760181427,90.39215087890624,-24.6119384765625,247.28955078125
1700074908,1.0098724365234375,-0.2200927734375,-0.144622802734375,-0.1086063683032989,0.3850046694278717,0.6493926644325256,89.0050048828125,-24.44911193847656,247.22674560546875
1700074908,0.8862762451171875,-0.164093017578125,-0.25189208984375,-0.0540840066969394,0.3334916830062866,0.7087364196777344,88.181396484375,-24.05819702148437,246.9368438720703
1700074908,0.8223876953125,-0.0353546142578125,-0.402801513671875,-0.0616825371980667,0.2600507438182831,0.6555373668670654,87.12248229980469,-23.63227844238281,246.8959197998047
1700074908,0.8170318603515625,0.1316680908203125,-0.4303741455078125,-0.0794732570648193,0.2440707236528396,0.5260169506072998,86.08760070800781,-23.802413940429688,246.7010192871093
1700074908,0.8460845947265625,0.259124755859375,-0.3827362060546875,0.027297668159008,0.2540213465690613,0.4201671779155731,85.50300598144531,-24.483551025390625,246.30401611328125
1700074908,0.8926544189453125,0.3083343505859375,-0.3300933837890625,0.2354178428649902,0.2888365983963012,0.3748633563518524,85.73178100585938,-24.319900512695312,246.10122680664065
1700074908,0.9492645263671876,0.239715576171875,-0.2783050537109375,0.4084551334381103,0.3632921874523163,0.405678778886795,85.56181335449219,-25.134994506835938,246.75997924804688
1700074908,0.96795654296875,0.1195068359375,-0.2514495849609375,0.4499650299549103,0.4755108654499054,0.5045784711837769,86.36294555664062,-25.294448852539062,247.0586853027344
1700074908,0.952117919921875,0.000396728515625,-0.232177734375,0.3821167349815368,0.6038528680801392,0.6564015746116638,87.30337524414062,-25.700454711914062,247.65565490722656
1700074908,0.9520721435546876,-0.1201324462890625,-0.18939208984375,0.2724272608757019,0.7492755651473999,0.8819712996482849,88.41270446777344,-26.490020751953125,248.26388549804688
1700074908,0.920013427734375,-0.1902923583984375,-0.20098876953125,0.1011889353394508,0.8625712394714355,1.1045135259628296,90.05279541015625,-27.29798889160156,249.56072998046875
1700074908,0.8875579833984375,-0.23828125,-0.24517822265625,-0.0169259868562221,0.938071310520172,1.2931681871414185,91.28030395507812,-27.742218017578125,249.7034454345703
1700074908,0.8014984130859375,-0.250335693359375,-0.33056640625,-0.0042573292739689,0.9574127793312072,1.417916178703308,92.54777526855467,-28.70307922363281,250.41159057617188
1700074908,0.6645355224609375,-0.0867462158203125,-0.455322265625,-0.0563282519578933,0.9509897828102112,1.413126826286316,93.90280151367188,-29.46766662597656,250.2681884765625
1700074908,0.6490936279296875,0.2447662353515625,-0.46087646484375,-0.1366681009531021,1.0163861513137815,1.241581916809082,95.14787292480467,-30.894805908203125,250.67567443847656
1700074908,0.8229827880859375,0.5081634521484375,-0.2830657958984375,0.0504125729203224,1.1642656326293943,1.011970281600952,96.65127563476562,-32.21070861816406,251.3299255371093
1700074908,1.0578460693359375,0.5697784423828125,-0.122833251953125,0.5881125330924988,1.3048388957977295,0.89555823802948,98.04795837402344,-33.213623046875,251.8652191162109
1700074908,1.1727447509765625,0.4019927978515625,-0.12701416015625,1.033277988433838,1.3670042753219604,0.9321521520614624,99.82589721679688,-34.44207763671875,252.73907470703125
1700074908,1.1537322998046875,0.158050537109375,-0.296539306640625,1.1733943223953247,1.3734169006347656,1.12015700340271,101.44442749023438,-36.3994140625,254.1937866210937
1700074908,1.0337677001953125,-0.0052032470703125,-0.385040283203125,1.0497688055038452,1.370700716972351,1.364769697189331,103.1962432861328,-37.619903564453125,254.6430053710937
1700074908,0.8202667236328125,-0.063751220703125,-0.454986572265625,0.7843262553215027,1.371049165725708,1.4990267753601074,104.08747863769533,-39.1768798828125,256.0310974121094
1700074908,0.6370391845703125,-0.0225677490234375,-0.554534912109375,0.6347870826721191,1.348487138748169,1.5275678634643557,105.55963134765624,-40.67208862304688,258.52081298828125
1700074908,0.55633544921875,0.18341064453125,-0.5233154296875,0.5018676519393921,1.349609613418579,1.4656901359558103,106.84934997558594,-42.107025146484375,260.070068359375
1700074908,0.612152099609375,0.5223236083984375,-0.4621429443359375,0.4490387737751007,1.362983226776123,1.297393798828125,107.8874053955078,-43.81852722167969,261.8496398925781
1700074908,0.8198699951171875,0.68756103515625,-0.36407470703125,0.6344012022018433,1.407893180847168,1.1534360647201538,108.29417419433594,-45.5133056640625,263.1206970214844
1700074908,0.924713134765625,0.612060546875,-0.4230804443359375,0.8566518425941467,1.39033842086792,1.081902027130127,109.22293090820312,-47.000579833984375,264.7649230957031
1700074908,0.9719390869140624,0.4133453369140625,-0.543548583984375,0.9500629901885986,1.3567663431167605,1.0950896739959717,109.74288940429688,-48.45524597167969,265.7831726074219
1700074908,1.001220703125,0.253997802734375,-0.58135986328125,0.9854838252067566,1.3448446989059448,1.2285382747650146,110.1732177734375,-49.89405822753906,266.8863525390625
1700074908,0.8939208984375,0.1678619384765625,-0.6103363037109375,0.953238308429718,1.34228777885437,1.3501834869384766,110.66178894042967,-50.953216552734375,268.2158203125
1700074908,0.9527130126953124,0.1178436279296875,-0.5995330810546875,0.9528489112854004,1.3359427452087402,1.485770583152771,111.11131286621094,-52.39689636230469,269.220947265625
1700074908,1.0186004638671875,0.155792236328125,-0.5978546142578125,0.8907197713851929,1.3053041696548462,1.6928369998931885,111.27210998535156,-53.68974304199219,270.3445739746094
1700074908,1.0514373779296875,0.312408447265625,-0.5841064453125,0.8091031908988953,1.284242868423462,1.746612310409546,111.57301330566406,-54.66796875,271.444580078125
1700074908,1.1892547607421875,0.3502044677734375,-0.6261138916015625,0.8479834794998169,1.2506822347640991,1.8178143501281736,111.94313049316406,-55.81773376464844,272.4851989746094
1700074908,1.2340850830078125,0.358001708984375,-0.6361541748046875,0.8860070705413818,1.160435914993286,1.908063292503357,111.78639221191406,-56.99983215332031,273.19512939453125
1700074908,1.2493896484375,0.3749542236328125,-0.68170166015625,0.9136956930160522,1.0606129169464111,2.007927656173706,111.90364074707033,-57.460845947265625,274.2845764160156
1700074908,1.2428436279296875,0.4227294921875,-0.691558837890625,0.9585012197494508,0.9883233308792114,2.100144863128662,112.0186004638672,-58.1610107421875,275.04718017578125
1700074908,1.3466033935546875,0.4759521484375,-0.664154052734375,0.9616740942001344,0.8849878907203674,2.1949501037597656,112.05419921875,-58.80108642578125,275.35302734375
1700074908,1.5079803466796875,0.50811767578125,-0.6443023681640625,0.8369673490524292,0.7788524031639099,2.271159648895264,112.03289794921876,-59.70228576660156,276.3392333984375
1700074908,1.6572113037109375,0.4581756591796875,-0.587615966796875,0.511820912361145,0.6575952172279358,2.349987268447876,112.08645629882812,-60.44659423828125,276.5809326171875
1700074908,1.7565765380859375,0.364715576171875,-0.5406646728515625,0.1092756241559982,0.4850569665431976,2.3230721950531006,111.99746704101562,-60.73155212402344,278.2242126464844
1700074908,1.7561492919921875,0.2163543701171875,-0.559326171875,-0.1679421365261078,0.2945466935634613,2.164384126663208,111.73478698730467,-61.18623352050781,278.2049865722656
1700074908,1.598480224609375,0.079833984375,-0.654571533203125,-0.2910363674163818,-0.0014748586108908,1.8755921125411987,111.80206298828124,-61.52647399902344,278.5779724121094
1700074908,1.3035888671875,-0.042755126953125,-0.60052490234375,-0.3242582380771637,-0.2362122684717178,1.5637508630752563,111.99253845214844,-61.7984619140625,278.1886291503906
1700074908,0.919952392578125,-0.1292877197265625,-0.4046478271484375,-0.1318898499011993,-0.1408095806837082,1.117719054222107,112.01229858398438,-61.59458923339844,279.1566162109375
1700074908,0.505859375,-0.2401885986328125,-0.4205474853515625,0.3048520386219024,-0.1406995952129364,0.5800665616989136,111.57150268554688,-62.128173828125,279.46173095703125
1700074908,0.1893310546875,-0.3509674072265625,-0.3007354736328125,0.5266352891921997,-0.3157781958580017,0.4499402642250061,111.89210510253906,-62.24223327636719,279.35089111328125
1700074908,-0.1656341552734375,-0.0479736328125,-0.1063232421875,0.4153223633766174,-0.665808379650116,0.2625986039638519,111.86466979980467,-62.22914123535156,279.8622131347656
1700074908,-0.3724365234375,0.26556396484375,-0.0485076904296875,0.5370602607727051,-1.1905701160430908,-0.3361215591430664,111.92623901367188,-61.97979736328125,279.5550231933594
1700074908,-0.23583984375,0.2108154296875,0.25628662109375,0.6125891208648682,-1.4115419387817385,-1.1863011121749878,112.06306457519533,-62.35447692871094,279.87774658203125
1700074908,-0.1129608154296875,-0.1283416748046875,0.2183685302734375,0.525041401386261,-1.5833121538162231,-1.8212740421295168,112.25453186035156,-62.342193603515625,279.8021850585937
1700074908,-0.166473388671875,-0.442352294921875,-0.0324554443359375,0.2651919722557068,-1.7317558526992798,-2.241785287857056,111.693115234375,-61.91123962402344,279.9594116210937
1700074908,-0.0156707763671875,-0.712066650390625,-0.0327606201171875,-0.1206124350428581,-1.7798558473587036,-2.640941858291626,112.08705139160156,-62.06455993652344,279.5872802734375
1700074908,0.306793212890625,-0.93438720703125,0.013885498046875,-0.724755048751831,-1.8231319189071653,-2.8898911476135254,111.66091918945312,-61.42024230957031,279.5831298828125
1700074908,0.5673065185546875,-0.9505462646484376,-0.0013885498046875,-1.4690598249435425,-1.9108515977859497,-2.811366319656372,111.69610595703124,-61.11260986328125,279.3150634765625
1700074908,0.63653564453125,-0.6074371337890625,-0.1511077880859375,-2.019223213195801,-2.063920497894287,-2.7803876399993896,111.85157775878906,-60.7777099609375,278.3256225585937
1700074908,0.7228546142578125,-0.3260040283203125,-0.23040771484375,-2.229135751724243,-2.252583742141724,-2.9379711151123047,112.32432556152344,-60.120635986328125,278.0286865234375
1700074908,0.8505859375,-0.11773681640625,-0.2786407470703125,-2.107874870300293,-2.4923548698425293,-3.17956805229187,111.98648071289062,-59.32682800292969,276.2018737792969
1700074908,0.966400146484375,0.1351165771484375,-0.3095550537109375,-1.8587894439697263,-2.7767317295074463,-3.40295934677124,112.37974548339844,-58.44390869140625,275.0736694335937
1700074908,1.1154937744140625,0.43017578125,-0.2970123291015625,-1.6297112703323364,-2.984739303588867,-3.608922481536865,112.70158386230467,-58.997161865234375,275.67987060546875
1700074908,1.239959716796875,0.7313995361328125,-0.3353271484375,-1.2145694494247437,-3.1178855895996094,-3.775509834289551,112.85791015625,-59.05685424804688,274.96368408203125
1700074908,1.2511749267578125,0.970123291015625,-0.3551025390625,-0.2526434361934662,-3.23077392578125,-3.8193225860595694,113.11553955078124,-59.11538696289063,273.7291259765625
1700074908,1.128265380859375,1.078643798828125,-0.3045654296875,0.924241542816162,-3.233031988143921,-3.8633134365081774,113.06333923339844,-58.67428588867188,273.08184814453125
1700074908,1.0784912109375,0.9831390380859376,-0.31219482421875,1.429720401763916,-3.186180353164673,-3.96047568321228,113.25091552734376,-58.42115783691406,272.62628173828125
1700074908,1.1061248779296875,0.7928619384765625,-0.4568328857421875,1.1830544471740725,-3.154239654541016,-3.987671136856079,113.03663635253906,-58.33644104003906,272.0479431152344
1700074908,1.166015625,0.66802978515625,-0.6267242431640625,0.4890972673892975,-3.0943174362182617,-3.807643413543701,113.1483154296875,-58.01325988769531,271.7305908203125
1700074908,1.179351806640625,0.6077880859375,-0.7397918701171875,-0.3084878027439117,-2.984648466110229,-3.4482924938201904,112.80763244628906,-57.29806518554688,270.9295959472656
1700074908,1.158905029296875,0.5877838134765625,-0.7745208740234375,-0.9450621008872986,-2.832676887512207,-2.9871814250946045,112.84454345703124,-57.238677978515625,270.1543273925781
1700074908,1.165435791015625,0.6095428466796875,-0.78167724609375,-1.3055707216262815,-2.63126540184021,-2.5045785903930664,112.71907043457033,-56.73448181152344,269.3992919921875
1700074908,1.239898681640625,0.6764068603515625,-0.8564605712890625,-1.541728138923645,-2.479947090148926,-2.1609137058258057,112.4002685546875,-56.27845764160156,269.11962890625
1700074908,1.3293304443359375,0.7505950927734375,-0.9269561767578124,-1.6051260232925415,-2.38142466545105,-1.9738713502883911,112.3262939453125,-55.75987243652344,268.9654541015625
1700074908,1.3714752197265625,0.786376953125,-0.85089111328125,-1.604180932044983,-2.266188144683838,-1.906245470046997,112.13104248046876,-55.55107116699219,268.1402587890625
1700074908,1.358245849609375,0.8205108642578125,-0.728515625,-1.438361883163452,-2.068933725357056,-1.838551044464112,112.31959533691406,-54.762237548828125,267.48541259765625
1700074908,1.2319183349609375,0.8271942138671875,-0.580810546875,-1.0391638278961182,-1.8379148244857788,-1.688185214996338,111.36769104003906,-54.2259521484375,267.0955505371094
1700074908,1.0762939453125,0.76031494140625,-0.4747467041015625,-0.6307340264320374,-1.603882074356079,-1.5259175300598145,111.3790283203125,-53.84417724609375,266.867919921875
1700074908,0.9624481201171876,0.6227874755859375,-0.4468536376953125,-0.2110475301742553,-1.376517415046692,-1.3745921850204468,111.66098022460938,-53.45158386230469,266.43865966796875
1700074908,0.8285064697265625,0.5273590087890625,-0.4125823974609375,0.206382468342781,-1.1790021657943726,-1.2675349712371826,111.52302551269533,-53.43251037597656,266.5746459960937
1700074908,0.7553558349609375,0.4843292236328125,-0.3744049072265625,0.6012581586837769,-1.0050455331802368,-1.1294535398483276,111.22305297851562,-53.70915222167969,266.61474609375
1700074908,0.74029541015625,0.512847900390625,-0.3201751708984375,0.939352810382843,-0.7942097783088684,-0.9912256002426147,111.27032470703124,-53.47915649414063,267.4133605957031
1700074909,0.7570648193359375,0.5136260986328125,-0.305694580078125,1.20704448223114,-0.5759932994842529,-0.8897711634635925,111.25927734375,-53.36920166015625,267.03662109375
1700074909,0.7825164794921875,0.4647979736328125,-0.304779052734375,1.3486005067825315,-0.3654655814170837,-0.7851837873458862,111.5034637451172,-53.082427978515625,266.85528564453125
1700074909,0.8006591796875,0.4023590087890625,-0.3166656494140625,1.378324031829834,-0.2201968133449554,-0.685681164264679,111.2494659423828,-53.060943603515625,266.78436279296875
1700074909,0.8409576416015625,0.3052825927734375,-0.31396484375,1.3251279592514038,-0.0879817903041839,-0.5773751735687256,111.03703308105467,-52.61363220214844,266.52032470703125
1700074909,0.8137969970703125,0.212249755859375,-0.3087615966796875,1.2289124727249146,-0.0052016861736774,-0.4599668085575104,110.99293518066406,-52.386993408203125,266.71124267578125
1700074909,0.79815673828125,0.1373748779296875,-0.25311279296875,1.109697937965393,0.0621491260826587,-0.3233980238437652,110.80598449707033,-51.71652221679688,266.351318359375
1700074909,0.7990264892578125,0.087249755859375,-0.1710968017578125,0.9905579686164856,0.1211448013782501,-0.1862723976373672,110.2869110107422,-51.715606689453125,266.1953125
1700074909,0.7989044189453125,0.0638275146484375,-0.11956787109375,0.8844549655914307,0.145099401473999,-0.0820772945880889,110.23005676269533,-51.412841796875,265.6048583984375
1700074909,0.7954864501953125,0.0372467041015625,-0.088104248046875,0.8025891184806824,0.1135444045066833,-0.0372893139719963,110.04502868652344,-51.447998046875,265.8323974609375
1700074909,0.8376007080078125,-0.0063934326171875,-0.03643798828125,0.782146692276001,0.0192165710031986,-0.067554272711277,109.73135375976562,-51.01478576660156,266.29351806640625
1700074909,0.8846282958984375,-0.0569000244140625,0.059173583984375,0.744251549243927,0.0128414966166019,-0.0637094676494598,110.09190368652344,-50.91313171386719,265.4755249023437
1700074909,0.8698272705078125,-0.066558837890625,0.10137939453125,0.6269182562828064,0.1595931202173233,0.0822272300720214,109.83723449707033,-50.31124877929688,265.4210205078125
1700074909,0.815460205078125,0.0229949951171875,-0.0122222900390625,0.4109292030334472,0.4046883583068847,0.4076311588287353,109.39060974121094,-49.93316650390625,265.57257080078125
1700074909,0.715850830078125,0.2135467529296875,-0.3023223876953125,0.3802461326122284,0.5258100032806396,0.5861183404922485,109.3918914794922,-49.88441467285156,264.93218994140625
1700074909,0.8050689697265625,0.273712158203125,-0.4619140625,0.6622165441513062,0.8245911002159119,0.4089214503765106,109.17379760742188,-49.24359130859375,264.9482421875
1700074909,0.9802398681640624,0.14666748046875,-0.6068115234375,1.1333441734313965,0.9881659150123596,0.0016796556301414,108.6837158203125,-48.56919860839844,264.2433166503906
1700074909,0.89105224609375,0.0469970703125,-0.8072662353515625,1.128262281417847,0.5992655754089355,-0.1143015399575233,108.2916259765625,-48.439788818359375,263.5209350585937
1700074909,1.318603515625,0.068817138671875,-0.3385467529296875,0.861113965511322,2.001887798309326,-0.0213210005313158,107.79568481445312,-47.41117858886719,263.1990966796875
1700074909,1.208404541015625,-0.0047607421875,-1.2497406005859375,0.4116610586643219,2.2790443897247314,0.2132997661828994,107.32838439941406,-47.18333435058594,263.0242919921875
1700074909,0.6177825927734375,0.0010223388671875,-1.738372802734375,0.4496353268623352,0.3869178891181946,0.217819944024086,106.85995483398438,-46.6473388671875,262.8760986328125
1700074909,1.8294677734375,-0.3834075927734375,0.2754058837890625,1.3419705629348757,0.3956280350685119,-0.6358765959739685,106.46849060058594,-45.75590515136719,261.8348999023437
1700074909,2.526702880859375,-1.3607025146484375,1.1468048095703125,0.9616022109985352,1.609942078590393,-0.0358829014003276,106.31794738769533,-45.82415771484375,261.43780517578125
1700074909,1.341033935546875,-1.2297821044921875,0.6637115478515625,0.8042402863502502,1.4444820880889893,0.7628651261329651,106.12355041503906,-45.14726257324219,260.96240234375
1700074909,0.72918701171875,-0.8096771240234375,0.439697265625,0.6116876006126404,1.256001114845276,1.108816385269165,104.97122192382812,-44.62123107910156,260.7977294921875
1700074909,0.9411773681640624,-0.3342132568359375,0.2255096435546875,-0.3035628199577331,1.066357135772705,1.2759000062942505,104.5374755859375,-43.6875,260.6995544433594
1700074909,1.1084747314453125,0.1358489990234375,-0.055145263671875,-0.6135968565940857,1.009509801864624,0.9900618195533752,103.97569274902344,-43.020416259765625,259.927978515625
1700074909,1.324615478515625,0.1466064453125,-0.0705413818359375,-0.5885663032531738,0.8863385915756226,0.6231224536895752,103.642333984375,-42.44932556152344,259.635009765625
1700074909,1.401885986328125,0.1870269775390625,-0.166748046875,-0.5824090838432312,0.7316824793815613,0.4660707712173462,102.71517944335938,-41.49966430664063,259.2450561523437
1700074909,1.3950653076171875,0.2667236328125,-0.2126007080078125,-0.5021651387214661,0.3569842278957367,0.4210329949855804,102.31990051269533,-41.335723876953125,258.598876953125
1700074909,1.37744140625,0.17926025390625,0.081695556640625,-0.6988790035247803,0.4747180342674255,0.5168939828872681,101.9477996826172,-40.91761779785156,258.1752319335937
1700074909,1.4195556640625,-0.0133056640625,0.122222900390625,-0.9716562032699584,0.6822483539581299,0.5130540132522583,101.30172729492188,-40.03953552246094,258.2916259765625
1700074909,1.9269561767578125,-0.353302001953125,0.2164306640625,-0.7785397171974182,1.0299698114395142,0.6605870127677917,100.46865844726562,-39.60185241699219,257.9658508300781
1700074909,2.375152587890625,-0.5184783935546875,0.3828887939453125,-0.6812629699707031,1.1448620557785034,1.228887677192688,100.16226196289062,-38.714385986328125,257.6346435546875
1700074909,1.689544677734375,-0.13983154296875,0.0510101318359375,-0.6767164468765259,0.8756798505783081,1.285223364830017,99.5780792236328,-38.31704711914063,257.2876281738281
1700074909,0.8650970458984375,0.086181640625,-0.35687255859375,-0.8251583576202393,0.808300256729126,0.892799973487854,98.27381896972656,-37.72996520996094,257.4690856933594
1700074909,0.5395965576171875,0.137176513671875,-0.4929351806640625,-0.6429051756858826,0.7566759586334229,0.5269737839698792,97.7271728515625,-36.90461730957031,257.4140014648437
1700074909,0.5764007568359375,0.180572509765625,-0.333404541015625,0.0173265263438224,0.6085954308509827,0.448306679725647,96.97528076171876,-36.45765686035156,257.1351318359375
1700074909,0.8041229248046875,0.12054443359375,-0.3309478759765625,0.5033571720123291,0.4736237525939941,0.4904259145259857,95.6974639892578,-35.637115478515625,256.38250732421875
1700074909,1.0469207763671875,0.0509490966796875,-0.3469085693359375,0.5737397074699402,0.4308454096317291,0.512488842010498,94.74142456054688,-34.69464111328125,257.38604736328125
1700074909,1.12896728515625,0.0284576416015625,-0.29583740234375,0.3579789102077484,0.4402458369731903,0.5340271592140198,93.54646301269533,-34.41853332519531,257.562255859375
1700074909,1.076507568359375,0.0233612060546875,-0.2774200439453125,0.0878254622220993,0.449802041053772,0.6126812696456909,92.24549865722656,-33.37127685546875,257.0955505371094
1700074909,0.9651947021484376,-0.0012359619140625,-0.2845611572265625,-0.1079746708273887,0.4792605936527252,0.7189608216285706,90.8843994140625,-32.29541015625,257.1236572265625
1700074909,0.89190673828125,-0.09149169921875,-0.2394866943359375,-0.2283301055431366,0.5494796633720398,0.8152434229850769,89.21139526367188,-31.59552001953125,256.59234619140625
1700074909,0.874267578125,-0.1985931396484375,-0.17120361328125,-0.3018299043178558,0.5844892859458923,0.9035466313362122,87.76673889160156,-30.89950561523437,256.280029296875
1700074909,0.829742431640625,-0.1534881591796875,-0.238494873046875,-0.2921474277973175,0.576076865196228,0.9063900709152222,86.96539306640625,-30.701873779296875,256.0947570800781
1700074909,0.8158111572265625,0.038360595703125,-0.3495941162109375,-0.2275450080633163,0.6140908598899841,0.8024256229400635,85.88528442382812,-30.278472900390625,256.0126342773437
1700074909,0.9009552001953124,0.186920166015625,-0.28350830078125,0.0195585209876298,0.6663836240768433,0.6900444626808167,84.65777587890625,-29.9830322265625,255.8308258056641
1700074909,0.96575927734375,0.2286376953125,-0.1705474853515625,0.3299323618412018,0.7139652371406555,0.654515266418457,83.523681640625,-29.976776123046875,255.1307678222656
1700074909,0.9666290283203124,0.197662353515625,-0.207672119140625,0.4359283149242401,0.7690309286117554,0.6616786122322083,82.7755126953125,-29.82188415527344,255.2503356933593
1700074909,0.996917724609375,0.09869384765625,-0.200103759765625,0.4023322761058807,0.8527004718780518,0.7617703080177307,82.00361633300781,-30.09117126464844,255.5350952148437
1700074909,0.9806365966796876,-0.02557373046875,-0.1963043212890625,0.246264100074768,0.926944613456726,0.934952199459076,81.69871520996094,-29.63330078125,255.99757385253903
1700074909,0.9294586181640624,-0.121551513671875,-0.28521728515625,0.0711143910884857,0.9957172870635986,1.1561578512191772,81.10064697265625,-29.82855224609375,256.4535522460937
1700074909,0.8987579345703125,-0.200653076171875,-0.3021392822265625,-0.033122532069683,1.047911286354065,1.3496577739715576,81.35554504394531,-30.02925109863281,256.58428955078125
1700074909,0.879150390625,-0.2103271484375,-0.3148193359375,-0.0903264358639717,1.0776129961013794,1.4514137506484983,81.77183532714844,-30.4271240234375,256.5771484375
1700074909,0.8829803466796875,-0.14459228515625,-0.3827972412109375,-0.050636813044548,1.106635332107544,1.4938253164291382,82.39228820800781,-30.841339111328125,257.42333984375
1700074909,0.836578369140625,0.0031585693359375,-0.40899658203125,0.1050720885396003,1.1518634557724,1.5239611864089966,83.583251953125,-31.454421997070312,257.9837341308594
1700074909,0.8271331787109375,0.1906585693359375,-0.332122802734375,0.2623266875743866,1.2387120723724363,1.5113029479980469,84.33099365234375,-32.49542236328125,258.1160888671875
1700074909,0.875030517578125,0.34539794921875,-0.2710723876953125,0.461194783449173,1.362929344177246,1.4523128271102903,85.24412536621094,-33.53498840332031,257.810791015625
1700074909,0.959259033203125,0.3656768798828125,-0.19647216796875,0.7374061346054077,1.4956024885177612,1.4165436029434204,86.20785522460938,-34.65513610839844,258.19122314453125
1700074909,1.047821044921875,0.230499267578125,-0.139862060546875,0.8159605860710144,1.5762251615524292,1.426050066947937,86.62355041503906,-35.56120300292969,258.09356689453125
1700074909,1.066558837890625,0.0282745361328125,-0.2455596923828125,0.7322262525558472,1.5575851202011108,1.4873586893081665,87.55081176757812,-36.31617736816406,257.5528564453125
1700074909,0.9234771728515624,-0.1032867431640625,-0.5121307373046875,0.7030864953994751,1.4847255945205688,1.5554410219192505,88.63740539550781,-37.651275634765625,257.63604736328125
1700074909,0.735809326171875,-0.0487518310546875,-0.715362548828125,0.7502404451370239,1.4481521844863892,1.6167895793914795,89.65727233886719,-38.72747802734375,257.6910400390625
1700074909,0.730224609375,0.226959228515625,-0.591339111328125,0.7350271344184875,1.508555889129639,1.6184717416763306,90.2581787109375,-40.22698974609375,257.8689880371094
1700074909,0.8978729248046875,0.5352325439453125,-0.3034210205078125,0.6979894638061523,1.590578317642212,1.601866364479065,91.25906372070312,-41.53938293457031,259.0458068847656
1700074909,1.0755462646484375,0.7050628662109375,-0.219879150390625,0.777805745601654,1.687135934829712,1.5711950063705444,92.19416809082033,-42.521728515625,259.83935546875
1700074909,1.23919677734375,0.6067047119140625,-0.337554931640625,0.9355447888374328,1.7334827184677124,1.5743093490600586,92.92730712890624,-43.78474426269531,261.0903625488281
1700074909,1.3519134521484375,0.342041015625,-0.43121337890625,1.021903395652771,1.7642978429794312,1.7054574489593506,94.20201110839844,-45.345123291015625,262.49169921875
1700074909,1.3025360107421875,0.1061248779296875,-0.4932861328125,0.9564886689186096,1.8013805150985718,1.900794982910156,94.62416076660156,-46.5068359375,263.84967041015625
1700074909,1.096435546875,0.003814697265625,-0.557952880859375,0.832568347454071,1.829657196998596,2.040651798248291,95.10479736328124,-48.05897521972656,264.2718811035156
1700074909,0.9241485595703124,0.038665771484375,-0.559783935546875,0.7847701907157898,1.832829833030701,2.1166725158691406,95.50367736816406,-49.02117919921875,265.36553955078125
1700074909,0.7669677734375,0.2226409912109375,-0.613555908203125,0.8091005682945251,1.7713488340377808,2.0729010105133057,95.9584503173828,-49.5709228515625,265.8827514648437
1700074909,0.7642364501953125,0.3983154296875,-0.60382080078125,0.894144594669342,1.7535653114318848,1.9676872491836548,95.93331909179688,-50.45204162597656,266.20318603515625
1700074909,0.8162841796875,0.492828369140625,-0.5642547607421875,1.054143309593201,1.7200922966003418,1.856824398040772,96.0732421875,-51.50579833984375,266.883544921875
1700074909,0.8969879150390625,0.502197265625,-0.612701416015625,1.1495941877365112,1.5462350845336914,1.8574073314666748,96.15666198730467,-52.15936279296875,266.81414794921875
1700074909,1.109954833984375,0.510223388671875,-0.6927642822265625,1.0938348770141602,1.405893087387085,1.9320677518844604,96.46395874023438,-53.23141479492188,267.1161499023437
1700074909,1.281524658203125,0.4962615966796875,-0.6827239990234375,0.8197750449180603,1.3507896661758425,2.0251169204711914,97.01406860351562,-53.31013488769531,267.59521484375
1700074909,1.425689697265625,0.384124755859375,-0.559844970703125,0.4471045434474945,1.2572133541107178,2.1521170139312744,96.66424560546876,-54.084808349609375,267.45654296875
1700074909,1.4903564453125,0.2389068603515625,-0.5610198974609375,0.1813309043645858,1.109250545501709,2.2769196033477783,96.76885986328124,-54.46783447265625,268.735595703125
1700074909,1.4710845947265625,0.1582183837890625,-0.7289276123046875,0.0440143309533596,0.9210502505302428,2.25398588180542,96.30192565917967,-55.02261352539063,268.75634765625
1700074909,1.41778564453125,0.128082275390625,-0.8502960205078125,-0.0176961719989776,0.6547554731369019,2.0192205905914307,96.23796081542967,-55.68795776367188,269.17242431640625
1700074909,1.3732147216796875,0.0962066650390625,-0.772064208984375,0.0064975805580616,0.4084804356098175,1.656632661819458,96.78068542480467,-55.787994384765625,270.042724609375
1700074909,1.2247467041015625,0.0706329345703125,-0.5815582275390625,0.1263683289289474,0.1398742794990539,1.29776930809021,96.81643676757812,-56.32241821289063,270.392333984375
1700074909,0.928466796875,0.0397796630859375,-0.42108154296875,0.4729004502296448,0.1133768931031227,0.6890345811843872,96.62245178222656,-56.553009033203125,270.99627685546875
1700074909,0.66253662109375,-0.1650390625,-0.4260101318359375,0.7639415860176086,0.0992557480931282,0.1647055894136428,96.98460388183594,-57.20021057128906,271.6028137207031
1700074909,0.3259124755859375,-0.26123046875,-0.4393768310546875,0.772360622882843,-0.1327969282865524,0.0688304603099823,96.33775329589844,-57.55537414550781,271.841552734375
1700074909,-0.07135009765625,0.047637939453125,-0.3194427490234375,0.7298502326011658,-0.5246903896331787,-0.2082693129777908,96.27391052246094,-57.58677673339844,272.45684814453125
1700074909,-0.178924560546875,0.1768035888671875,-0.05572509765625,0.886668860912323,-0.9922733306884766,-0.7514724135398865,96.44686889648438,-57.673583984375,272.6003723144531
1700074909,-0.1131591796875,0.1226959228515625,0.3997802734375,0.7045208811759949,-1.1529617309570312,-1.4462075233459473,96.30264282226562,-58.15858459472656,272.7297058105469
1700074909,-0.2031707763671875,-0.0106964111328125,0.2575531005859375,0.5575721859931946,-1.349452257156372,-2.078543901443481,96.08282470703124,-57.79342651367188,273.046142578125
1700074909,-0.17950439453125,-0.3294830322265625,-0.0194854736328125,0.3280260860919952,-1.6025725603103638,-2.6378602981567383,95.76620483398438,-57.90704345703125,273.1229858398437
1700074909,0.1932373046875,-0.660400390625,-0.01434326171875,0.1021316945552825,-1.7501440048217771,-3.072705268859864,95.75070190429688,-58.02487182617188,273.3812866210937
1700074909,0.5139923095703125,-0.8167572021484375,0.0442962646484375,-0.3342432379722595,-1.724339246749878,-3.014431953430176,95.42204284667967,-58.07359313964844,274.0047302246094
1700074909,0.606109619140625,-0.60723876953125,0.03997802734375,-1.081673264503479,-1.6827476024627686,-2.8083012104034424,95.08311462402344,-58.08123779296875,274.1419677734375
1700074909,0.6720428466796875,-0.335693359375,0.0030517578125,-1.8200039863586424,-1.7947354316711426,-2.7424137592315674,94.8292236328125,-57.98451232910156,274.4389038085937
1700074909,0.773773193359375,-0.170989990234375,-0.174896240234375,-2.0928637981414795,-2.069638967514038,-2.7757468223571777,94.18556213378906,-57.6201171875,274.1955261230469
1700074909,0.85015869140625,-0.0173187255859375,-0.2845001220703125,-1.953771948814392,-2.3217427730560303,-2.938849925994873,94.17234802246094,-57.81732177734375,274.2834167480469
1700074909,0.92291259765625,0.1243743896484375,-0.274078369140625,-1.7717653512954712,-2.5125107765197754,-3.2123448848724365,94.37834167480467,-57.496002197265625,274.2401123046875
1700074909,0.9725494384765624,0.3002777099609375,-0.28045654296875,-1.6980783939361572,-2.64961838722229,-3.4982829093933105,93.73454284667967,-57.99870300292969,274.734619140625
