timestamp,acc-x,acc-y,acc-z,gyr-x,gyr-y,gyr-z,mag-x,mag-y,mag-z
1700075948,0.992889404296875,0.0139923095703125,-0.1558837890625,0.015417305752635,-0.0108055099844932,-0.0110894022509455,85.70677185058594,-59.8233642578125,247.6941833496093
1700075948,0.9931793212890624,0.016387939453125,-0.159759521484375,0.0209084767848253,-0.0204679910093545,-0.019244534894824,85.87315368652344,-60.08204650878906,247.26133728027344
1700075948,0.9946746826171876,0.029815673828125,-0.1607513427734375,0.0343893989920616,-0.0272752959281206,-0.0357089936733245,86.04803466796875,-60.35774230957031,246.7914276123047
1700075948,0.9957427978515624,0.03564453125,-0.1593017578125,0.0474229082465171,-0.0292721353471279,-0.0471509993076324,85.94529724121094,-60.31219482421875,246.8811187744141
1700075948,0.993865966796875,0.0285491943359375,-0.1534423828125,0.0496453158557415,-0.0277349576354026,-0.0499593019485473,86.13621520996094,-60.721588134765625,246.1195526123047
1700075948,0.9882659912109376,0.0136871337890625,-0.1568603515625,0.0387452654540538,-0.0327654033899307,-0.0416776724159717,86.24853515625,-61.0032958984375,246.36268615722656
1700075948,0.984527587890625,0.002288818359375,-0.1620635986328125,0.0256968419998884,-0.0355585254728794,-0.0349803529679775,86.13258361816406,-60.94926452636719,246.4008636474609
1700075948,0.9879150390625,-0.00677490234375,-0.1600341796875,0.0162253081798553,-0.0370211340487003,-0.0272939391434192,85.86199951171875,-61.41255187988281,246.310302734375
1700075948,0.9907989501953124,-0.009490966796875,-0.1522216796875,0.0148425959050655,-0.032496690750122,-0.018901253119111,85.54010009765625,-61.47508239746094,245.3403778076172
1700075948,0.987823486328125,-0.0052337646484375,-0.1544036865234375,0.0168532822281122,-0.0339316017925739,-0.0155294248834252,85.52104187011719,-61.80401611328125,245.64840698242188
1700075948,0.9850921630859376,0.0096435546875,-0.15771484375,0.0266864709556102,-0.0363092720508575,-0.0271501280367374,85.59220886230469,-62.00189208984375,245.4733123779297
1700075948,0.9906158447265624,0.0166168212890625,-0.1516571044921875,0.0353129841387271,-0.034234669059515,-0.0356115251779556,85.29928588867188,-62.045166015625,245.2138061523437
1700075948,0.9893035888671876,0.0182647705078125,-0.14727783203125,0.0329435691237449,-0.032985646277666,-0.0384278148412704,85.32533264160156,-62.41207885742188,244.674057006836
1700075948,0.99066162109375,0.0108642578125,-0.1458740234375,0.0256821941584348,-0.0298966467380523,-0.0384829454123973,84.79180908203125,-62.3179931640625,244.68641662597656
1700075948,0.989654541015625,0.00079345703125,-0.1475982666015625,0.011635617353022,-0.0244366340339183,-0.0363311097025871,85.0284423828125,-61.87225341796875,244.20779418945312
1700075948,0.9886474609375,0.0023345947265625,-0.1478424072265625,-0.002665557898581,-0.0213700029999017,-0.0338120274245739,84.71583557128906,-62.22538757324219,243.9508819580078
1700075948,0.9896697998046876,0.0068206787109375,-0.15020751953125,-0.0015885755419731,-0.0210264548659324,-0.0329430364072322,84.75495910644531,-62.261505126953125,244.1968536376953
1700075948,0.988525390625,0.0033721923828125,-0.1490020751953125,-0.0003949467791244,-0.0194783601909875,-0.0331824533641338,84.90238952636719,-62.22529602050781,244.043685913086
1700075948,0.9865264892578124,-0.011077880859375,-0.141571044921875,-0.0041478732600808,-0.0001861549535533,-0.0355002023279666,84.32901000976562,-62.35015869140625,243.6272888183593
1700075948,0.9859466552734376,-0.0433502197265625,-0.136749267578125,-0.025269404053688,-0.007727694697678,-0.0108851380646228,83.98643493652344,-62.34919738769531,243.87283325195312
1700075948,0.9782562255859376,-0.00640869140625,-0.171478271484375,-0.0459965206682682,-0.0330261252820491,-0.0162487439811229,83.93898010253906,-62.42384338378906,243.62754821777344
1700075948,1.003204345703125,0.0403289794921875,-0.16925048828125,-0.0026844663079828,-0.0284183248877525,-0.0407450310885906,83.96560668945312,-62.03330993652344,243.2453765869141
1700075948,1.0021820068359375,0.040191650390625,-0.1418609619140625,0.0343044437468051,-0.0248566139489412,-0.0532304644584655,83.80145263671875,-62.27061462402344,243.38331604003903
1700075948,0.9845733642578124,0.0178070068359375,-0.1405792236328125,0.0300740133970975,-0.021957229822874,-0.0460548438131809,83.8297119140625,-62.386260986328125,242.7801208496093
1700075948,0.9800872802734376,-0.0068359375,-0.1397247314453125,0.012114985845983,-0.0136921098455786,-0.0267554484307765,83.53623962402344,-62.81394958496094,242.94342041015625
1700075948,0.9779205322265624,-0.0134735107421875,-0.1432952880859375,0.0006849650526419,-0.0118934111669659,-0.0230238270014524,83.53630065917969,-62.47503662109375,242.77149963378903
1700075948,0.9832763671875,-0.0011444091796875,-0.1506195068359375,0.006697317585349,-0.0139597579836845,-0.0201393570750951,83.45350646972656,-62.519622802734375,242.6666717529297
1700075948,0.9898834228515624,0.0162811279296875,-0.1455535888671875,0.0261812694370746,-0.0155675075948238,-0.0316298305988311,83.27890014648438,-62.026611328125,242.9412384033203
1700075948,0.993743896484375,0.0129852294921875,-0.1422119140625,0.0390509963035583,-0.0103487772867083,-0.0241303704679012,83.60960388183594,-62.21232604980469,242.5954742431641
1700075948,0.986724853515625,-0.0021209716796875,-0.1427459716796875,0.0350666418671608,-0.0070310113951563,-0.015100123360753,83.48629760742188,-62.56439208984375,242.06231689453125
1700075948,0.9831085205078124,-0.017608642578125,-0.1470794677734375,0.023241139948368,-0.0097479680553078,-0.0048469533212482,82.83976745605469,-62.761138916015625,241.97296142578125
1700075948,0.98370361328125,-0.0196533203125,-0.151641845703125,0.0148841412737965,-0.0067748152650892,0.0043233758769929,83.02546691894531,-62.57814025878906,241.67637634277344
1700075948,0.987548828125,-0.0077362060546875,-0.15167236328125,0.0196903478354215,-0.007431817241013,0.0058075552806258,82.5487060546875,-62.697113037109375,241.98141479492188
1700075948,0.9906463623046876,0.008148193359375,-0.147186279296875,0.0296905171126127,-0.0057774614542722,0.0036424053832888,82.67076110839844,-62.52806091308594,241.7649078369141
1700075948,0.990142822265625,0.0084075927734375,-0.1436309814453125,0.0340618304908275,-0.0057273940183222,0.0014530207263305,82.64898681640625,-62.69392395019531,241.7338714599609
1700075948,0.986053466796875,-0.0030975341796875,-0.142242431640625,0.0324527472257614,-0.0023928501177579,0.0068286112509667,82.38002014160156,-62.738311767578125,241.5913543701172
1700075948,0.984039306640625,-0.016082763671875,-0.146484375,0.0173504948616027,-0.0042956788092851,0.0173960346728563,82.49038696289062,-62.87396240234375,241.69869995117188
1700075948,0.98486328125,-0.0091400146484375,-0.150787353515625,0.0140138203278183,-0.0046631949953734,0.0166114680469036,82.48741149902344,-62.916046142578125,241.84866333007807
1700075948,0.993255615234375,0.0039215087890625,-0.148468017578125,0.023509319871664,-0.0054584150202572,0.0091463606804609,82.56645202636719,-62.7891845703125,241.33889770507807
1700075948,0.9920806884765624,0.015167236328125,-0.146209716796875,0.0385740250349044,-0.0085479477420449,0.00023835292086,82.21929931640625,-63.32191467285156,240.87667846679688
1700075948,0.9931793212890624,0.0155029296875,-0.14447021484375,0.0436348281800746,-0.003874899353832,-0.0022298647090792,82.22422790527344,-63.410888671875,240.8678436279297
1700075948,0.9911041259765624,0.007080078125,-0.1432342529296875,0.039660595357418,-0.0055343150161206,-0.0023710122331976,82.14695739746094,-63.475860595703125,241.1758270263672
1700075948,0.9877471923828124,0.0048828125,-0.142852783203125,0.0340245440602302,-0.004081028047949,-0.0085745798423886,82.25079345703125,-63.48095703125,240.85145568847656
1700075948,0.9906158447265624,0.00067138671875,-0.146087646484375,0.0314327590167522,-0.0032695627305656,-0.0037739656399935,82.17643737792969,-63.562347412109375,240.9609832763672
1700075948,0.989471435546875,0.0022430419921875,-0.147796630859375,0.0251969657838344,-0.0039127161726355,-0.0018756643403321,82.03147888183594,-63.71368408203125,240.9299774169922
1700075948,0.9900665283203124,0.0099029541015625,-0.1494293212890625,0.024517061188817,-0.0074901403859257,-0.010577542707324,81.8099365234375,-63.485107421875,240.8660583496093
1700075948,0.99212646484375,0.0122222900390625,-0.14404296875,0.0276579931378364,-0.0050000851042568,-0.0139445774257183,81.47940063476562,-63.86244201660156,240.71002197265625
1700075948,0.98974609375,0.0066375732421875,-0.1440582275390625,0.0246243868023157,-0.0057998322881758,-0.0079822922125458,81.48162841796875,-63.86918640136719,241.1313323974609
1700075948,0.9887237548828124,-0.00146484375,-0.146453857421875,0.0152577823027968,-0.0032216259278357,-0.0092022866010665,81.84135437011719,-63.95646667480469,240.7784423828125
1700075948,0.9897918701171876,-0.0078277587890625,-0.1507415771484375,0.0414020344614982,0.009264338761568,-0.0318327657878398,81.43557739257812,-63.89842224121094,240.7331085205078
1700075948,0.99725341796875,-0.0209808349609375,-0.1568145751953125,0.1028917580842971,0.0311952028423547,-0.0814637020230293,81.51657104492188,-63.92112731933594,240.8896942138672
1700075948,1.0089569091796875,-0.0420379638671875,-0.162017822265625,0.1343378275632858,0.0329789891839027,-0.1010592430830001,81.82771301269531,-64.12269592285156,241.0375061035156
1700075948,1.0020751953125,-0.0308380126953125,-0.1504974365234375,0.0493337288498878,0.0087133301421999,-0.0399386286735534,81.47708129882812,-64.34678649902344,240.1134185791016
1700075948,0.96527099609375,0.032196044921875,-0.1341094970703125,0.0222035720944404,0.0085143921896815,-0.0256334580481052,81.57467651367188,-64.38015747070312,240.12991333007807
1700075948,0.9665985107421876,0.0279541015625,-0.1287689208984375,0.0583000592887401,0.0036240296903997,-0.03441097214818,81.591552734375,-64.3870849609375,240.0436248779297
1700075948,0.992523193359375,0.0029144287109375,-0.125457763671875,0.0872978866100311,-0.0137379160150885,-0.038001712411642,81.18478393554688,-64.49714660644531,240.3130645751953
1700075948,1.0119476318359375,-0.002197265625,-0.139404296875,0.0872483551502227,-0.0217212736606597,-0.0278300326317548,81.30320739746094,-64.74516296386719,240.37258911132807
1700075948,0.9917144775390624,0.015899658203125,-0.1586761474609375,0.0669593289494514,-0.0150673659518361,-0.0186738185584545,81.07289123535156,-64.52804565429688,240.70147705078125
1700075948,0.974517822265625,0.021636962890625,-0.1527252197265625,0.0782442018389701,-0.0073103769682347,-0.0354573279619216,81.32208251953125,-64.49195861816406,240.4180603027344
1700075948,0.982269287109375,-0.0009307861328125,-0.1441650390625,0.0796205252408981,0.0002905508736148,-0.025458488613367,81.61207580566406,-64.89764404296875,239.97238159179688
1700075948,0.9803009033203124,-0.0084686279296875,-0.143890380859375,0.0670429468154907,-0.0098385158926248,-0.0070784157142043,80.88127136230469,-64.75074768066406,240.35903930664065
1700075948,0.9815826416015624,-0.0092620849609375,-0.1486663818359375,0.0421900637447834,-0.0091173322871327,0.0296923816204071,81.13369750976562,-65.15324401855469,240.5523376464844
1700075948,0.9786376953125,-0.0030517578125,-0.1515655517578125,0.0197484046220779,0.0026759442407637,0.0487933717668056,81.42655944824219,-65.06150817871094,239.97666931152344
1700075948,0.981292724609375,-0.013397216796875,-0.14080810546875,0.0129682626575231,0.0168428961187601,0.0663313493132591,81.32258605957031,-65.12037658691406,240.09619140625
1700075948,0.981201171875,-0.022003173828125,-0.1298828125,0.0296124871820211,0.03054672293365,0.083275981247425,81.15977478027344,-64.79936218261719,240.4414825439453
1700075948,0.981597900390625,-0.024322509765625,-0.12994384765625,0.0402073413133621,0.0396102592349052,0.0917871743440628,81.23768615722656,-65.13204956054688,240.6197052001953
1700075948,0.9855499267578124,-0.0183868408203125,-0.132904052734375,0.0359833016991615,0.0477835014462471,0.0914950296282768,81.04154968261719,-65.05046081542969,240.2528076171875
1700075948,0.9887847900390624,-0.009735107421875,-0.1385040283203125,0.0226065088063478,0.0477880276739597,0.0903490707278251,81.13945007324219,-65.07901000976562,240.1299591064453
1700075948,0.98834228515625,0.005157470703125,-0.149322509765625,0.0089327748864889,0.0456428527832031,0.084426999092102,81.08799743652344,-65.19715881347656,239.79541015625
1700075948,0.9948272705078124,0.020172119140625,-0.1511993408203125,-0.0002466087171342,0.0446047522127628,0.065638929605484,81.0562744140625,-64.76593017578125,239.91143798828125
1700075948,0.9976654052734376,0.0349578857421875,-0.1480865478515625,-0.0140574956312775,0.0499238818883895,0.0457850657403469,81.05137634277344,-64.64170837402344,239.6363067626953
1700075948,0.99676513671875,0.0413360595703125,-0.14306640625,-0.0305062439292669,0.0548254325985908,0.031128890812397,80.82783508300781,-64.58427429199219,240.23110961914065
1700075948,0.9918060302734376,0.032318115234375,-0.1374664306640625,-0.058789812028408,0.0609054267406463,0.0307701621204614,80.86122131347656,-64.30662536621094,239.5872039794922
1700075948,0.983673095703125,0.0213165283203125,-0.148529052734375,-0.0845431163907051,0.0534914545714855,0.0335566289722919,80.66365051269531,-64.39573669433594,240.0747528076172
1700075948,0.9868316650390624,0.019012451171875,-0.15948486328125,-0.1012690961360931,0.0425661019980907,0.0342493169009685,80.72286987304688,-63.99769592285156,240.27542114257807
1700075948,0.9923858642578124,0.024749755859375,-0.164031982421875,-0.0949060022830963,0.0321869663894176,0.0292332526296377,80.64305114746094,-63.67970275878906,240.12301635742188
1700075948,0.9941558837890624,0.03363037109375,-0.1640472412109375,-0.0808591619133949,0.0173579510301351,0.0162910893559455,80.53060913085938,-63.21485900878906,240.2071075439453
1700075948,0.994537353515625,0.035980224609375,-0.154510498046875,-0.0619448609650135,0.0039414782077074,0.0056456350721418,80.36967468261719,-62.855010986328125,240.5603942871093
1700075948,0.9925537109375,0.0296478271484375,-0.1448822021484375,-0.0481097400188446,-0.0015398397808894,-0.0008154599345289,80.01876831054688,-62.66532897949219,240.6221466064453
1700075948,0.994476318359375,0.0147857666015625,-0.1400146484375,-0.0485616773366928,-0.0031284152064472,-0.0003632551815826,80.06095886230469,-62.71641540527344,240.1689453125
1700075949,0.9923858642578124,0.0055084228515625,-0.146636962890625,-0.0560680627822876,-0.0088041443377733,0.0028794098179787,80.0521240234375,-62.31076049804688,240.5020294189453
1700075949,0.9915924072265624,0.0045928955078125,-0.151397705078125,-0.0600316449999809,-0.0136718703433871,0.0011552792275324,80.14659118652344,-61.9783935546875,240.37535095214844
1700075949,0.991851806640625,0.0057830810546875,-0.1521148681640625,-0.0520552098751068,-0.0206778477877378,-0.0023465112317353,80.08193969726562,-62.67330932617188,240.0801544189453
1700075949,0.99139404296875,0.0072174072265625,-0.1439971923828125,-0.0307115726172924,-0.0195526629686355,-0.0066837351769208,79.794189453125,-62.729400634765625,239.6100311279297
1700075949,0.98956298828125,0.00640869140625,-0.1387939453125,-0.0158404819667339,-0.0161805674433708,-0.005413407459855,79.52178955078125,-63.19561767578125,239.4383544921875
1700075949,0.9891510009765624,0.00042724609375,-0.138702392578125,-0.0113975303247571,-0.0034426683560013,-0.0019497001776471,79.74177551269531,-63.599609375,239.9215545654297
1700075949,0.9874420166015624,-0.01690673828125,-0.14178466796875,-0.0167251843959093,0.0083040026947855,0.0062222094275057,79.31246948242188,-63.89433288574219,238.9441833496093
1700075949,0.981170654296875,-0.027557373046875,-0.1536865234375,-0.0300005096942186,0.0077125146053731,0.0268100425601005,79.36427307128906,-64.79360961914062,238.4659576416016
1700075949,0.9790496826171876,-0.016143798828125,-0.1619720458984375,-0.0426569171249866,0.0139379194006323,0.0286699943244457,79.313232421875,-65.51197814941406,238.70689392089844
1700075949,0.986602783203125,-0.0171356201171875,-0.1504364013671875,-0.0423762202262878,0.0196730364114046,0.0305115692317485,79.30348205566406,-66.14982604980469,238.4051208496093
1700075949,0.983856201171875,-0.0315704345703125,-0.137298583984375,-0.0494125559926033,0.0301858652383089,0.0354778319597244,79.28526306152344,-67.56074523925781,238.3508453369141
1700075949,0.9804840087890624,-0.0328521728515625,-0.1406097412109375,-0.0855439305305481,0.0329145416617393,0.046422891318798,79.38265991210938,-68.2869873046875,237.4013519287109
1700075949,0.988250732421875,-0.0064697265625,-0.14892578125,-0.0857660397887229,0.0268052481114864,0.0440324395895004,79.72004699707031,-69.46096801757812,237.3092041015625
1700075949,0.998565673828125,0.041412353515625,-0.162750244140625,-0.0490908473730087,0.0072821476496756,0.018207499757409,79.42623901367188,-70.46366882324219,237.2721099853516
1700075949,1.0059356689453125,0.08392333984375,-0.1573333740234375,-0.0066765449009835,0.0113205648958683,-0.0192866120487451,79.40634155273438,-71.71012878417969,237.31610107421875
1700075949,1.002349853515625,0.069305419921875,-0.1305389404296875,0.0157648473978042,0.0235721711069345,-0.0330724641680717,79.71438598632812,-73.22801208496094,237.7715759277344
1700075949,0.975494384765625,0.02923583984375,-0.137969970703125,0.0044043357484042,0.0249620750546455,-0.0166138634085655,80.06307983398438,-74.00468444824219,237.51060485839844
1700075949,0.971710205078125,0.00079345703125,-0.150634765625,-0.0129930302500724,0.0213963687419891,-0.0106060393154621,80.19061279296875,-74.90948486328125,238.1521911621093
1700075949,0.9889068603515624,-0.0169219970703125,-0.1528167724609375,-0.01716567017138,0.02077292278409,-0.0005283711361698,80.2662353515625,-76.07310485839844,238.17393493652344
1700075949,0.99334716796875,-0.015899658203125,-0.1490631103515625,-0.0239892229437828,0.0235327556729316,-0.0099860550835728,80.22840881347656,-76.90766906738281,238.44390869140625
1700075949,0.9965057373046876,-0.017822265625,-0.1459503173828125,-0.0257367882877588,0.0220115594565868,-0.0080488715320825,80.29971313476562,-77.70988464355469,238.5697326660156
1700075949,0.989837646484375,0.0034332275390625,-0.1597442626953125,-0.0255160126835107,0.007874434813857,-0.0118958074599504,80.56988525390625,-78.27320861816406,239.054443359375
1700075949,0.995147705078125,0.033843994140625,-0.16845703125,-0.0246190596371889,-0.0096678072586655,-0.0330093502998352,80.395263671875,-78.62432861328125,239.322494506836
1700075949,1.0015716552734375,0.0447998046875,-0.1663055419921875,0.0016535567119717,-0.0133371111005544,-0.0493209436535835,80.804931640625,-79.66401672363281,239.57383728027344
1700075949,0.992340087890625,0.0404052734375,-0.1512603759765625,0.025619076564908,-0.0112507902085781,-0.0622439347207546,80.26113891601562,-80.50505065917969,239.6206970214844
1700075949,0.9883270263671876,0.023956298828125,-0.1391448974609375,0.0246640667319297,-0.0088696582242846,-0.0555351637303829,80.11471557617188,-81.44448852539062,240.21519470214844
1700075949,0.9879302978515624,0.021728515625,-0.149658203125,0.0195486675947904,-0.0157275646924972,-0.0607059560716152,80.48736572265625,-81.631591796875,240.5806121826172
1700075949,0.9937591552734376,0.0178985595703125,-0.1530914306640625,0.02712376229465,-0.0141190150752663,-0.0607238002121448,80.52583312988281,-82.29090881347656,241.14962768554688
1700075949,0.991119384765625,0.007049560546875,-0.1519622802734375,0.0301824025809764,-0.0139981070533394,-0.0482338406145572,80.36375427246094,-82.49595642089844,241.4703521728516
1700075949,0.983062744140625,-0.0092926025390625,-0.1495361328125,0.0318162515759468,-0.0181795358657836,-0.0425304174423217,80.2998046875,-83.00912475585938,241.14707946777344
1700075949,0.98052978515625,-0.04168701171875,-0.1472625732421875,0.0124532077461481,-0.0092768548056483,-0.0148697597905993,80.48722839355469,-82.90113830566406,241.25607299804688
1700075949,0.9737396240234376,-0.0504913330078125,-0.1544189453125,-0.0146740172058343,-0.0159555301070213,0.013814615085721,80.33004760742188,-82.59687805175781,241.3543395996093
1700075949,0.983306884765625,-0.026641845703125,-0.1585845947265625,-0.0161589961498975,-0.0226235538721084,0.0130361737683415,80.77761840820312,-82.31475830078125,241.9141845703125
1700075949,1.0009613037109375,-0.017181396484375,-0.1573028564453125,-0.0249117407947778,-0.029125927016139,0.0072802836075425,80.46139526367188,-82.47720336914062,241.2467803955078
1700075949,0.9921875,0.0012664794921875,-0.180023193359375,-0.0492754057049751,-0.0600950270891189,0.0014998923288658,80.38327026367188,-82.58956909179688,240.93185424804688
1700075949,0.9903564453125,0.0342559814453125,-0.1865997314453125,-0.0421407967805862,-0.0729575604200363,-0.0172572843730449,80.59628295898438,-82.52583312988281,240.5910797119141
1700075949,0.991363525390625,0.056060791015625,-0.1632843017578125,-0.0161568652838468,-0.0732049718499183,-0.0357438810169696,80.39704895019531,-82.72427368164062,240.57994079589844
1700075949,0.9841766357421876,0.0556793212890625,-0.1426239013671875,0.0069977222010493,-0.0687471032142639,-0.0504541173577308,80.30809020996094,-82.60578918457031,241.3409423828125
1700075949,0.98358154296875,0.029510498046875,-0.1354217529296875,0.0245623346418142,-0.0613182187080383,-0.0377417877316474,80.713134765625,-82.7410888671875,240.7481231689453
1700075949,0.9839324951171876,0.0001678466796875,-0.1324920654296875,0.0207478888332843,-0.0579160302877426,-0.0211204644292593,80.41862487792969,-82.87669372558594,240.7893829345703
1700075949,0.9846343994140624,-0.0213165283203125,-0.126129150390625,0.0259977784007787,-0.0449325889348983,-0.0051225903443992,80.52223205566406,-83.261962890625,240.2894592285156
1700075949,0.98345947265625,-0.0308990478515625,-0.1252288818359375,0.0345824770629406,-0.0367050170898437,0.0098353205248713,80.42710876464844,-83.2869873046875,240.0420684814453
1700075949,0.98382568359375,-0.015228271484375,-0.1237030029296875,0.0329616777598857,-0.0172508917748928,0.011699266731739,80.06460571289062,-83.37525939941406,240.6265106201172
1700075949,0.9963226318359376,-0.008514404296875,-0.119842529296875,0.0444124713540077,-0.0120417494326829,0.0150372730568051,80.21871948242188,-83.59329223632812,240.8778381347656
1700075949,0.9909820556640624,0.0018157958984375,-0.1335296630859375,0.0512695796787738,-0.0149051798507571,0.0209052823483943,80.09649658203125,-83.33390808105469,240.92022705078125
1700075949,0.991485595703125,0.001617431640625,-0.140899658203125,0.0402134656906127,-0.0117064574733376,0.0241860300302505,80.35107421875,-83.80540466308594,240.8777618408203
1700075949,0.9874267578125,-0.00244140625,-0.1483612060546875,0.0289285872131586,-0.0185156278312206,0.0330362468957901,80.45474243164062,-83.67398071289062,241.1524353027344
1700075949,0.9858856201171876,-0.00274658203125,-0.152435302734375,0.0235468707978725,-0.0254190731793642,0.0362743847072124,80.16314697265625,-83.69265747070312,241.18551635742188
1700075949,0.988128662109375,0.0053253173828125,-0.153411865234375,0.0255548954010009,-0.0347622409462928,0.0298385899513959,80.4951171875,-83.69450378417969,241.1868133544922
1700075949,0.9905548095703124,0.0194854736328125,-0.14892578125,0.0440433584153652,-0.0374072939157485,0.0204520113766193,80.15260314941406,-84.13369750976562,241.1996612548828
1700075949,0.9920501708984376,0.031097412109375,-0.1407318115234375,0.0663241595029831,-0.0383250191807746,0.0082571310922503,80.03288269042969,-84.13746643066406,241.3239898681641
1700075949,0.9933319091796876,0.0352325439453125,-0.1360321044921875,0.0819278880953788,-0.0370062217116355,-0.0011789813870564,80.04161071777344,-84.10188293457031,240.67202758789065
1700075949,0.9913330078125,0.0287322998046875,-0.134033203125,0.0880212038755416,-0.0314250327646732,-0.0024740765802562,79.96519470214844,-84.25553894042969,241.13064575195312
1700075949,0.9876556396484376,0.006805419921875,-0.131500244140625,0.0805459767580032,-0.0277221743017435,0.0057606836780905,80.06304931640625,-84.23377990722656,241.36798095703125
1700075949,0.98291015625,-0.017486572265625,-0.131622314453125,0.061976283788681,-0.0226105041801929,0.0186823420226573,79.63648986816406,-84.59477233886719,240.8907470703125
1700075949,0.9865570068359376,-0.0288238525390625,-0.1333465576171875,0.0476644560694694,-0.0182104296982288,0.0348266884684562,79.65692138671875,-84.65843200683594,240.91372680664065
1700075949,0.99102783203125,-0.0173187255859375,-0.1367034912109375,0.0409903116524219,-0.0161656532436609,0.0413303971290588,79.65830993652344,-84.80592346191406,241.20884704589844
1700075949,0.9927978515625,0.010040283203125,-0.143463134765625,0.0598939582705497,-0.0261210836470127,0.0281083341687917,79.43353271484375,-84.66365051269531,240.7518768310547
1700075949,0.9972686767578124,0.0267333984375,-0.144256591796875,0.0774692222476005,-0.0237745717167854,0.0168596729636192,79.60008239746094,-84.73129272460938,240.8406219482422
1700075949,0.995330810546875,0.02215576171875,-0.13677978515625,0.0923070237040519,-0.022833677008748,0.0165190547704696,79.82186889648438,-84.79916381835938,240.8192596435547
1700075949,0.9880218505859376,0.005126953125,-0.135589599609375,0.0864416807889938,-0.0199782345443964,0.0206221882253885,79.72857666015625,-84.4051513671875,240.79364013671875
1700075949,0.98480224609375,-0.0116424560546875,-0.13916015625,0.0701511278748512,-0.0213660094887018,0.0323528796434402,79.89765930175781,-84.59257507324219,240.97369384765625
1700075949,0.98486328125,-0.011199951171875,-0.1384429931640625,0.0613150224089622,-0.0198203101754188,0.0409263931214809,79.56231689453125,-84.38800048828125,240.83644104003903
1700075949,0.9864044189453124,0.00262451171875,-0.1348419189453125,0.0640900358557701,-0.0221740119159221,0.038367360830307,79.68759155273438,-84.90170288085938,240.7402801513672
1700075949,0.988677978515625,0.0176239013671875,-0.132415771484375,0.0730939209461212,-0.0160854924470186,0.0276100561022758,79.26899719238281,-84.57000732421875,240.9566345214844
1700075949,0.99346923828125,0.0239410400390625,-0.128814697265625,0.0797086805105209,-0.0170072130858898,0.0184772778302431,79.18597412109375,-84.85293579101562,240.8135528564453
1700075949,0.9960174560546876,0.020294189453125,-0.1339569091796875,0.0767437815666198,-0.0165411606431007,0.0207345727831125,79.51902770996094,-84.66378784179688,241.4027557373047
1700075949,0.99481201171875,0.01397705078125,-0.1360931396484375,0.0624426044523716,-0.0198424141854047,0.019270634278655,79.58409118652344,-85.07310485839844,241.27203369140625
1700075949,0.992279052734375,0.0068817138671875,-0.1361541748046875,0.0533191487193107,-0.016677513718605,0.0213007610291242,79.40000915527344,-85.109375,240.9197540283203
1700075949,0.9918212890625,0.0047454833984375,-0.136749267578125,0.0456588305532932,-0.0207191277295351,0.0228621717542409,79.43620300292969,-84.74786376953125,240.7029724121093
1700075949,0.9933013916015624,0.014373779296875,-0.1396942138671875,0.0460801422595977,-0.0240882914513349,0.0179038997739553,79.40467834472656,-85.06988525390625,240.6786346435547
1700075949,0.9944305419921876,0.0267333984375,-0.1396484375,0.052953228354454,-0.0226014498621225,0.0094254594296216,79.56922912597656,-84.61631774902344,240.6020050048828
1700075949,0.990234375,0.0302734375,-0.138519287109375,0.0580449253320694,-0.0268931332975626,0.0043279030360281,79.03132629394531,-84.54197692871094,240.58433532714844
1700075949,0.9888763427734376,0.0222625732421875,-0.13519287109375,0.0542342104017734,-0.0260358620434999,0.0089767174795269,79.43511962890625,-84.77088928222656,240.4287567138672
1700075949,0.9875946044921876,0.0045013427734375,-0.13067626953125,0.0430449396371841,-0.0201934184879064,0.0147840064018964,78.98484802246094,-84.63215637207031,240.37228393554688
1700075949,0.9844970703125,-0.00927734375,-0.1314697265625,0.0259620919823646,-0.0189049821346998,0.0273261629045009,79.1851806640625,-84.79815673828125,240.5961151123047
1700075949,0.9833831787109376,-0.0069427490234375,-0.13726806640625,0.0189198944717645,-0.0197574589401483,0.0325869731605052,79.33462524414062,-84.96223449707031,240.5569000244141
1700075949,0.9871673583984376,0.014923095703125,-0.1378021240234375,0.0293962378054857,-0.0268052481114864,0.0224850680679082,79.52107238769531,-85.02388000488281,240.26763916015625
1700075949,0.9971466064453124,0.0318756103515625,-0.1342010498046875,0.0496229454874992,-0.0282132625579834,0.0132734607905149,79.29960632324219,-84.72293090820312,240.79071044921875
1700075949,0.99560546875,0.035614013671875,-0.129547119140625,0.0592161864042282,-0.026403909549117,0.0070949275977909,79.44029235839844,-84.52066040039062,240.35012817382807
1700075949,0.9947357177734376,0.018035888671875,-0.1274261474609375,0.0578004494309425,-0.0209851767867803,0.0124401580542325,79.16047668457031,-84.82077026367188,240.8884735107422
1700075949,0.9900360107421876,-0.0029296875,-0.126739501953125,0.0419884622097015,-0.0153637761250138,0.0271362792700529,79.12791442871094,-84.66094970703125,240.79861450195312
1700075949,0.9835205078125,-0.0092010498046875,-0.128692626953125,0.0280811693519353,-0.0145448539406061,0.0369929037988185,79.36349487304688,-84.64906311035156,240.52316284179688
1700075949,0.9826202392578124,0.0016937255859375,-0.1341705322265625,0.0232709683477878,-0.0136617496609687,0.0373601540923118,79.41122436523438,-84.60661315917969,240.31396484375
1700075949,0.98785400390625,0.0234527587890625,-0.135772705078125,0.0325193256139755,-0.0219862591475248,0.024686437100172,79.04550170898438,-84.77366638183594,239.997299194336
1700075949,0.99530029296875,0.0349273681640625,-0.133331298828125,0.0438766442239284,-0.0214807912707328,0.017512148246169,78.89479064941406,-84.48849487304688,240.0375518798828
1700075949,0.9942169189453124,0.0340576171875,-0.1278076171875,0.0497403927147388,-0.0171472951769828,0.0133895752951502,79.02333068847656,-84.891845703125,240.06130981445312
1700075949,0.992034912109375,0.019317626953125,-0.1244049072265625,0.0408909730613231,-0.0134825194254517,0.0189380049705505,79.06539916992188,-84.65022277832031,239.894775390625
1700075949,0.989105224609375,0.0013580322265625,-0.1243896484375,0.0245743189007043,-0.0073583140037953,0.030574420467019,79.16438293457031,-85.11140441894531,239.7583923339844
1700075949,0.9889068603515624,-0.004241943359375,-0.12872314453125,0.0088896313682198,-0.0093972301110625,0.0395870916545391,79.01948547363281,-84.70277404785156,240.1709747314453
1700075949,0.9902191162109376,0.0047454833984375,-0.1342010498046875,0.0032778186723589,-0.0117370830848813,0.0346434637904167,78.99917602539062,-84.37591552734375,239.4470672607422
1700075949,0.991607666015625,0.02880859375,-0.13397216796875,0.0164325032383203,-0.0161075964570045,0.0243117306381464,78.83880615234375,-84.97846984863281,239.9909820556641
1700075949,0.999267578125,0.0448760986328125,-0.1273193359375,0.0328522212803363,-0.0137648144736886,0.0055803875438869,78.89112854003906,-84.67739868164062,240.3056030273437
1700075949,0.99981689453125,0.04083251953125,-0.1209869384765625,0.032972864806652,-0.009909888729453,0.0027949875220656,78.80543518066406,-84.39872741699219,240.353744506836
1700075949,0.993072509765625,0.0298919677734375,-0.1233978271484375,0.0177515670657157,-0.009304285980761,0.0051899682730436,78.80955505371094,-84.79286193847656,240.0102081298828
1700075949,0.9896697998046876,0.0169525146484375,-0.1299591064453125,0.0025787388440221,-0.0104614291340112,0.0074730962514877,79.13142395019531,-85.10441589355469,240.12466430664065
1700075949,0.986968994140625,0.00823974609375,-0.1335906982421875,-0.0101820640265941,-0.0113831497728824,0.0112731605768203,78.80973815917969,-85.13655090332031,240.0351409912109
1700075949,0.9869537353515624,0.0091400146484375,-0.134124755859375,-0.0164823047816753,-0.0139365885406732,0.0113115105777978,78.98451232910156,-85.21163940429688,240.5967254638672
1700075949,0.9920196533203124,0.0123291015625,-0.1302947998046875,-0.0083428844809532,-0.0130678648129105,0.0130678648129105,78.83183288574219,-85.00747680664062,240.4414978027344
1700075949,0.9902496337890624,0.0193023681640625,-0.1299285888671875,0.0058427089825272,-0.016250342130661,0.0109458584338426,78.74249267578125,-84.71066284179688,240.0199432373047
1700075950,0.989715576171875,0.031585693359375,-0.130523681640625,0.0221154224127531,-0.0217780005186796,0.0006450176006183,79.02742004394531,-85.10581970214844,240.0162811279297
1700075950,0.994964599609375,0.0321197509765625,-0.1277618408203125,0.0312942713499069,-0.0222059693187475,0.001080977031961,78.68037414550781,-84.80531311035156,240.2096099853516
1700075950,0.99359130859375,0.019317626953125,-0.1292572021484375,0.024066187441349,-0.0279767736792564,0.0069449916481971,78.68144226074219,-85.07357788085938,240.06961059570312
1700075950,0.9893951416015624,0.006683349609375,-0.1353912353515625,0.0138492360711097,-0.0312271621078252,0.0140431150794029,78.7222900390625,-85.17268371582031,240.44024658203125
1700075950,0.9861297607421876,0.001556396484375,-0.138702392578125,0.0051913000643253,-0.0359121933579444,0.0238922834396362,78.86712646484375,-84.9281005859375,240.3596343994141
1700075950,0.9853973388671876,0.0115509033203125,-0.133087158203125,0.0070139672607183,-0.0358773060142993,0.0207367036491632,78.62841796875,-85.13125610351562,240.33990478515625
1700075950,0.9901275634765624,0.023590087890625,-0.12664794921875,0.0231916047632694,-0.0317592620849609,0.0174809899181127,78.64889526367188,-84.7955322265625,240.4330291748047
1700075950,0.9918212890625,0.0280914306640625,-0.1223297119140625,0.0387551188468933,-0.035019502043724,0.0123821012675762,78.36073303222656,-84.98275756835938,240.721435546875
1700075950,0.9902496337890624,0.02325439453125,-0.1202850341796875,0.0362424254417419,-0.0298223439604043,0.0157198403030633,78.30982971191406,-85.15788269042969,240.5876617431641
1700075950,0.9861602783203124,0.0240478515625,-0.120697021484375,0.0273868832737207,-0.0254164095968008,0.0197484046220779,78.65567016601562,-85.27809143066406,240.2237243652344
1700075950,0.9874725341796876,0.019500732421875,-0.1221160888671875,0.0159320943057537,-0.0234089195728302,0.0252379793673753,79.0286865234375,-85.19544982910156,240.39059448242188
1700075950,0.9870758056640624,0.0160675048828125,-0.1251983642578125,0.0040831584483385,-0.0257093571126461,0.0269304178655147,78.74272155761719,-85.20832824707031,240.4547882080078
1700075950,0.9922027587890624,0.0092010498046875,-0.1235504150390625,0.0006141249323263,-0.0221487116068601,0.0309320837259292,78.32524108886719,-85.22584533691406,240.78240966796875
1700075950,0.9952545166015624,0.0049591064453125,-0.11993408203125,2.8229507734e-05,-0.0201420206576585,0.0345467925071716,78.475341796875,-85.13800048828125,240.3324279785156
1700075950,0.9968109130859376,0.0192413330078125,-0.121551513671875,0.0101311970502138,-0.0226523149758577,0.0285046119242906,78.70344543457031,-84.87623596191406,240.09703063964844
1700075950,1.0043792724609375,0.0400848388671875,-0.122650146484375,0.0327931009232997,-0.0238022692501544,0.0143086314201354,78.65638732910156,-85.2705078125,240.57403564453125
1700075950,0.99945068359375,0.0578765869140625,-0.1165924072265625,0.0496836677193641,-0.0188935305923223,-0.0019827233627438,78.61557006835938,-84.95893859863281,240.44577026367188
1700075950,0.9940948486328124,0.04791259765625,-0.108551025390625,0.0455496422946453,-0.0104736797511577,-0.0001624528231332,78.74685668945312,-85.19210815429688,240.1941833496093
1700075950,0.9885711669921876,0.0197296142578125,-0.109039306640625,0.0175385139882564,-0.0061375210061669,0.0155864162370562,78.76718139648438,-85.04411315917969,240.3985137939453
1700075950,0.9867095947265624,0.0017852783203125,-0.1177215576171875,-0.0147043773904442,1.17179088192e-05,0.0205145962536335,78.83772277832031,-84.85281372070312,240.0637969970703
1700075950,0.99188232421875,-0.010284423828125,-0.1175994873046875,-0.036052543669939,0.0106997825205326,0.022400913760066,78.67062377929688,-84.94894409179688,240.17393493652344
1700075950,0.9942474365234376,-0.0252838134765625,-0.1090850830078125,-0.0673209801316261,0.0164274424314498,0.0234432741999626,78.84590148925781,-84.8834228515625,240.2714080810547
1700075950,0.99212646484375,0.00030517578125,-0.129913330078125,-0.0762689411640167,-0.0066938553936779,0.019954266026616,78.64674377441406,-85.18040466308594,240.35940551757807
1700075950,1.0033111572265625,0.0648651123046875,-0.1365509033203125,-0.0269834138453006,-0.0233242306858301,-0.0047066044062376,78.70423889160156,-85.18919372558594,240.50045776367188
1700075950,1.01300048828125,0.0977783203125,-0.118377685546875,0.0479946881532669,-0.0288987588137388,-0.0445200651884079,78.72367858886719,-85.46772766113281,240.58067321777344
1700075950,1.0102996826171875,0.080596923828125,-0.103790283203125,0.0814940631389617,-0.0275818258523941,-0.0643843188881874,78.4803466796875,-85.19338989257812,240.5897521972656
1700075950,1.000152587890625,0.04705810546875,-0.1120758056640625,0.0669516026973724,-0.0288401693105697,-0.0618809424340724,78.1749267578125,-85.1507568359375,239.89181518554688
1700075950,0.995452880859375,0.0201873779296875,-0.1212921142578125,0.0435301661491394,-0.0295895840972661,-0.0566672757267952,78.4619140625,-84.88592529296875,240.67483520507807
1700075950,0.99212646484375,0.0043182373046875,-0.1257781982421875,0.0193151086568832,-0.0345603749155998,-0.0432185754179954,78.52398681640625,-85.43646240234375,240.41744995117188
1700075950,0.989349365234375,0.012176513671875,-0.131439208984375,0.0288169998675584,-0.0484801828861236,-0.0494951158761978,78.27444458007812,-84.79739379882812,240.2383270263672
1700075950,0.9953460693359376,0.033721923828125,-0.13232421875,0.0376070290803909,-0.0557229183614254,-0.0612934492528438,78.41203308105469,-85.18666076660156,240.28823852539065
1700075950,0.9966278076171876,0.040557861328125,-0.1308135986328125,0.0446385741233825,-0.0640170648694038,-0.0606905110180377,78.53369140625,-85.07159423828125,240.23590087890625
1700075950,0.9877166748046876,0.035369873046875,-0.1236114501953125,0.0551585927605629,-0.0682038217782974,-0.0592489428818225,78.66700744628906,-84.91082763671875,240.2565460205078
1700075950,0.9846954345703124,0.01312255859375,-0.13275146484375,0.046577088534832,-0.0765096843242645,-0.0358775742352008,78.41107177734375,-85.15849304199219,240.2971343994141
1700075950,0.979034423828125,0.0125885009765625,-0.1427001953125,0.0433701090514659,-0.0892297476530075,-0.0273221675306558,78.71780395507812,-85.34066772460938,239.8720092773437
1700075950,0.98480224609375,0.010528564453125,-0.13555908203125,0.0480791106820106,-0.0913003534078598,-0.0134372450411319,78.63699340820312,-85.20567321777344,240.4203186035156
1700075950,0.982177734375,0.00640869140625,-0.125640869140625,0.059761069715023,-0.0901069864630699,5.69916483073e-05,78.394775390625,-84.96858215332031,240.5909576416016
1700075950,0.9806365966796876,-0.0011138916015625,-0.1172332763671875,0.0655236169695854,-0.0857998579740524,0.0266342740505933,78.40434265136719,-85.01483154296875,240.1815643310547
1700075950,0.975616455078125,0.002838134765625,-0.116607666015625,0.067467987537384,-0.0846637561917305,0.0445805191993713,78.47914123535156,-85.22023010253906,240.59312438964844
1700075950,0.9802398681640624,0.006561279296875,-0.110015869140625,0.0836357772350311,-0.0796887055039405,0.0523454956710338,78.33280944824219,-85.26203918457031,240.07456970214844
1700075950,0.9855499267578124,-0.0033721923828125,-0.0998077392578125,0.0909586697816848,-0.0678432285785675,0.0682395100593566,78.22720336914062,-85.07821655273438,240.48779296875
1700075950,0.9857177734375,-0.0059967041015625,-0.0952301025390625,0.082361452281475,-0.0575735457241535,0.0811276063323021,78.31793212890625,-85.11408996582031,239.7901763916016
1700075950,0.9931640625,-0.0070648193359375,-0.100860595703125,0.0661550536751747,-0.0573021732270717,0.0886081606149673,78.55232238769531,-85.27897644042969,239.8378753662109
1700075950,0.9951019287109376,0.0028228759765625,-0.1163330078125,0.0561255887150764,-0.0656549111008644,0.0924825295805931,78.53329467773438,-85.11563110351562,240.2338256835937
1700075950,0.999603271484375,0.021942138671875,-0.11962890625,0.0589309595525264,-0.0692304670810699,0.0793398320674896,78.42747497558594,-85.17002868652344,240.38494873046875
1700075950,1.0061798095703125,0.0374603271484375,-0.1156005859375,0.0739107057452201,-0.074695810675621,0.0684003606438636,78.35075378417969,-85.44505310058594,239.979736328125
1700075950,1.0010986328125,0.0433349609375,-0.11328125,0.0860941410064697,-0.080700971186161,0.055888831615448,78.582763671875,-85.14614868164062,239.70489501953125
1700075950,0.996429443359375,0.036468505859375,-0.1142120361328125,0.08079843968153,-0.0862877517938613,0.0509659796953201,78.43865966796875,-85.28681945800781,240.2529144287109
1700075950,0.9956207275390624,0.0289306640625,-0.1152496337890625,0.0678456276655197,-0.0926897227764129,0.0471635162830352,78.08088684082031,-85.33729553222656,240.4216766357422
1700075950,0.9992523193359376,0.0239410400390625,-0.115631103515625,0.0550259687006473,-0.0977191030979156,0.0434164479374885,78.25028991699219,-85.12380981445312,240.01695251464844
1700075950,0.9995574951171876,0.020965576171875,-0.1169586181640625,0.0394241064786911,-0.1063560023903846,0.041218277066946,78.17755126953125,-85.40028381347656,240.2779693603516
1700075950,0.9949798583984376,0.0252532958984375,-0.1172943115234375,0.0381529778242111,-0.1156325861811637,0.0336080268025398,78.35917663574219,-85.09353637695312,240.2201690673828
1700075950,0.9958038330078124,0.032470703125,-0.105224609375,0.0391452722251415,-0.1157950386404991,0.0263549089431762,78.19430541992188,-85.2723388671875,240.26974487304688
1700075950,0.9958038330078124,0.0494842529296875,-0.0934295654296875,0.0439887642860412,-0.116167351603508,0.0118795624002814,78.25267028808594,-85.35061645507812,239.8959808349609
1700075950,1.001861572265625,0.0636138916015625,-0.0944061279296875,0.0542118400335311,-0.1167388632893562,-0.003696467494592,78.429443359375,-85.21139526367188,240.65347290039065
1700075950,1.0069580078125,0.057373046875,-0.0990753173828125,0.0494178831577301,-0.1175599172711372,-0.0064203487709164,78.07194519042969,-85.45513916015625,240.2544860839844
1700075950,1.002593994140625,0.0343780517578125,-0.10137939453125,0.03810690715909,-0.118705078959465,0.0052834451198577,78.17697143554688,-85.28691101074219,239.79519653320312
1700075950,0.99676513671875,0.0053863525390625,-0.096038818359375,0.0140343261882662,-0.1132421344518661,0.0233945380896329,77.91259765625,-85.33259582519531,240.3189697265625
1700075950,0.9893341064453124,-0.0128326416015625,-0.0958404541015625,0.0031491878908127,-0.1098436787724495,0.0492900498211383,78.4017333984375,-85.47998046875,240.4410858154297
1700075950,0.9857177734375,-0.0002288818359375,-0.095550537109375,0.0200727768242359,-0.1107251793146133,0.0628607198596,78.28947448730469,-85.48573303222656,239.9193878173828
1700075950,0.9956207275390624,0.02197265625,-0.0891265869140625,0.0644112154841423,-0.1098564565181732,0.0626274272799491,78.150634765625,-85.50328063964844,240.8194274902344
1700075950,1.004058837890625,0.030303955078125,-0.081817626953125,0.1083573624491691,-0.1011958569288253,0.0529510974884033,77.96493530273438,-85.44943237304688,240.67330932617188
1700075950,1.0080718994140625,0.011871337890625,-0.0823516845703125,0.1306211203336715,-0.067561998963356,0.0532562956213951,78.42906188964844,-85.41763305664062,240.31349182128903
1700075950,0.9991455078125,-0.025634765625,-0.1031036376953125,0.1588471680879593,-0.0371071547269821,0.0605981014668941,78.61180114746094,-85.2574462890625,240.5058441162109
1700075950,0.9876251220703124,-0.0642547607421875,-0.102386474609375,0.1095736324787139,-0.0319715142250061,0.1590210795402526,78.33682250976562,-85.02912902832031,240.71026611328125
1700075950,0.97161865234375,-0.02056884765625,-0.0848541259765625,0.0896286889910698,-0.0174293238669633,0.245776742696762,78.22021484375,-84.97187805175781,240.259521484375
1700075950,0.9772186279296876,0.0121612548828125,-0.081024169921875,0.0915901064872741,0.0079047949984669,0.3481869995594024,78.31852722167969,-85.13984680175781,240.73452758789065
1700075950,0.9821014404296876,0.0211181640625,-0.058074951171875,0.1142432168126106,0.0642982944846153,0.4483687281608581,78.57669067382812,-85.17527770996094,240.1889190673828
1700075950,0.9798583984375,-0.0188751220703125,-0.0508575439453125,0.1430205404758453,0.1226966232061386,0.5551228523254395,78.37973022460938,-84.81553649902344,240.6024169921875
1700075950,0.990570068359375,-0.089324951171875,-0.03204345703125,0.1241696178913116,0.1911864727735519,0.6951087117195129,78.2109375,-85.16777038574219,240.7654571533203
1700075950,0.9925689697265624,-0.124053955078125,-0.0403289794921875,0.1163734793663024,0.2616113722324371,0.8223202228546143,78.09144592285156,-85.13908386230469,241.0715789794922
1700075950,1.0064544677734375,-0.147979736328125,-0.046905517578125,0.1198217421770095,0.3246278762817383,0.9214497208595276,78.41290283203125,-85.23637390136719,240.4979705810547
1700075950,1.0356903076171875,-0.155181884765625,-0.0455169677734375,0.1779670715332031,0.3826025128364563,0.9777774810791016,78.16041564941406,-85.36257934570312,240.8035125732422
1700075950,1.0755767822265625,-0.1599273681640625,-0.0611114501953125,0.2548708915710449,0.4429662525653839,1.0246671438217163,77.96176147460938,-85.12481689453125,240.45181274414065
1700075950,1.1137237548828125,-0.1470184326171875,-0.1065521240234375,0.3586359024047851,0.5019621849060059,1.0623959302902222,77.93594360351562,-85.11335754394531,240.93719482421875
1700075950,1.15557861328125,-0.1257476806640625,-0.13885498046875,0.5782114267349243,0.649300217628479,1.0894384384155271,78.42018127441406,-84.675048828125,240.44631958007807
1700075950,1.1676025390625,-0.08038330078125,-0.2431793212890625,1.110528588294983,0.7376149296760559,1.0069886445999146,78.11053466796875,-85.22325134277344,240.3764038085937
1700075950,1.2060089111328125,-0.0333404541015625,-0.3121490478515625,1.4773379564285278,0.7183722257614136,0.9129473567008972,78.4158935546875,-85.44795227050781,240.6663055419922
1700075950,1.310699462890625,-0.0020599365234375,-0.304168701171875,1.6000053882598877,0.7511948943138123,0.871588408946991,78.06315612792969,-85.27944946289062,240.4038543701172
1700075950,1.290740966796875,-0.0297698974609375,-0.297760009765625,1.588412880897522,0.8154823184013367,0.8089311718940735,78.258544921875,-85.19064331054688,240.7445068359375
1700075950,1.205413818359375,-0.13250732421875,-0.31170654296875,1.5343596935272217,0.805911660194397,0.7409753203392029,77.90602111816406,-85.00906372070312,240.7629547119141
1700075950,1.138916015625,-0.212005615234375,-0.3116302490234375,1.386383295059204,0.7960646748542786,0.6617292165756226,77.90496826171875,-85.27963256835938,240.7838897705078
1700075950,1.099365234375,-0.2850341796875,-0.3301849365234375,1.1725698709487915,0.8048940896987915,0.5883694887161255,78.09300231933594,-85.42239379882812,240.95974731445312
1700075950,1.0571746826171875,-0.3421630859375,-0.3171539306640625,0.9969037175178528,0.8030061721801758,0.4782531261444092,78.00688171386719,-84.85299682617188,240.50421142578125
1700075950,1.02215576171875,-0.3952789306640625,-0.2735137939453125,0.8721165657043457,0.7668564319610596,0.3518147766590118,77.76190185546875,-85.21041870117188,240.56871032714844
1700075950,0.9826812744140624,-0.40789794921875,-0.2050018310546875,0.7733654379844666,0.7223163843154907,0.2140792608261108,77.93898010253906,-85.06997680664062,241.2238311767578
1700075950,0.9477691650390624,-0.3829803466796875,-0.1260986328125,0.6684560775756836,0.6651066541671753,0.0285205915570259,77.74172973632812,-85.04067993164062,240.71511840820312
1700075950,0.933258056640625,-0.3539886474609375,-0.07037353515625,0.5651693940162659,0.5982639789581299,-0.1947375237941742,78.09820556640625,-85.05682373046875,240.86959838867188
1700075950,0.9298858642578124,-0.34814453125,-0.03485107421875,0.4594155251979828,0.544387936592102,-0.4106613099575043,77.87141418457031,-84.78877258300781,240.64463806152344
1700075950,0.9080352783203124,-0.349151611328125,-0.022369384765625,0.3513859808444977,0.4764911830425262,-0.6111408472061157,77.97511291503906,-84.80619812011719,241.0116577148437
1700075950,0.89581298828125,-0.3412322998046875,-0.0062713623046875,0.2660868167877197,0.385685384273529,-0.804194986820221,78.30618286132812,-84.94096374511719,240.8920440673828
1700075950,0.905609130859375,-0.3211212158203125,0.0100860595703125,0.1829937845468521,0.2907524704933166,-0.9843104481697084,78.19853210449219,-85.17118835449219,241.1706085205078
1700075950,0.923187255859375,-0.287994384765625,0.013641357421875,0.0871551409363746,0.2120350301265716,-1.1640799045562744,77.85771179199219,-84.99102783203125,240.7649841308593
1700075950,0.9407501220703124,-0.26123046875,0.013427734375,-0.009133843705058,0.1135436072945594,-1.3316422700881958,78.14810180664062,-84.91424560546875,240.70333862304688
1700075950,0.9638824462890624,-0.2371063232421875,0.02337646484375,-0.103279247879982,0.0147621678188443,-1.4901726245880127,77.87840270996094,-84.9442138671875,240.71011352539065
1700075950,0.9861297607421876,-0.2283935546875,0.0377349853515625,-0.2095913141965866,-0.0864555314183235,-1.6180235147476196,77.94964599609375,-85.13946533203125,240.5736846923828
1700075950,1.0044708251953125,-0.232269287109375,0.0508575439453125,-0.3358195424079895,-0.1762594580650329,-1.7054036855697632,77.97576904296875,-84.95716857910156,240.877197265625
1700075950,1.0084075927734375,-0.2272186279296875,0.0463409423828125,-0.4917793273925781,-0.2454049736261367,-1.7654491662979126,77.95167541503906,-85.09748840332031,240.704345703125
1700075950,1.009857177734375,-0.2243499755859375,0.020660400390625,-0.6863855719566345,-0.3101517260074615,-1.812178611755371,77.8941650390625,-85.14816284179688,240.2815093994141
1700075951,1.0229949951171875,-0.207611083984375,-0.0052490234375,-0.8785256743431091,-0.3774119913578033,-1.845298409461975,78.07603454589844,-84.5771484375,240.2193603515625
1700075951,1.0477142333984375,-0.1800994873046875,-0.019012451171875,-1.032752513885498,-0.4520931541919708,-1.888907670974732,77.75755310058594,-85.19744873046875,240.2662353515625
1700075951,1.082427978515625,-0.1497802734375,-0.0213470458984375,-1.1409940719604492,-0.514124870300293,-1.9278833866119385,78.36837768554688,-84.93507385253906,240.1715850830078
1700075951,1.1125335693359375,-0.125396728515625,-0.0284423828125,-1.2313882112503052,-0.5698949098587036,-1.9267078638076784,77.60600280761719,-84.91645812988281,240.2685394287109
1700075951,1.117401123046875,-0.0779876708984375,-0.0457611083984375,-1.294133543968201,-0.6243613362312317,-1.9308059215545648,77.86068725585938,-84.92446899414062,240.716049194336
1700075951,1.1179962158203125,-0.0406646728515625,-0.071502685546875,-1.3492138385772705,-0.6782394647598267,-1.9551703929901123,77.91990661621094,-84.70942687988281,240.81561279296875
1700075951,1.115142822265625,-0.022125244140625,-0.093963623046875,-1.3773146867752075,-0.7170649170875549,-1.9733392000198364,78.21156311035156,-85.0257568359375,240.5335235595703
1700075951,1.108856201171875,-0.00360107421875,-0.1011505126953125,-1.358304500579834,-0.7484310865402222,-1.96028733253479,77.87306213378906,-85.05348205566406,240.21864318847656
1700075951,1.100677490234375,0.0240936279296875,-0.092071533203125,-1.289394497871399,-0.7710892558097839,-1.9322572946548464,78.39305114746094,-84.97465515136719,240.35386657714844
1700075951,1.09246826171875,0.053375244140625,-0.08209228515625,-1.193170428276062,-0.787360668182373,-1.9117586612701416,77.99076843261719,-84.95339965820312,240.78689575195312
1700075951,1.084442138671875,0.0760040283203125,-0.0817108154296875,-1.0631389617919922,-0.7854902744293213,-1.888700008392334,78.08052062988281,-85.13487243652344,240.08074951171875
1700075951,1.072418212890625,0.102569580078125,-0.0858001708984375,-0.9013649821281432,-0.7741015553474426,-1.844447016716004,78.04890441894531,-84.9354248046875,240.4661865234375
1700075951,1.057403564453125,0.126373291015625,-0.0980987548828125,-0.7249193787574768,-0.7487325668334961,-1.7853456735610962,78.08616638183594,-85.11805725097656,240.4850006103516
1700075951,1.037200927734375,0.1450042724609375,-0.120391845703125,-0.5769945979118347,-0.703987181186676,-1.7166403532028198,78.01622009277344,-85.00387573242188,240.2608642578125
1700075951,1.0149383544921875,0.1647491455078125,-0.14813232421875,-0.400485634803772,-0.6769782304763794,-1.6314293146133425,78.08509826660156,-85.13128662109375,240.2603302001953
1700075951,0.987457275390625,0.1922149658203125,-0.141876220703125,-0.1915175020694732,-0.6235144734382629,-1.540225863456726,78.55909729003906,-84.71821594238281,240.0927276611328
1700075951,0.9675445556640624,0.2180328369140625,-0.1385040283203125,0.0426787547767162,-0.553586483001709,-1.4404377937316897,78.12429809570312,-85.10008239746094,240.83447265625
1700075951,0.9443817138671876,0.240478515625,-0.1317596435546875,0.272040843963623,-0.4632890820503235,-1.3189544677734375,78.16096496582031,-85.08137512207031,240.6496734619141
1700075951,0.9140167236328124,0.2567291259765625,-0.13519287109375,0.4718921780586242,-0.3739602863788605,-1.1535191535949707,78.29814147949219,-84.9471435546875,240.3140106201172
1700075951,0.8769378662109375,0.27325439453125,-0.148162841796875,0.6562063694000244,-0.3017614483833313,-0.990673005580902,78.17753601074219,-84.94342041015625,240.7481689453125
1700075951,0.858306884765625,0.2729034423828125,-0.1527099609375,0.802387535572052,-0.2320433557033538,-0.8099743127822876,78.18264770507812,-85.30638122558594,239.82403564453125
1700075951,0.8557586669921875,0.284271240234375,-0.1693267822265625,0.9271883368492126,-0.1574543416500091,-0.6210358738899231,78.54005432128906,-85.09835815429688,240.590560913086
1700075951,0.8685302734375,0.3078765869140625,-0.1901092529296875,1.0264986753463743,-0.075748287141323,-0.4343352019786834,78.11056518554688,-85.00509643554688,240.2584228515625
1700075951,0.872283935546875,0.3281707763671875,-0.2100982666015625,1.092072367668152,-0.0089612705633044,-0.2437010705471038,78.15351867675781,-85.16624450683594,240.14825439453125
1700075951,0.855682373046875,0.34912109375,-0.2292938232421875,1.1111962795257568,0.03971678763628,-0.0657859370112419,77.87559509277344,-84.86082458496094,240.3527374267578
1700075951,0.8398590087890625,0.350616455078125,-0.245849609375,1.0845723152160645,0.1090473905205726,0.1189162656664848,78.24058532714844,-85.07357788085938,240.14015197753903
1700075951,0.8369293212890625,0.3413848876953125,-0.25445556640625,1.027494192123413,0.1734327673912048,0.3137166500091553,78.42724609375,-84.94888305664062,240.19598388671875
1700075951,0.84130859375,0.3429107666015625,-0.2615509033203125,0.9607194066047668,0.2299410551786422,0.4996524155139923,78.17739868164062,-85.00520324707031,240.1170196533203
1700075951,0.8571929931640625,0.353485107421875,-0.28826904296875,0.9077682495117188,0.3410625159740448,0.6435949206352234,78.41400146484375,-85.09158325195312,239.91444396972656
1700075951,0.909698486328125,0.3261260986328125,-0.3517913818359375,0.6928863525390625,0.2666063904762268,0.8748569488525391,78.42037963867188,-84.94876098632812,240.06280517578125
1700075951,0.936859130859375,0.27813720703125,-0.2548065185546875,0.6419182419776917,0.2478276491165161,0.5765642523765564,78.49795532226562,-84.97750854492188,240.2497100830078
1700075951,1.1496429443359375,-0.2285919189453125,-0.12298583984375,0.5246608257293701,0.1282373368740081,0.0858970656991005,77.87992858886719,-84.75221252441406,240.74966430664065
1700075951,1.234222412109375,-0.7830810546875,0.130340576171875,0.1280402541160583,0.2937581241130829,-0.3143432736396789,78.20487976074219,-85.16326904296875,240.92333984375
1700075951,1.1936798095703125,-1.13330078125,0.079498291015625,-0.3557985723018646,0.4974992573261261,-0.1408519297838211,77.99522399902344,-85.21211242675781,240.89669799804688
1700075951,1.049591064453125,-1.036712646484375,-0.13934326171875,-0.7077478170394897,0.5235316753387451,0.7623173594474792,78.34306335449219,-85.33949279785156,240.54269409179688
1700075951,1.0731201171875,-0.5943603515625,-0.2601776123046875,-0.933737814426422,0.5164905190467834,1.6812442541122437,78.25804138183594,-85.19999694824219,240.62991333007807
1700075951,1.2816619873046875,-0.251983642578125,-0.2295989990234375,-0.9970781803131104,0.6306346654891968,1.78687584400177,78.18179321289062,-85.34010314941406,240.109115600586
1700075951,1.316192626953125,-0.21246337890625,-0.178253173828125,-0.8792865872383118,0.7300800681114197,1.4931739568710327,78.23048400878906,-85.2015380859375,240.9783630371093
1700075951,1.1135406494140625,-0.025177001953125,-0.140411376953125,-0.5411306023597717,0.7458859086036682,1.369931697845459,78.08383178710938,-85.10836791992188,240.7717437744141
1700075951,1.0080718994140625,0.2783050537109375,-0.07147216796875,-0.3001305162906647,0.6831788420677185,1.2315874099731443,78.16661071777344,-85.08612060546875,240.56100463867188
1700075951,1.06976318359375,0.330841064453125,-0.0619049072265625,-0.0546091832220554,0.6521122455596924,0.9030486345291138,78.02894592285156,-85.16619873046875,240.6652374267578
1700075951,1.07049560546875,0.18426513671875,-0.1027374267578125,0.2191752195358276,0.6377554535865784,0.7536844611167908,78.17373657226562,-85.12442016601562,240.3648223876953
1700075951,0.9547119140625,0.078033447265625,-0.1981964111328125,0.4266570508480072,0.5876525640487671,0.6838014721870422,78.28733825683594,-85.08111572265625,240.4062042236328
1700075951,0.9465179443359376,-0.0281524658203125,-0.3149871826171875,0.5662956237792969,0.4653703570365906,0.6698398590087891,77.99787902832031,-84.90899658203125,240.58200073242188
1700075951,1.0163421630859375,-0.0616912841796875,-0.3654937744140625,0.6439598202705383,0.3171960711479187,0.6406567096710205,78.10675048828125,-84.56278991699219,240.6978454589844
1700075951,1.1014556884765625,-0.02716064453125,-0.314666748046875,0.5958846807479858,0.2318987399339676,0.5576505064964294,78.1240234375,-85.22671508789062,241.2477569580078
1700075951,1.12261962890625,0.03106689453125,-0.2219085693359375,0.541408121585846,0.2421348690986633,0.4266983270645141,78.05055236816406,-85.0709228515625,240.2465209960937
1700075951,1.0738067626953125,0.06463623046875,-0.1143341064453125,0.5544371008872986,0.3043939769268036,0.3119783997535705,78.11376953125,-85.22718811035156,240.6539764404297
1700075951,1.0229034423828125,0.07843017578125,-0.0350189208984375,0.5632143616676331,0.3814405798912048,0.2203856259584427,78.28892517089844,-85.43623352050781,240.33615112304688
1700075951,1.018463134765625,0.026458740234375,-0.0277862548828125,0.4216010272502899,0.4478041529655456,0.1656078696250915,78.30339050292969,-85.40901184082031,240.9952850341797
1700075951,1.032470703125,-0.098907470703125,-0.1022186279296875,0.1775588095188141,0.4600490927696228,0.1910549104213714,78.20645141601562,-85.35018920898438,240.62905883789065
1700075951,1.021942138671875,-0.1832122802734375,-0.2012481689453125,0.0583240278065204,0.4016989767551422,0.2541031241416931,78.13154602050781,-85.06199645996094,240.93263244628903
1700075951,1.0054931640625,-0.1915435791015625,-0.287139892578125,0.0700928047299385,0.2922941744327545,0.2949970066547394,78.28569030761719,-85.0223388671875,240.60989379882807
1700075951,1.0012969970703125,-0.154510498046875,-0.3325653076171875,0.1880127787590026,0.2018638849258422,0.2813589870929718,78.15351867675781,-85.12715148925781,241.1770172119141
1700075951,0.98724365234375,-0.11090087890625,-0.29852294921875,0.3547141551971435,0.1632381975650787,0.2534583508968353,77.88087463378906,-85.17588806152344,240.9430694580078
1700075951,0.9615020751953124,-0.0862274169921875,-0.242767333984375,0.4838894307613373,0.1493777632713318,0.2432709783315658,78.3492431640625,-84.96195983886719,240.51275634765625
1700075951,0.9514617919921876,-0.1054534912109375,-0.216217041015625,0.5047590136528015,0.1399317979812622,0.2656148970127105,78.27047729492188,-84.8812255859375,240.41737365722656
1700075951,0.959564208984375,-0.1634979248046875,-0.2143402099609375,0.3810458779335022,0.1369277536869049,0.2978146374225616,78.12857055664062,-85.05201721191406,240.2324066162109
1700075951,0.9526214599609376,-0.233734130859375,-0.2174072265625,0.1795407384634018,0.1450306922197342,0.3505444228649139,78.21311950683594,-84.81324768066406,240.2358856201172
1700075951,0.9312744140625,-0.2740631103515625,-0.216888427734375,0.0091817807406187,0.1431680768728256,0.4243038892745971,78.39309692382812,-84.80210876464844,240.29714965820312
1700075951,0.9150848388671876,-0.2359161376953125,-0.2290191650390625,-0.0708768367767334,0.1123137548565864,0.4795703291893005,78.68653869628906,-84.7838134765625,240.3660430908203
1700075951,0.9432830810546876,-0.1359710693359375,-0.2442626953125,-0.0433147177100181,0.0801550224423408,0.468515545129776,78.68510437011719,-85.19859313964844,240.538803100586
1700075951,0.9970550537109376,-0.056243896484375,-0.224884033203125,0.0698168948292732,0.0591994076967239,0.4369895756244659,78.22796630859375,-85.01005554199219,241.1305084228516
1700075951,1.0147705078125,-0.0207366943359375,-0.191864013671875,0.1946355253458023,0.04739361256361,0.4160595238208771,78.28341674804688,-85.173828125,240.3056030273437
1700075951,1.0006866455078125,-0.02874755859375,-0.1848297119140625,0.2711167335510254,0.0443139337003231,0.4258999228477478,78.32911682128906,-85.02604675292969,240.35223388671875
1700075951,0.9809722900390624,-0.0727081298828125,-0.1894378662109375,0.3189463019371032,0.0493891201913356,0.4528369903564453,78.42205810546875,-85.00399780273438,240.55349731445312
1700075951,0.9664459228515624,-0.1385040283203125,-0.1942138671875,0.3018717169761657,0.0660056471824646,0.4985772967338562,78.17109680175781,-84.77586364746094,240.8785552978516
1700075951,0.94244384765625,-0.17987060546875,-0.207733154296875,0.2758387625217438,0.0846395194530487,0.5418741703033447,78.36924743652344,-84.74685668945312,240.3767547607422
1700075951,0.9193267822265624,-0.1834869384765625,-0.2169189453125,0.2158673107624054,0.108459897339344,0.5689055323600769,78.24357604980469,-84.62091064453125,240.7397308349609
1700075951,0.922119140625,-0.1812591552734375,-0.2149505615234375,0.1652185171842575,0.1203567683696746,0.6120873689651489,78.17695617675781,-84.59196472167969,241.24815368652344
1700075951,0.929290771484375,-0.157318115234375,-0.2293853759765625,0.1650219708681106,0.1029434278607368,0.6737861633300781,78.38900756835938,-84.74638366699219,240.84185791015625
1700075951,0.9613189697265624,-0.1002044677734375,-0.24395751953125,0.1474443078041076,0.092816486954689,0.6839509010314941,78.38859558105469,-84.88479614257812,240.8807373046875
1700075951,1.0179901123046875,-0.0662994384765625,-0.2254638671875,0.1934437602758407,0.1049543768167495,0.683441698551178,78.28622436523438,-84.63127136230469,240.31106567382807
1700075951,1.0082244873046875,-0.0349884033203125,-0.2259063720703125,0.2500433921813965,0.0917014256119728,0.6866089701652527,77.98550415039062,-84.78691101074219,240.7855529785156
1700075951,0.9720306396484376,0.0003204345703125,-0.2317352294921875,0.2843212187290191,0.0953110754489898,0.6709317564964294,78.14743041992188,-84.64408874511719,240.78094482421875
1700075951,0.9656219482421876,-0.0066375732421875,-0.2121734619140625,0.2890301942825317,0.1306794434785843,0.656007707118988,78.56275939941406,-84.763427734375,240.266357421875
1700075951,0.95196533203125,-0.0516204833984375,-0.199432373046875,0.2411782592535019,0.1589486449956894,0.6462096571922302,78.23670959472656,-84.81143188476562,240.5349884033203
1700075951,0.9555206298828124,-0.1417083740234375,-0.18719482421875,0.1094545871019363,0.1947425901889801,0.6756412982940674,78.03167724609375,-84.80732727050781,240.44869995117188
1700075951,0.9643096923828124,-0.20599365234375,-0.223388671875,-0.0601067468523979,0.1654153317213058,0.7671805620193481,78.16712951660156,-84.73355102539062,240.7754821777344
1700075951,0.9867706298828124,-0.1705474853515625,-0.2756195068359375,-0.0742971301078796,0.1337527334690094,0.808660089969635,78.1854248046875,-84.71897888183594,240.45339965820312
1700075951,1.0321502685546875,-0.08819580078125,-0.2561492919921875,0.0544515252113342,0.1272045522928238,0.7714959383010864,78.06756591796875,-84.71961975097656,240.44911193847656
1700075951,1.0373687744140625,0.0440521240234375,-0.242767333984375,0.1743427813053131,0.0909754484891891,0.7309407591819763,78.34111022949219,-84.40919494628906,240.373764038086
1700075951,1.021209716796875,0.161285400390625,-0.216156005859375,0.2974287569522857,0.1127499863505363,0.69547039270401,78.32542419433594,-84.76823425292969,240.7711181640625
1700075951,1.0104217529296875,0.144775390625,-0.161895751953125,0.3437749445438385,0.1757534444332122,0.7008081674575806,78.45643615722656,-84.539794921875,240.9279937744141
1700075951,0.99017333984375,0.0525665283203125,-0.127227783203125,0.3048200905323028,0.2391143143177032,0.750975489616394,78.23085021972656,-84.33183288574219,240.62371826171875
1700075951,0.971832275390625,-0.0402679443359375,-0.1260223388671875,0.2409540265798568,0.2857885956764221,0.8472306132316589,78.21011352539062,-84.71444702148438,240.9285430908203
1700075951,0.971588134765625,-0.0815887451171875,-0.172821044921875,0.1636019796133041,0.2985651195049286,0.9372926354408264,78.39659118652344,-84.63153076171875,240.7564392089844
1700075951,1.009307861328125,-0.0748291015625,-0.2347564697265625,0.1409957408905029,0.2970345914363861,0.9941487312316896,78.3115234375,-84.5289306640625,240.37692260742188
1700075951,1.0455322265625,-0.0418853759765625,-0.268402099609375,0.2192777544260025,0.2680937647819519,1.0204482078552246,78.43351745605469,-84.47023010253906,240.48681640625
1700075951,1.057525634765625,0.0127105712890625,-0.29852294921875,0.3270511031150818,0.2374074906110763,1.031832218170166,78.26475524902344,-84.55406188964844,240.7648468017578
1700075951,1.077911376953125,0.0377044677734375,-0.2550811767578125,0.4308046400547027,0.2536573112010956,1.068498611450195,78.42735290527344,-84.883544921875,240.6705780029297
1700075951,1.080169677734375,0.06243896484375,-0.2366943359375,0.5324679017066956,0.276296317577362,1.0977320671081543,78.3531494140625,-84.98286437988281,240.9070281982422
1700075951,1.1026458740234375,0.0927276611328125,-0.2559814453125,0.6544222831726074,0.1776139289140701,1.1289973258972168,78.25970458984375,-84.51689147949219,240.7734375
1700075951,1.211273193359375,0.0870819091796875,-0.107513427734375,0.4610269963741302,0.2016444355249405,1.261813998222351,78.33609008789062,-84.52934265136719,240.2047119140625
1700075951,1.2557525634765625,0.1113433837890625,-0.0367279052734375,0.3597576320171356,0.2589862942695617,1.3258280754089355,78.18417358398438,-84.8238525390625,240.3032684326172
1700075951,1.242889404296875,0.03204345703125,-0.0905914306640625,0.3459994792938232,0.2096499055624008,1.4012925624847412,78.42610168457031,-84.77796936035156,240.57574462890625
1700075951,1.3133392333984375,0.0374908447265625,-0.1324310302734375,0.3618974983692169,0.1446096450090408,1.46699059009552,78.38529968261719,-84.84381103515625,240.3180389404297
1700075951,1.4035491943359375,0.0904083251953125,-0.1132354736328125,0.4344672858715057,0.1209181621670723,1.4508395195007324,78.31564331054688,-84.84786987304688,241.09376525878903
1700075951,1.4825286865234375,0.07470703125,-0.074310302734375,0.4590727686882019,0.0654035061597824,1.4796013832092283,78.65390014648438,-84.80374145507812,240.53846740722656
1700075951,1.5554962158203125,0.0727386474609375,-0.0499420166015625,0.379787802696228,0.004677309654653,1.5087531805038452,78.47413635253906,-84.98712158203125,240.6718292236328
1700075952,1.640716552734375,-0.0023040771484375,-0.014556884765625,0.3683375418186188,-0.0059452406130731,1.5479711294174194,78.43055725097656,-84.83126831054688,240.70851135253903
1700075952,1.6660308837890625,-0.1089019775390625,0.030181884765625,0.3724100589752197,-0.0347502566874027,1.5906590223312378,78.06446838378906,-85.03889465332031,240.1827850341797
1700075952,1.685333251953125,-0.1862640380859375,0.09942626953125,0.4641319811344147,-0.0683513581752777,1.6325539350509644,78.35780334472656,-84.86140441894531,240.4171142578125
1700075952,1.7163543701171875,-0.27301025390625,0.2154998779296875,0.5952404737472534,-0.0608476363122463,1.6370757818222046,78.27900695800781,-84.6754150390625,240.5281982421875
1700075952,1.722198486328125,-0.3810882568359375,0.2848968505859375,0.6828880310058594,-0.0079053277149796,1.5273356437683103,78.45501708984375,-84.77447509765625,240.87994384765625
1700075952,1.715087890625,-0.5590972900390625,0.272735595703125,0.6885054111480713,0.0882225334644317,1.4095927476882937,78.56278991699219,-85.20097351074219,240.66409301757807
1700075952,1.65814208984375,-0.707672119140625,0.199249267578125,0.6015961170196533,0.2277977466583252,1.4181053638458252,78.43171691894531,-84.76324462890625,240.9172821044922
1700075952,1.508636474609375,-0.7410125732421875,-0.0238800048828125,0.3422239124774933,0.617991030216217,1.6817044019699097,78.59675598144531,-85.06219482421875,240.3675994873047
1700075952,1.3500213623046875,-0.5383758544921875,-0.578155517578125,-0.0946151912212371,1.2752091884613037,2.321441173553467,78.32806396484375,-84.98330688476562,240.4539337158203
1700075952,1.250823974609375,-0.14141845703125,-1.260589599609375,-0.6101619005203247,1.470011591911316,2.8000965118408203,78.5264892578125,-85.05874633789062,240.4728546142578
1700075952,1.3739166259765625,0.01849365234375,-1.5776519775390625,-1.083834171295166,1.253299593925476,2.745634317398072,78.20915222167969,-84.68746948242188,240.2050628662109
1700075952,1.7122039794921875,-0.0009918212890625,-1.527679443359375,-1.098196506500244,1.091230034828186,2.7089242935180664,78.67240905761719,-84.72529602050781,240.5614318847656
1700075952,1.67791748046875,0.2099456787109375,-1.2346038818359375,-0.53490149974823,1.2717931270599363,2.9072015285491943,78.54740905761719,-84.83354187011719,240.4102783203125
1700075952,1.4401397705078125,0.4715118408203125,-0.998382568359375,-0.0820056572556495,1.092449426651001,3.242790699005127,78.14852905273438,-84.704833984375,240.41241455078125
1700075952,1.4006195068359375,0.6888580322265625,-0.5351104736328125,-0.0658463910222053,1.0092743635177612,3.3822691440582275,78.8603515625,-85.05146789550781,240.4237823486328
1700075952,1.5646514892578125,0.8503875732421875,-0.31622314453125,0.1600879430770874,1.4055839776992798,3.174876928329468,78.72752380371094,-85.16128540039062,240.68331909179688
1700075952,1.6466827392578125,1.037506103515625,-0.2926483154296875,0.8513489365577698,1.543516755104065,2.710246086120605,78.16046142578125,-85.12254333496094,240.6135711669922
1700075952,1.7629241943359375,1.1335906982421875,-0.22857666015625,1.4076193571090698,1.4479223489761353,2.025871992111206,78.26828002929688,-84.8248291015625,240.49647521972656
1700075952,1.8165283203125,0.9149627685546876,-0.396636962890625,1.7469428777694702,1.3616670370101929,1.5550522804260254,78.23094177246094,-85.07464599609375,241.00198364257807
1700075952,1.632293701171875,0.5509033203125,-0.48870849609375,1.711008071899414,1.3893029689788818,1.3657279014587402,78.17263793945312,-84.74887084960938,240.4439239501953
1700075952,1.41033935546875,0.3542633056640625,-0.597259521484375,1.203932523727417,1.4056864976882937,1.364951252937317,78.47410583496094,-84.68217468261719,240.70265197753903
1700075952,1.2489166259765625,0.2692718505859375,-0.721099853515625,0.3484290838241577,1.3297277688980105,1.2855496406555176,78.21478271484375,-85.07826232910156,240.3251037597656
1700075952,1.2189178466796875,0.141326904296875,-0.7752532958984375,-0.462463766336441,1.118067741394043,0.9713123440742492,78.30909729003906,-84.79786682128906,240.33807373046875
1700075952,1.244110107421875,-0.01873779296875,-0.6409454345703125,-0.9953921437263488,0.8910694718360901,0.6401925086975098,78.24795532226562,-85.11119079589844,240.28033447265625
1700075952,1.086395263671875,-0.0654296875,-0.4031982421875,-1.221086502075195,0.7686975002288818,0.4601060748100281,78.32037353515625,-84.85421752929688,240.37872314453125
1700075952,0.716522216796875,-0.046051025390625,-0.1807403564453125,-1.2461698055267334,0.7246967554092407,0.3072651326656341,78.52481079101562,-84.94830322265625,241.0183563232422
1700075952,0.346649169921875,-0.0484771728515625,-0.05780029296875,-1.1992970705032349,0.6291576623916626,-0.0155954714864492,78.33607482910156,-85.02908325195312,240.8097686767578
1700075952,0.12823486328125,-0.0738525390625,-0.0813446044921875,-1.1284420490264893,0.4647618234157562,-0.3707104325294494,78.18275451660156,-85.24484252929688,240.67974853515625
1700075952,0.0820770263671875,-0.0410919189453125,-0.0725555419921875,-0.9975977540016174,0.3067522048950195,-0.657590925693512,78.17532348632812,-85.16265869140625,240.91880798339844
1700075952,0.1275634765625,-0.003509521484375,0.071136474609375,-0.9362403750419616,0.0476399585604667,-0.8882291913032532,78.16798400878906,-85.21829223632812,240.74546813964844
1700075952,0.121337890625,0.0308990478515625,0.133941650390625,-0.9473806619644164,-0.1334099918603897,-1.1709152460098269,78.25311279296875,-84.95962524414062,241.1779327392578
1700075952,0.043853759765625,0.008392333984375,0.0626983642578125,-1.0473309755325315,-0.3121488392353058,-1.453620433807373,78.36988830566406,-85.19403076171875,240.510986328125
1700075952,-0.0718841552734375,-0.0429229736328125,0.05950927734375,-1.3003493547439575,-0.4683413803577423,-1.7355027198791504,78.44705200195312,-85.04594421386719,240.4502868652344
1700075952,-0.169281005859375,-0.132720947265625,0.0225372314453125,-1.6581778526306152,-0.6287755370140076,-2.0134365558624268,78.39329528808594,-84.67788696289062,240.25506591796875
1700075952,-0.195587158203125,-0.197479248046875,-0.0382232666015625,-1.9982736110687256,-0.797752857208252,-2.1639633178710938,78.34005737304688,-84.92121887207031,240.31588745117188
1700075952,-0.21966552734375,-0.18212890625,-0.012298583984375,-2.330291986465454,-0.9830081462860109,-2.294252872467041,78.44502258300781,-84.94808959960938,240.43911743164065
1700075952,-0.2125701904296875,-0.118804931640625,-0.0045623779296875,-2.6409130096435547,-1.1552574634552002,-2.4781277179718018,78.36117553710938,-85.37899780273438,240.4012908935547
1700075952,-0.1899566650390625,-0.0247039794921875,-0.0899658203125,-2.8001205921173096,-1.3429580926895142,-2.67891812324524,78.44662475585938,-84.98603820800781,240.4201812744141
1700075952,-0.1539306640625,0.0073699951171875,-0.1187286376953125,-2.767413854598999,-1.5103113651275637,-2.8501245975494385,78.69758605957031,-85.0001220703125,240.56350708007807
1700075952,-0.090911865234375,0.0400543212890625,-0.0988006591796875,-2.5560142993927,-1.614284634590149,-2.9814627170562744,78.66189575195312,-84.88775634765625,240.1702575683593
1700075952,-0.033203125,0.111328125,-0.0914154052734375,-2.1077098846435547,-1.7179080247879028,-3.0911033153533936,78.49453735351562,-84.89111328125,240.60650634765625
1700075952,0.0371856689453125,0.2868499755859375,-0.1473846435546875,-1.4299508333206177,-1.8301749229431152,-3.187566041946411,78.85270690917969,-84.93954467773438,240.1884307861328
1700075952,0.1238555908203125,0.52557373046875,-0.27734375,-0.7271729111671448,-1.8129717111587524,-3.286163568496704,78.55021667480469,-84.72381591796875,240.68621826171875
1700075952,0.171112060546875,0.7318267822265625,-0.4218292236328125,-0.0868669897317886,-1.6880252361297607,-3.3068575859069824,78.74131774902344,-85.11154174804688,240.75379943847656
1700075952,0.197845458984375,0.8957977294921875,-0.57867431640625,0.5886371731758118,-1.508675456047058,-3.2035915851593018,78.70808410644531,-84.96134948730469,240.6588897705078
1700075952,0.257415771484375,1.050018310546875,-0.7921905517578125,1.0881996154785156,-1.2381312847137451,-2.9289517402648926,78.82316589355469,-84.99002075195312,240.4144592285156
1700075952,0.3225860595703125,1.232635498046875,-1.031341552734375,1.2080761194229126,-0.922598361968994,-2.4982006549835205,78.73318481445312,-84.68487548828125,240.28140258789065
1700075952,0.38226318359375,1.451995849609375,-1.2309722900390625,1.0946087837219238,-0.6726710796356201,-1.991603136062622,78.61009216308594,-84.91964721679688,240.8717041015625
1700075952,0.4921722412109375,1.6703643798828125,-1.339813232421875,0.9118032455444336,-0.4824774265289306,-1.4491878747940063,78.61886596679688,-85.17108154296875,240.68634033203125
1700075952,0.62353515625,1.83111572265625,-1.3108673095703125,0.6571198105812073,-0.3151457011699676,-0.8072118163108826,78.6116943359375,-84.91084289550781,240.5642852783203
1700075952,0.600372314453125,1.9606475830078125,-1.1718597412109375,0.3989407420158386,-0.2330915778875351,-0.1833991259336471,78.68699645996094,-84.82106018066406,240.8784027099609
1700075952,0.458282470703125,1.9957275390625,-0.99456787109375,0.0952402353286743,-0.172408252954483,0.1268215924501419,78.37124633789062,-84.95622253417969,240.5160675048828
1700075952,0.3382415771484375,1.7747955322265625,-0.7923583984375,-0.3462594151496887,-0.0800775215029716,0.2053488940000534,78.618896484375,-85.20957946777344,240.4725341796875
1700075952,0.122894287109375,1.4300537109375,-0.6189422607421875,-0.8589405417442322,0.2767325341701507,-0.0729434490203857,78.76460266113281,-84.93852233886719,240.8810272216797
1700075952,-0.134552001953125,0.86480712890625,-0.6988372802734375,-0.7497535943984985,0.1451736986637115,-0.3095914125442505,78.71316528320312,-84.61381530761719,241.2371368408203
1700075952,-0.15679931640625,0.2940216064453125,-0.2669830322265625,-1.1275285482406616,0.3904484510421753,-0.4689152836799621,78.85057067871094,-85.08111572265625,241.0038604736328
1700075952,0.5807037353515625,-0.0699920654296875,-0.4626922607421875,0.4149511158466339,0.4733172357082367,-0.8640261292457581,78.68678283691406,-84.78892517089844,240.9398651123047
1700075952,2.061492919921875,-0.075531005859375,-0.33929443359375,1.9014050960540767,0.1499090641736984,0.4159418046474457,78.67144775390625,-84.93893432617188,240.5753631591797
1700075952,2.9245147705078125,0.9538421630859376,-0.2998809814453125,1.1309150457382202,-0.876810610294342,1.713652491569519,78.50399780273438,-85.00627136230469,239.9559631347656
1700075952,3.139404296875,1.0854644775390625,0.1149444580078125,-0.9113691449165344,-0.447369784116745,1.3532344102859497,78.50997924804688,-84.58720397949219,240.5287170410156
1700075952,1.894744873046875,0.7184906005859375,0.04376220703125,-0.8489305377006531,-0.0567013621330261,0.5927765369415283,78.69291687011719,-84.44563293457031,240.51451110839844
1700075952,0.3499603271484375,0.5767059326171875,-0.101837158203125,-0.3419978320598602,0.1513407826423645,-0.0483968257904052,78.70718383789062,-84.54301452636719,240.8036193847656
1700075952,-0.06494140625,0.1025238037109375,-0.6519012451171875,-0.0560241192579269,0.1385570764541626,-0.0466809533536434,78.5452880859375,-84.39700317382812,240.6851959228516
1700075952,0.6072540283203125,-0.0537261962890625,-0.500213623046875,-0.0058416440151631,0.0216786637902259,0.4089036285877228,78.8331298828125,-84.34613037109375,240.6573486328125
1700075952,0.961395263671875,0.0687713623046875,-0.294342041015625,-0.061068944633007,0.0722374469041824,0.4802427887916565,78.6624755859375,-84.854248046875,240.4065704345703
1700075952,0.951080322265625,0.243927001953125,-0.1966705322265625,-0.2069169580936432,0.1889331638813018,0.2151573151350021,78.85943603515625,-84.50857543945312,241.0943145751953
1700075952,1.0854339599609375,0.41094970703125,-0.2960662841796875,-0.1224995478987693,0.1551712155342102,-0.0459400601685047,78.860107421875,-84.71200561523438,240.6041717529297
1700075952,1.2128448486328125,0.429931640625,-0.445953369140625,0.0716560781002044,-0.0043715788051486,-0.1775827705860138,78.73399353027344,-84.35426330566406,240.6649780273437
1700075952,1.21954345703125,0.3126983642578125,-0.4928741455078125,0.1397903859615326,-0.1611888855695724,-0.1731539368629455,79.00993347167969,-84.34170532226562,240.7132873535156
1700075952,1.0879669189453125,0.1583404541015625,-0.5015411376953125,0.1097991988062858,-0.2402948886156082,-0.0873157307505607,78.95053100585938,-84.1466064453125,240.7664489746093
1700075952,0.978851318359375,0.0706024169921875,-0.497406005859375,0.0307139698415994,-0.3011382818222046,-0.0271232295781373,78.73789978027344,-84.47969055175781,240.5784149169922
1700075952,0.9477996826171876,0.062835693359375,-0.44598388671875,-0.0100257359445095,-0.3307387828826904,0.0019377160351723,78.87655639648438,-84.62509155273438,240.8430633544922
1700075952,0.9142608642578124,0.121612548828125,-0.403289794921875,0.0142047684639692,-0.3441126346588135,-0.019833892583847,78.88691711425781,-84.28105163574219,240.85357666015625
1700075952,0.8841094970703125,0.183502197265625,-0.399200439453125,0.0439062044024467,-0.3786684870719909,-0.0975973978638649,79.22062683105469,-84.11997985839844,240.2787170410156
1700075952,0.8942413330078125,0.2295989990234375,-0.4153594970703125,0.0522259213030338,-0.4299130141735077,-0.1975378394126892,78.68003845214844,-84.01231384277344,241.09669494628903
1700075952,0.934722900390625,0.2447357177734375,-0.4143829345703125,0.016031164675951,-0.477588415145874,-0.2606611549854278,78.99714660644531,-84.22108459472656,240.4677734375
1700075952,0.9548187255859376,0.2460784912109375,-0.4019927978515625,-0.0560914985835552,-0.5094054341316223,-0.3064459562301636,78.81878662109375,-84.14338684082031,241.0341339111328
1700075952,0.9708709716796876,0.2288360595703125,-0.383148193359375,-0.067164123058319,-0.5259205102920532,-0.3359377980232239,78.96987915039062,-84.28250122070312,241.0746459960937
1700075952,0.9907684326171876,0.20330810546875,-0.3504791259765625,-0.0430654436349868,-0.499707281589508,-0.3564028441905975,79.18699645996094,-84.08088684082031,240.65328979492188
1700075952,1.0130157470703125,0.183807373046875,-0.338409423828125,0.0195476021617651,-0.4847344756126404,-0.3721759617328644,78.81208801269531,-84.520751953125,240.407943725586
1700075952,1.0150909423828125,0.1778564453125,-0.3165435791015625,0.0882015004754066,-0.4550932049751282,-0.3935227990150451,78.86763000488281,-84.29011535644531,240.3571014404297
1700075952,1.002716064453125,0.170654296875,-0.2998809814453125,0.1550476402044296,-0.4224481880664825,-0.4093952476978302,78.93243408203125,-84.03179931640625,240.4961853027344
1700075952,0.949188232421875,0.1678619384765625,-0.3152618408203125,0.1962454169988632,-0.4041607975959778,-0.4201890230178833,79.11042785644531,-84.18307495117188,240.3705139160156
1700075952,0.890777587890625,0.1610260009765625,-0.341217041015625,0.2166779786348343,-0.404409259557724,-0.457528680562973,78.89299011230469,-84.29737854003906,240.5434112548828
1700075952,0.884490966796875,0.1407623291015625,-0.342498779296875,0.1974816471338272,-0.4050891697406769,-0.4926536381244659,78.68411254882812,-84.03414916992188,240.71585083007807
1700075952,0.9231109619140624,0.126556396484375,-0.3070831298828125,0.1575978845357895,-0.3679361939430237,-0.4850511252880096,78.86601257324219,-84.33583068847656,240.79969787597656
1700075952,0.9478302001953124,0.1288604736328125,-0.281951904296875,0.1312443017959594,-0.3388755321502685,-0.4419134855270386,79.06317138671875,-83.90559387207031,240.7839508056641
1700075952,0.953338623046875,0.1301116943359375,-0.276397705078125,0.0854653641581535,-0.3574414849281311,-0.426932156085968,78.88014221191406,-84.2530517578125,240.96319580078125
1700075952,0.988677978515625,0.1027069091796875,-0.2937469482421875,0.1093153059482574,-0.343700110912323,-0.4033258855342865,78.99563598632812,-83.97319030761719,240.687240600586
1700075952,1.0175933837890625,0.075836181640625,-0.309844970703125,0.1831232160329818,-0.3212262392044067,-0.3577834367752075,78.96026611328125,-84.34912109375,240.61265563964844
1700075952,1.0048370361328125,0.0490875244140625,-0.3168792724609375,0.2636942267417907,-0.3137688338756561,-0.3183124661445617,79.17105102539062,-83.76896667480469,240.5873413085937
1700075952,0.9713592529296876,0.05157470703125,-0.3075408935546875,0.3835473954677582,-0.3016093969345093,-0.2888887822628021,79.01754760742188,-84.15042114257812,240.49530029296875
1700075952,0.9210052490234376,0.082366943359375,-0.27935791015625,0.5438475608825684,-0.2896014451980591,-0.2730096876621246,78.74053955078125,-84.37336730957031,240.86593627929688
1700075952,0.8863067626953125,0.0980682373046875,-0.235260009765625,0.632563591003418,-0.2655358016490936,-0.2493054270744323,79.43832397460938,-84.36177062988281,240.79153442382807
1700075952,0.8924713134765625,0.0904998779296875,-0.235687255859375,0.5377926230430603,-0.2208418399095535,-0.2071068435907364,78.88525390625,-84.23664855957031,240.5366058349609
1700075952,0.92596435546875,0.0490570068359375,-0.2788848876953125,0.3809633255004883,-0.2085111290216446,-0.125658318400383,78.87530517578125,-83.96037292480469,240.9861602783203
1700075952,0.93878173828125,0.01129150390625,-0.30230712890625,0.2556634545326233,-0.2421085089445114,-0.050786480307579,79.23887634277344,-83.85603332519531,240.2388916015625
1700075952,0.9334259033203124,-0.0222930908203125,-0.2841796875,0.1198952421545982,-0.2446712702512741,0.021066403016448,79.03498840332031,-83.94760131835938,240.2391052246093
1700075952,0.9197540283203124,-0.04425048828125,-0.26708984375,0.1059117838740348,-0.1971559375524521,0.0929501801729202,79.19720458984375,-83.78494262695312,241.00067138671875
1700075953,0.8942718505859375,-0.054168701171875,-0.2505340576171875,0.1480262130498886,-0.1738943010568618,0.1687538623809814,79.08282470703125,-83.85336303710938,240.74917602539065
1700075953,0.9077911376953124,-0.0287017822265625,-0.2404632568359375,0.1904341280460357,-0.1624791920185089,0.2648255228996277,78.97091674804688,-83.62937927246094,240.6488494873047
1700075953,0.957244873046875,0.0312347412109375,-0.2432403564453125,0.2057984322309494,-0.1586381196975708,0.2983017265796661,79.03445434570312,-83.912841796875,240.6928253173828
1700075953,1.0196380615234375,0.056121826171875,-0.218475341796875,0.1941950470209121,-0.1479423195123672,0.3269360363483429,79.19990539550781,-83.69284057617188,240.4879302978516
1700075953,1.06817626953125,0.0688934326171875,-0.2037353515625,0.2496809363365173,-0.1336139887571334,0.3459891080856323,79.0089111328125,-83.69227600097656,240.3891448974609
1700075953,1.1137847900390625,0.0635833740234375,-0.2325897216796875,0.3407661020755768,-0.1611449420452118,0.3418193757534027,79.43159484863281,-83.80230712890625,240.4764099121093
1700075953,1.1643829345703125,0.0537261962890625,-0.229583740234375,0.4123846292495727,-0.2025147527456283,0.3607768416404724,79.27584838867188,-83.82279968261719,240.8182830810547
1700075953,1.2010955810546875,0.09100341796875,-0.1864776611328125,0.3313086926937103,-0.263752818107605,0.3894494771957397,79.24673461914062,-84.02934265136719,240.59747314453125
1700075953,1.248077392578125,0.119384765625,-0.125885009765625,0.2458696812391281,-0.2281399667263031,0.4074980020523071,78.73857116699219,-83.84971618652344,241.0587615966797
1700075953,1.2854461669921875,0.0702362060546875,-0.1380767822265625,0.2157855480909347,-0.2288060188293457,0.3987721502780914,78.88896179199219,-83.74685668945312,241.36001586914065
1700075953,1.3240814208984375,0.0220794677734375,-0.1925201416015625,0.2488074153661728,-0.3107663989067077,0.4090090692043304,79.1690673828125,-83.57949829101562,240.8194274902344
1700075953,1.4085540771484375,0.0028533935546875,-0.1811370849609375,0.3607462048530578,-0.4006020128726959,0.4301330149173736,79.21469116210938,-83.83209228515625,240.76321411132807
1700075953,1.4812469482421875,-0.021026611328125,-0.09747314453125,0.413600891828537,-0.421885997056961,0.4705067873001098,79.18739318847656,-83.97938537597656,240.91212463378903
1700075953,1.517486572265625,-0.06134033203125,0.0067901611328125,0.3390981554985046,-0.4224095642566681,0.5518112182617188,79.14225769042969,-83.49554443359375,240.74102783203125
1700075953,1.5242462158203125,-0.1383209228515625,0.0891876220703125,0.2763168215751648,-0.3934692740440368,0.6444612741470337,79.44929504394531,-83.72920227050781,240.71456909179688
1700075953,1.5521240234375,-0.2579803466796875,0.117828369140625,0.2620920538902282,-0.37855264544487,0.7546018958091736,79.48701477050781,-83.85868835449219,240.43663024902344
1700075953,1.5533905029296875,-0.371856689453125,0.1593017578125,0.287358820438385,-0.3613856434822082,0.8851351141929626,79.45588684082031,-83.77731323242188,240.7317657470703
1700075953,1.518463134765625,-0.4707489013671875,0.222564697265625,0.3378337025642395,-0.3367828130722046,1.0251362323760986,79.37550354003906,-83.70272827148438,241.01377868652344
1700075953,1.46441650390625,-0.5504302978515625,0.2617950439453125,0.3555091023445129,-0.2897596359252929,1.1434338092803955,79.55860900878906,-83.78570556640625,240.9371032714844
1700075953,1.3826751708984375,-0.5993499755859375,0.2291412353515625,0.2383390665054321,-0.123540312051773,1.2318968772888184,79.25003051757812,-83.86216735839844,240.64503479003903
1700075953,1.316680908203125,-0.5984649658203125,0.0103759765625,-0.068727396428585,0.3195159435272217,1.5229462385177612,79.47500610351562,-84.10453796386719,240.92654418945312
1700075953,1.244232177734375,-0.380859375,-0.491363525390625,-0.7681978940963745,0.7768867015838623,2.017439603805542,79.51689147949219,-84.14024353027344,240.8964080810547
1700075953,1.2014312744140625,-0.1170806884765625,-0.9832305908203124,-1.3953973054885864,0.8862832188606262,2.208081722259521,79.45712280273438,-83.56887817382812,240.2723083496093
1700075953,1.3410186767578125,-0.1095733642578125,-1.2107391357421875,-1.8621612787246704,0.8993239402770996,2.355524063110352,79.04312133789062,-83.88473510742188,240.70880126953125
1700075953,1.428131103515625,0.04241943359375,-1.3603515625,-1.9299864768981927,0.907662272453308,2.81524395942688,79.32246398925781,-83.57780456542969,240.650619506836
1700075953,1.2924041748046875,0.3578643798828125,-1.2301788330078125,-1.470595121383667,1.0009711980819702,3.391284465789795,79.31034851074219,-83.85993957519531,240.60943603515625
1700075953,1.2182464599609375,0.60821533203125,-0.980133056640625,-0.8348173499107361,0.8061199188232422,3.87333345413208,79.43452453613281,-83.76359558105469,241.1418609619141
1700075953,1.2938690185546875,0.8117523193359375,-0.5882415771484375,-0.4794502258300781,0.5767791867256165,4.157937049865723,79.84042358398438,-84.08309936523438,240.59474182128903
1700075953,1.4702911376953125,1.0683441162109375,-0.3590545654296875,-0.6151835322380066,0.9077613353729248,3.811142921447754,79.54881286621094,-84.16458129882812,241.270248413086
1700075953,1.773712158203125,1.352630615234375,-0.2096710205078125,0.0125096663832664,1.273844838142395,2.9027976989746094,79.5452880859375,-83.72360229492188,240.7350006103516
1700075953,2.0157012939453125,1.2001800537109375,0.0391845703125,1.157233476638794,1.5198875665664673,2.17161512374878,79.29531860351562,-83.77752685546875,241.06954956054688
1700075953,1.818878173828125,0.6649932861328125,-0.0921173095703125,1.5026713609695437,1.544145584106445,1.985603094100952,79.63102722167969,-83.87908935546875,240.82237243652344
1700075953,1.445098876953125,0.5027618408203125,-0.461639404296875,1.236125349998474,1.4420247077941897,2.108639478683472,79.77963256835938,-83.75228881835938,240.93341064453125
1700075953,1.25518798828125,0.4394989013671875,-0.638885498046875,0.8165187835693359,1.3191946744918823,2.275972604751587,79.46392822265625,-84.16371154785156,240.7448883056641
1700075953,1.190521240234375,0.3188934326171875,-0.685943603515625,0.2819600403308868,1.1997900009155271,2.2799761295318604,79.70098876953125,-83.72331237792969,240.93101501464844
1700075953,1.2269439697265625,0.1734771728515625,-0.71734619140625,-0.2541356086730957,1.033257246017456,2.1299078464508057,79.8734130859375,-83.68246459960938,241.2484588623047
1700075953,1.232757568359375,0.055694580078125,-0.696441650390625,-0.7382932305335999,0.8650681972503662,1.9198328256607056,79.95211791992188,-83.91276550292969,240.91552734375
1700075953,1.163909912109375,-0.0030059814453125,-0.6548614501953125,-1.0711305141448977,0.71998530626297,1.6662142276763916,79.64863586425781,-83.98600769042969,241.06134033203125
1700075953,1.035003662109375,-0.03912353515625,-0.5470428466796875,-1.2538106441497805,0.6225133538246155,1.3815715312957764,79.77352905273438,-83.66891479492188,241.4024353027344
1700075953,0.86004638671875,-0.06298828125,-0.3821563720703125,-1.2961453199386597,0.5912670493125916,1.0815693140029907,79.99705505371094,-83.42910766601562,241.3997497558593
1700075953,0.64007568359375,-0.1010284423828125,-0.2163848876953125,-1.1882058382034302,0.6150195002555847,0.7650989890098572,79.85191345214844,-83.8900146484375,241.3914489746093
1700075953,0.4503326416015625,-0.1541290283203125,-0.1412200927734375,-1.0627729892730713,0.629112958908081,0.4461396634578705,79.80589294433594,-83.70851135253906,241.3003692626953
1700075953,0.2865142822265625,-0.181793212890625,-0.1897125244140625,-0.8861306309700012,0.5541492104530334,0.1732996106147766,79.70779418945312,-83.73025512695312,241.6981964111328
1700075953,0.178192138671875,-0.1586456298828125,-0.22137451171875,-0.7352990508079529,0.4302086234092712,-0.0928223505616188,79.75335693359375,-83.96743774414062,241.762939453125
1700075953,0.166107177734375,-0.165435791015625,-0.2225799560546875,-0.6443036198616028,0.3156290650367737,-0.4361043572425842,79.76493835449219,-83.7490234375,241.38833618164065
1700075953,0.21734619140625,-0.227294921875,-0.146820068359375,-0.5694088935852051,0.1737401038408279,-0.7485317587852478,79.63859558105469,-83.56556701660156,241.0295867919922
1700075953,0.2156524658203125,-0.2364349365234375,-0.070404052734375,-0.5223516225814819,0.0501683615148067,-0.9969956278800964,79.76158142089844,-83.46784973144531,241.26919555664065
1700075953,0.136016845703125,-0.212127685546875,-0.090972900390625,-0.4734128415584564,-0.0721708685159683,-1.2195926904678345,80.20037841796875,-83.38345336914062,241.22174072265625
1700075953,0.0409088134765625,-0.170989990234375,-0.1211700439453125,-0.5108832716941833,-0.1749060302972793,-1.5253907442092896,80.02090454101562,-83.55445861816406,241.49221801757807
1700075953,0.0326690673828125,-0.12701416015625,-0.162384033203125,-0.6048214435577393,-0.2850650250911712,-1.8697444200515747,80.05232238769531,-82.87901306152344,241.3195343017578
1700075953,0.06280517578125,-0.14691162109375,-0.1871337890625,-0.7282903790473938,-0.3281925320625305,-2.1467843055725098,80.10813903808594,-83.30615234375,241.40972900390625
1700075953,0.0568695068359375,-0.19989013671875,-0.2095947265625,-0.8677965998649597,-0.3643401563167572,-2.308929681777954,80.32569885253906,-83.26179504394531,241.2420349121093
1700075953,0.0228118896484375,-0.1904754638671875,-0.2036590576171875,-1.0418014526367188,-0.4264605045318603,-2.449576139450073,80.05052185058594,-83.28181457519531,241.1095123291016
1700075953,0.036895751953125,-0.109222412109375,-0.263336181640625,-1.1644845008850098,-0.5256227850914001,-2.601044178009033,80.22189331054688,-83.3770751953125,241.61094665527344
1700075953,0.0689544677734375,0.0024871826171875,-0.3161468505859375,-1.2580066919326782,-0.5633456707000732,-2.783409357070923,80.14152526855469,-83.46272277832031,241.813232421875
1700075953,0.0916290283203125,0.0758819580078125,-0.381195068359375,-1.2523189783096311,-0.5363603830337524,-2.937419176101685,80.086181640625,-83.49848937988281,242.0410003662109
1700075953,0.128631591796875,0.1204833984375,-0.390960693359375,-1.1765835285186768,-0.4955314397811889,-2.9430923461914062,80.29849243164062,-83.28912353515625,241.50201416015625
1700075953,0.1758270263671875,0.2655792236328125,-0.3641815185546875,-0.9703951478004456,-0.4893569052219391,-2.8564913272857666,80.66215515136719,-83.83248901367188,241.6280212402344
1700075953,0.2349090576171875,0.4964599609375,-0.3842315673828125,-0.6604918837547302,-0.4859493970870971,-2.766482353210449,80.53596496582031,-83.31901550292969,241.64532470703125
1700075953,0.276519775390625,0.7470703125,-0.45281982421875,-0.3464756608009338,-0.4716623425483703,-2.699253797531128,80.50250244140625,-83.27543640136719,241.7166290283203
1700075953,0.3043670654296875,0.9596405029296876,-0.49713134765625,-0.0572121553122997,-0.4203520119190216,-2.5697970390319824,80.53321838378906,-83.09451293945312,241.4759063720703
1700075953,0.3486175537109375,1.1287994384765625,-0.5280609130859375,0.2616526484489441,-0.3737994134426117,-2.355358123779297,80.65548706054688,-83.03530883789062,242.3365936279297
1700075953,0.3672332763671875,1.2163238525390625,-0.5630035400390625,0.5426505208015442,-0.3472088277339935,-2.0724568367004395,80.86140441894531,-83.11082458496094,241.54656982421875
1700075953,0.3529052734375,1.2557220458984375,-0.65264892578125,0.6231676936149597,-0.2934606373310089,-1.7459862232208252,80.97824096679688,-82.89324951171875,241.61444091796875
1700075953,0.36016845703125,1.2936248779296875,-0.7110595703125,0.6393275260925293,-0.1919715702533722,-1.3862168788909912,80.48501586914062,-82.73623657226562,241.58876037597656
1700075953,0.3607177734375,1.3340911865234375,-0.7237701416015625,0.675975501537323,-0.1022696495056152,-1.025422215461731,80.45628356933594,-82.66569519042969,241.5575714111328
1700075953,0.3506011962890625,1.38214111328125,-0.6840667724609375,0.8122803568840027,-0.0789440870285034,-0.6947116851806641,80.7227783203125,-82.57905578613281,241.8956298828125
1700075953,0.3783111572265625,1.4224090576171875,-0.550811767578125,0.9707546830177308,-0.0612276718020439,-0.3788698017597198,80.81538391113281,-82.18856811523438,241.49685668945312
1700075953,0.408599853515625,1.422698974609375,-0.458038330078125,1.116815447807312,-0.0270284209400415,-0.2026857286691665,80.74589538574219,-82.18679809570312,241.36090087890625
1700075953,0.4251708984375,1.2974090576171875,-0.437286376953125,1.067112684249878,-0.1101006716489791,0.1011316776275634,80.74948120117188,-81.84896850585938,241.6254119873047
1700075953,0.3620147705078125,1.2676239013671875,-0.3751220703125,0.371496319770813,0.2101585566997528,-0.0966085642576217,80.71458435058594,-81.59317016601562,241.19189453125
1700075953,0.454925537109375,0.8973846435546875,-0.767303466796875,-0.2023610919713974,0.1151356399059295,-0.3222073316574096,80.30659484863281,-81.52259826660156,241.4806060791016
1700075953,0.579376220703125,0.518463134765625,-0.7286834716796875,-0.8054211139678955,0.027461452409625,-0.1138685122132301,80.43443298339844,-80.97686767578125,241.4169311523437
1700075953,0.91033935546875,0.437286376953125,-0.614044189453125,-0.4613638818264007,-0.1946821361780166,-0.3563581109046936,80.26690673828125,-80.77510070800781,241.5137634277344
1700075953,1.74639892578125,0.1299896240234375,-0.4272003173828125,-0.2521515488624573,-0.4105763435363769,-0.2236392199993133,80.30429077148438,-80.242919921875,240.9905700683593
1700075953,1.7550201416015625,0.1692047119140625,-0.499298095703125,0.0185377318412065,-0.5828258991241455,0.2978055775165558,79.85700988769531,-79.42962646484375,240.9058380126953
1700075953,1.1829071044921875,0.181427001953125,-0.3059844970703125,0.464106947183609,-0.4063395261764526,0.6814349889755249,80.26492309570312,-78.87541198730469,240.40382385253903
1700075953,1.11370849609375,0.3578643798828125,-0.0371856689453125,0.2409217953681945,-0.4805208146572113,0.7201443314552307,79.87611389160156,-78.46784973144531,239.7398834228516
1700075953,1.8918609619140625,0.7953948974609375,0.1844329833984375,-0.2305589020252227,-0.4147151708602905,0.428648293018341,79.38591003417969,-77.54290771484375,240.0962829589844
1700075953,2.2479400634765625,0.6601104736328125,0.12841796875,-0.3096079230308532,-0.1774807721376419,0.3105743825435638,79.46292114257812,-77.26924133300781,240.10487365722656
1700075953,1.2208404541015625,0.3192901611328125,-0.3818206787109375,-0.2810055613517761,-0.1300866305828094,0.2585545778274536,79.26512145996094,-76.59239196777344,239.71324157714844
1700075953,0.471466064453125,0.07891845703125,-0.68255615234375,-0.085589200258255,-0.1576929539442062,0.2533140182495117,79.29942321777344,-76.23162841796875,239.7709350585937
1700075953,0.3702392578125,0.1253662109375,-0.6224822998046875,-0.0908255130052566,-0.1633756160736084,0.2151322811841964,79.1890869140625,-75.74191284179688,239.22427368164065
1700075953,0.5239105224609375,0.4124755859375,-0.4312896728515625,-0.2182673513889312,-0.1312959641218185,-0.0860781595110893,78.66061401367188,-75.49932861328125,238.77145385742188
1700075953,0.7933502197265625,0.6254119873046875,-0.251068115234375,-0.3285033106803894,-0.0492895171046257,-0.411427766084671,78.5316162109375,-75.23585510253906,238.8306427001953
1700075953,1.05511474609375,0.637054443359375,-0.2164306640625,-0.2626017928123474,-0.0100129526108503,-0.5829941630363464,78.274658203125,-75.159423828125,239.42868041992188
1700075953,1.1074371337890625,0.366729736328125,-0.37628173828125,-0.1427907049655914,-0.0426433347165584,-0.5732004046440125,77.96723937988281,-74.64727783203125,239.5330810546875
1700075953,1.0283355712890625,0.05963134765625,-0.5107269287109375,-0.0890851318836212,-0.1067584007978439,-0.4121803641319275,77.61405944824219,-74.55000305175781,239.92510986328125
1700075953,0.97723388671875,-0.0834503173828125,-0.5780792236328125,-0.0967989787459373,-0.2091462910175323,-0.2421271502971649,77.87251281738281,-74.34458923339844,239.6693878173828
1700075953,0.9460906982421876,-0.027801513671875,-0.5552825927734375,-0.1203634291887283,-0.2794737219810486,-0.2002614587545395,77.43507385253906,-74.87960815429688,239.5495758056641
1700075953,0.952056884765625,0.1596832275390625,-0.498870849609375,-0.1124029755592346,-0.3401751518249511,-0.2838250696659088,77.45672607421875,-74.74577331542969,240.0477600097656
1700075953,0.9828033447265624,0.3179168701171875,-0.453399658203125,-0.0903602540493011,-0.4073027968406677,-0.4293828010559082,76.96560668945312,-74.77877807617188,240.08778381347656
1700075953,1.048431396484375,0.3449554443359375,-0.4191741943359375,-0.0411516986787319,-0.448339432477951,-0.5264795422554016,76.83027648925781,-74.80157470703125,239.7669219970703
1700075953,1.0465087890625,0.277130126953125,-0.420562744140625,0.0110196275636553,-0.4832510948181152,-0.5482053160667419,76.61709594726562,-75.53280639648438,239.90399169921875
1700075953,0.9784393310546876,0.1807098388671875,-0.446075439453125,0.0594998113811016,-0.5187171697616577,-0.5121203064918518,76.57949829101562,-76.01667785644531,240.03106689453125
1700075953,0.9117889404296876,0.1295013427734375,-0.444122314453125,0.0823931470513343,-0.5415745973587036,-0.4636094570159912,76.15829467773438,-76.27497863769531,240.3183135986328
1700075953,0.8909912109375,0.14959716796875,-0.396026611328125,0.0498181544244289,-0.5335707068443298,-0.4601888954639435,76.01896667480469,-76.43373107910156,241.10427856445312
1700075953,0.937744140625,0.187774658203125,-0.3367919921875,0.0191651731729507,-0.494362860918045,-0.4984915554523468,75.73175048828125,-76.67276000976562,240.9355926513672
1700075953,0.9752960205078124,0.21441650390625,-0.33966064453125,0.0469677746295928,-0.4846082329750061,-0.5305411219596863,75.91500854492188,-77.36740112304688,241.34622192382807
1700075953,0.998138427734375,0.2203216552734375,-0.35284423828125,0.0724664777517318,-0.5018167495727539,-0.555451512336731,75.75442504882812,-77.52348327636719,240.98504638671875
1700075954,1.019866943359375,0.193603515625,-0.3517913818359375,0.0772175565361976,-0.4972704946994781,-0.5476942658424377,75.3564453125,-78.46220397949219,241.5444793701172
1700075954,0.989349365234375,0.1725006103515625,-0.376739501953125,0.0964021682739257,-0.5201044082641602,-0.5306713581085205,75.17036437988281,-78.53923034667969,241.60430908203125
1700075954,0.9516754150390624,0.1655426025390625,-0.3796539306640625,0.0544448643922805,-0.5579524636268616,-0.5327155590057373,74.58064270019531,-79.13090515136719,241.4837646484375
1700075954,0.935760498046875,0.1591033935546875,-0.3852691650390625,0.0274191070348024,-0.5803560614585876,-0.5720648169517517,75.26676940917969,-79.10092163085938,241.5065155029297
1700075954,0.937286376953125,0.1467742919921875,-0.3765411376953125,0.0516283065080642,-0.6047748327255249,-0.596688985824585,74.59284973144531,-79.42681884765625,241.9679107666016
1700075954,0.95770263671875,0.1301422119140625,-0.3580322265625,0.0991963595151901,-0.6205841898918152,-0.5997883677482605,74.54769897460938,-80.303955078125,242.1221618652344
1700075954,0.9882659912109376,0.0997772216796875,-0.36175537109375,0.1992965936660766,-0.6353468894958496,-0.5533020496368408,74.70745849609375,-80.48921203613281,242.07443237304688
1700075954,0.9599761962890624,0.0973358154296875,-0.355194091796875,0.2551364302635193,-0.6050360798835754,-0.5208501219749451,74.46786499023438,-80.89772033691406,242.3468170166016
1700075954,0.93218994140625,0.1225128173828125,-0.3198394775390625,0.223026156425476,-0.5795371532440186,-0.5317389965057373,74.12423706054688,-81.43798828125,241.96405029296875
1700075954,0.949432373046875,0.1331024169921875,-0.2416534423828125,0.1941564232110977,-0.4961660802364349,-0.561866819858551,74.47885131835938,-81.49371337890625,242.39166259765625
1700075954,1.0155487060546875,0.0964202880859375,-0.2241058349609375,0.2556988894939422,-0.4096138775348663,-0.5418155789375305,74.24592590332031,-81.61866760253906,242.6077423095703
1700075954,1.024627685546875,0.0341339111328125,-0.2568206787109375,0.3398728966712951,-0.3831266164779663,-0.4581838250160217,74.15098571777344,-82.14851379394531,242.70684814453125
1700075954,0.9792327880859376,-0.004180908203125,-0.28375244140625,0.4648803174495697,-0.3997727036476135,-0.3555498421192169,74.16854858398438,-81.87074279785156,242.8777770996093
1700075954,0.89923095703125,0.0131378173828125,-0.3017120361328125,0.5767879486083984,-0.3920713663101196,-0.2844908535480499,74.16267395019531,-81.90974426269531,242.4673309326172
1700075954,0.801788330078125,0.088714599609375,-0.330841064453125,0.5369548201560974,-0.400747686624527,-0.3193281888961792,74.31672668457031,-81.9622802734375,242.83892822265625
1700075954,0.7930145263671875,0.1099700927734375,-0.3011474609375,0.4145870804786682,-0.3363388776779175,-0.3837103843688965,74.08699035644531,-81.58003234863281,242.3755340576172
1700075954,0.8514404296875,0.0674591064453125,-0.2668914794921875,0.4421531856060028,-0.2742379605770111,-0.3639774322509765,73.84309387207031,-81.80137634277344,242.2333221435547
1700075954,0.8992462158203125,-0.0141143798828125,-0.23980712890625,0.4641386270523071,-0.2681459784507751,-0.2232448011636734,74.18144226074219,-81.34251403808594,242.37567138671875
1700075954,0.938385009765625,-0.0878753662109375,-0.2530059814453125,0.4695645570755005,-0.2873958349227905,-0.0628854855895042,74.00386047363281,-81.32290649414062,242.1683044433593
1700075954,0.9496612548828124,-0.1376190185546875,-0.2886199951171875,0.425957441329956,-0.2899471223354339,0.0287048816680908,73.80665588378906,-80.92800903320312,242.37643432617188
1700075954,0.9388885498046876,-0.157440185546875,-0.297393798828125,0.3240145444869995,-0.2603876292705536,0.1042265370488166,73.80354309082031,-80.50454711914062,241.9405975341797
1700075954,0.9092559814453124,-0.1016082763671875,-0.2593841552734375,0.2010936886072158,-0.2094147354364395,0.1771468222141266,73.42362976074219,-80.24859619140625,241.8503570556641
1700075954,0.926971435546875,-0.030181884765625,-0.1932830810546875,0.1906338632106781,-0.148574024438858,0.2274632453918457,73.39686584472656,-79.33102416992188,241.2678375244141
1700075954,0.9824066162109376,0.0228424072265625,-0.1942291259765625,0.2991201281547546,-0.1309518963098526,0.2454845905303955,73.65310668945312,-79.23867797851562,241.62391662597656
1700075954,1.0616302490234375,0.0365142822265625,-0.198577880859375,0.4798978865146637,-0.1298932880163192,0.2841648757457733,73.70219421386719,-78.74217224121094,241.16940307617188
1700075954,1.1232147216796875,0.0745391845703125,-0.187103271484375,0.4475255608558655,-0.1697400361299514,0.3280734717845917,73.16377258300781,-78.40351867675781,241.61343383789065
1700075954,1.1868743896484375,0.1009063720703125,-0.1683807373046875,0.4784424901008606,-0.1753838062286377,0.3700768649578094,72.9605712890625,-78.558837890625,241.210678100586
1700075954,1.233306884765625,0.0670623779296875,-0.1839752197265625,0.5253695249557495,-0.2221491783857345,0.406422883272171,72.94572448730469,-77.89541625976562,240.8209228515625
1700075954,1.27703857421875,0.02935791015625,-0.1912841796875,0.4783218502998352,-0.2674098610877991,0.4289255142211914,72.81771850585938,-77.61029052734375,240.76101684570312
1700075954,1.32391357421875,0.0247650146484375,-0.1409454345703125,0.5208474397659302,-0.2571077048778534,0.4526194036006927,72.29934692382812,-77.00540161132812,240.72442626953125
1700075954,1.3349456787109375,0.0390472412109375,-0.08355712890625,0.5972048044204712,-0.2783421576023102,0.4639487564563751,72.27458190917969,-77.02557373046875,240.6349334716797
1700075954,1.358642578125,0.072998046875,-0.0826568603515625,0.6659340858459473,-0.3376033306121826,0.469630092382431,72.09341430664062,-77.0537109375,240.88739013671875
1700075954,1.4266204833984375,0.082183837890625,-0.03997802734375,0.7542016506195068,-0.348144918680191,0.4832942187786102,71.8929443359375,-77.22587585449219,240.93739318847656
1700075954,1.4986114501953125,0.018890380859375,0.0258331298828125,0.7743348479270935,-0.3473172187805176,0.5403399467468262,71.61322021484375,-77.27729797363281,240.45880126953125
1700075954,1.5554351806640625,-0.0742645263671875,0.0836029052734375,0.6938788890838623,-0.3836483359336853,0.6631643772125244,71.55615234375,-77.44448852539062,240.2090301513672
1700075954,1.597686767578125,-0.212127685546875,0.12841796875,0.6226696968078613,-0.4165695309638977,0.8329268097877502,71.72572326660156,-77.15019226074219,240.30665588378903
1700075954,1.6500244140625,-0.3677978515625,0.1520538330078125,0.663859486579895,-0.4967112243175506,0.9665437340736388,71.80155944824219,-77.11140441894531,240.23687744140625
1700075954,1.6929473876953125,-0.52801513671875,0.2331695556640625,0.7390639781951904,-0.5413721799850464,1.0964564085006714,71.50566101074219,-76.85411071777344,239.29258728027344
1700075954,1.667449951171875,-0.6424713134765625,0.25390625,0.6278090476989746,-0.3491063416004181,1.240900993347168,71.34022521972656,-76.79959106445312,239.54380798339844
1700075954,1.5085906982421875,-0.7220001220703125,0.07879638671875,0.2642787992954254,0.0124068688601255,1.3371806144714355,71.07426452636719,-76.55960083007812,239.2498779296875
1700075954,1.3204498291015625,-0.7745208740234375,-0.1832122802734375,-0.4465308785438537,0.4953937530517578,1.6093498468399048,70.76383972167969,-76.13749694824219,239.25360107421875
1700075954,1.1945037841796875,-0.5782623291015625,-0.5748291015625,-1.878184199333191,1.2048587799072266,2.418128967285156,70.97900390625,-75.9404296875,239.1761169433593
1700075954,1.017822265625,-0.1796722412109375,-1.2997894287109375,-2.972238063812256,1.4083666801452637,3.402489423751831,70.94911193847656,-76.10182189941406,239.0718536376953
1700075954,1.1586456298828125,-0.001953125,-1.7595977783203125,-2.4524736404418945,1.2364047765731812,3.892085313796997,71.18109130859375,-75.71322631835938,239.4476928710937
1700075954,1.6248016357421875,-0.005950927734375,-1.6790008544921875,-1.568638563156128,1.1489843130111694,4.215505123138428,70.90481567382812,-75.3372802734375,238.8982696533203
1700075954,1.7707977294921875,0.266204833984375,-1.2451324462890625,-0.6126053333282471,0.9346209168434144,4.46321439743042,70.92607116699219,-75.24435424804688,238.9453887939453
1700075954,1.6948089599609375,0.6255035400390625,-0.696441650390625,0.2231183052062988,0.6455699801445007,4.67241907119751,70.80137634277344,-75.20672607421875,239.4454803466797
1700075954,1.59271240234375,0.99298095703125,-0.515380859375,0.5755982995033264,0.6526694297790527,4.583850860595703,70.82577514648438,-74.76170349121094,238.90191650390625
1700075954,1.661224365234375,1.3861541748046875,-0.6369476318359375,-0.3292434215545654,1.2148517370224,3.8880579471588135,70.50155639648438,-74.69059753417969,238.78875732421875
1700075954,1.890228271484375,1.908416748046875,-0.433807373046875,0.1795282214879989,1.8213438987731927,3.139868259429932,70.31495666503906,-74.70547485351562,238.7242889404297
1700075954,1.8633575439453125,1.539764404296875,-0.1239776611328125,1.2503410577774048,2.070983409881592,2.6467766761779785,70.03904724121094,-74.60049438476562,238.37326049804688
1700075954,1.6998443603515625,0.79302978515625,-0.292388916015625,1.3708148002624512,1.951641082763672,2.3996644020080566,70.64419555664062,-74.68142700195312,238.54391479492188
1700075954,1.582855224609375,0.5515289306640625,-0.6090087890625,1.0028884410858154,1.6096949577331543,2.2967357635498047,70.01123046875,-74.28445434570312,238.73573303222656
1700075954,1.4879913330078125,0.3474884033203125,-0.6341705322265625,0.4940059781074524,1.3019230365753174,2.155282497406006,70.80755615234375,-74.54348754882812,238.38394165039065
1700075954,1.438568115234375,0.0863189697265625,-0.5670928955078125,-0.0216038282960653,1.0931288003921509,1.9473869800567627,70.58213806152344,-74.35882568359375,238.1244506835937
1700075954,1.31610107421875,-0.129119873046875,-0.4623260498046875,-0.3235436975955963,0.9668371677398682,1.7643237113952637,70.93255615234375,-74.0572509765625,238.4092254638672
1700075954,1.1017608642578125,-0.277923583984375,-0.3024749755859375,-0.3906002342700958,0.9245305061340332,1.5384087562561035,70.726318359375,-73.89515686035156,237.6133270263672
1700075954,0.8934326171875,-0.385650634765625,-0.203277587890625,-0.3963662385940552,0.8404054641723633,1.2337082624435425,70.3447265625,-73.67861938476562,237.76690673828125
1700075954,0.722259521484375,-0.4340057373046875,-0.177337646484375,-0.4961897730827331,0.6837130784988403,0.897514820098877,70.4715576171875,-73.85308837890625,238.20620727539065
1700075954,0.5418243408203125,-0.4591064453125,-0.1718902587890625,-0.4481482207775116,0.5477094054222107,0.6022850871086121,70.35145568847656,-73.39094543457031,238.1145782470703
1700075954,0.341156005859375,-0.467254638671875,-0.086029052734375,-0.3819950222969055,0.4065163433551788,0.4452022314071655,70.37384033203125,-73.46159362792969,238.2611846923828
1700075954,0.14697265625,-0.4056549072265625,-0.0371246337890625,-0.3449629843235016,0.2815906703472137,0.168022021651268,70.33567810058594,-73.31443786621094,238.3494873046875
1700075954,0.1012725830078125,-0.354461669921875,-0.0444183349609375,-0.4320384860038757,0.1446783542633056,-0.3356229960918426,70.52194213867188,-73.29316711425781,238.2129669189453
1700075954,0.1394500732421875,-0.2975006103515625,-0.066497802734375,-0.518022358417511,0.0295238029211759,-0.8107746243476868,70.52470397949219,-73.42401123046875,238.02296447753903
1700075954,0.148406982421875,-0.2659149169921875,-0.0614166259765625,-0.5987465381622314,-0.1040419787168502,-1.1173001527786257,70.73756408691406,-72.81208801269531,238.4887237548828
1700075954,0.1172027587890625,-0.244476318359375,-0.0791778564453125,-0.7869318723678589,-0.2045254409313202,-1.4116610288619995,70.3963623046875,-72.94192504882812,237.9183349609375
1700075954,0.0993499755859375,-0.2718963623046875,-0.1476898193359375,-1.0192633867263794,-0.2909607291221618,-1.764102339744568,70.79010009765625,-73.263427734375,238.04592895507807
1700075954,0.082122802734375,-0.3430938720703125,-0.1417999267578125,-1.21221923828125,-0.3609592616558075,-2.073849678039551,70.69602966308594,-72.43084716796875,238.0261383056641
1700075954,0.0350799560546875,-0.3719024658203125,-0.125732421875,-1.3558014631271362,-0.4146224856376648,-2.257333993911743,70.50880432128906,-72.48605346679688,238.18994140625
1700075954,-0.047637939453125,-0.32354736328125,-0.1244354248046875,-1.6372976303100586,-0.4673304259777069,-2.4976847171783447,70.54786682128906,-72.33790588378906,237.94677734375
1700075954,-0.0976409912109375,-0.249298095703125,-0.178619384765625,-1.907996416091919,-0.5820663571357727,-2.8600010871887207,70.41323852539062,-72.249755859375,238.311752319336
1700075954,-0.1187744140625,-0.1563720703125,-0.2301025390625,-1.7256535291671753,-0.749199390411377,-3.077171564102173,70.39216613769531,-72.05975341796875,238.14654541015625
1700075954,-0.14801025390625,0.0394744873046875,-0.1561126708984375,-1.2832369804382324,-0.6814491152763367,-3.128736972808838,70.41719055175781,-71.79457092285156,237.56491088867188
1700075954,-0.1344146728515625,0.20452880859375,-0.061676025390625,-0.9996526837348938,-0.6479361653327942,-3.2229559421539307,70.19692993164062,-71.80253601074219,237.857650756836
1700075954,-0.15814208984375,0.446868896484375,-0.14801025390625,-0.4652340114116668,-0.6315598487854004,-3.3313682079315186,70.23846435546875,-71.65574645996094,238.05682373046875
1700075954,-0.1369476318359375,0.7456817626953125,-0.323211669921875,-0.0123637253418564,-0.5203171968460083,-3.402151584625244,70.26423645019531,-71.51322937011719,238.16549682617188
1700075954,-0.0863800048828125,0.9664764404296876,-0.372802734375,0.2269543260335922,-0.4042313694953918,-3.1991312503814697,70.45098876953125,-71.33837890625,237.8795623779297
1700075954,-0.0205535888671875,1.1937103271484375,-0.440704345703125,0.4232220947742462,-0.350125789642334,-2.8879928588867188,70.53302001953125,-71.18873596191406,237.59767150878903
1700075954,0.09429931640625,1.239227294921875,-0.527435302734375,0.4659149646759033,-0.3099059164524078,-2.404268264770508,70.39140319824219,-71.24603271484375,237.64205932617188
1700075954,0.1071624755859375,1.281707763671875,-0.636077880859375,0.3823820054531097,-0.255983829498291,-1.8780728578567505,70.25593566894531,-70.9105224609375,237.6252899169922
1700075954,0.110137939453125,1.342559814453125,-0.6994476318359375,0.443223774433136,-0.1212675720453262,-1.4960535764694214,70.19857788085938,-70.73074340820312,237.9997711181641
1700075954,0.1163330078125,1.387847900390625,-0.8053436279296875,0.3025111258029938,-0.0275770332664251,-1.0091748237609863,70.200439453125,-70.51690673828125,238.4267425537109
1700075954,0.0145721435546875,1.666351318359375,-0.8726959228515625,0.0737642347812652,0.0005933523061685,-0.6187354326248169,70.18609619140625,-70.37327575683594,237.8951568603516
1700075954,0.0241851806640625,1.8891448974609373,-0.731414794921875,0.0195622500032186,0.0826844945549964,-0.4164563417434692,70.24665832519531,-70.35867309570312,237.6117401123047
1700075954,0.0471343994140625,1.9677886962890625,-0.6221771240234375,-0.2325078099966049,0.7799868583679199,-0.5838181972503662,70.35371398925781,-70.08634948730469,237.9170379638672
1700075954,-0.00262451171875,1.8220367431640625,-1.2883758544921875,0.5025177001953125,0.8425050973892212,-0.6816091537475586,69.85127258300781,-69.45262145996094,237.2073211669922
1700075954,0.17095947265625,1.639923095703125,-1.2409210205078125,0.84968501329422,-0.3358267545700073,-0.2873417735099792,69.78886413574219,-69.61685180664062,237.9035797119141
1700075954,1.509979248046875,1.5730133056640625,0.2207794189453125,0.1285638362169265,-0.4152930676937103,-0.8851183652877808,69.56924438476562,-69.35208129882812,237.765869140625
1700075954,2.482635498046875,0.636199951171875,0.4542388916015625,0.1078937128186225,-0.0007526093395426,-1.0069472789764404,69.86561584472656,-68.96635437011719,237.9137115478516
1700075954,1.74151611328125,0.262359619140625,0.4532623291015625,-0.058221761137247,0.0824229717254638,-0.4453806579113006,70.17738342285156,-68.93997192382812,237.4477081298828
