timestamp,acc-x,acc-y,acc-z,gyr-x,gyr-y,gyr-z,mag-x,mag-y,mag-z
1700075787,1.2945709228515625,-0.0647430419921875,-0.1687469482421875,0.2912915050983429,-0.425999253988266,0.2851044535636902,85.44706726074219,-72.93556213378906,253.7108154296875
1700075787,1.37896728515625,-0.1985931396484375,-0.195465087890625,0.135929599404335,-0.4257800579071045,0.3684629797935486,85.337158203125,-73.06704711914062,253.94342041015625
1700075787,1.427978515625,-0.3132171630859375,-0.2066497802734375,-0.0630133226513862,-0.4502393305301666,0.4930810630321502,85.23541259765625,-73.12803649902344,253.3722381591797
1700075787,1.436187744140625,-0.3863067626953125,-0.223907470703125,-0.1680641025304794,-0.5337523221969604,0.5994179248809814,85.36326599121094,-72.89219665527344,253.3984375
1700075787,1.458740234375,-0.437225341796875,-0.1309814453125,-0.1347247958183288,-0.6109033226966858,0.684483528137207,85.21321105957031,-72.76161193847656,253.79869079589844
1700075787,1.4625701904296875,-0.469573974609375,0.056732177734375,-0.12119060754776,-0.6149473190307617,0.7970287203788757,85.07017517089844,-72.75286865234375,252.999267578125
1700075787,1.3634185791015625,-0.4959259033203125,0.225189208984375,-0.156806394457817,-0.4803588986396789,0.9531842470169068,84.94781494140625,-72.70491027832031,253.1562957763672
1700075787,1.239410400390625,-0.5853271484375,0.24151611328125,-0.1929827779531479,-0.1591196060180664,1.0714514255523682,85.27046203613281,-72.52841186523438,253.1190490722656
1700075787,1.191131591796875,-0.6681365966796875,0.0373382568359375,-0.2744816243648529,0.3284404575824737,1.364248752593994,85.09909057617188,-72.7330322265625,253.51806640625
1700075787,1.1454010009765625,-0.50262451171875,-0.34869384765625,-0.7052026391029358,0.9136645197868348,1.9776431322097776,85.18244934082031,-72.62593078613281,253.55332946777344
1700075787,1.05328369140625,-0.1720123291015625,-0.836212158203125,-1.2348188161849976,1.0867300033569336,2.5079891681671143,85.26100158691406,-72.62750244140625,252.97311401367188
1700075787,1.1456298828125,-0.0680694580078125,-1.1618804931640625,-1.4985463619232178,1.0412086248397827,2.89931869506836,85.44456481933594,-72.87429809570312,253.48507690429688
1700075787,1.4235076904296875,0.0543365478515625,-1.3448333740234375,-1.2724463939666748,0.993818998336792,3.350949764251709,84.87220764160156,-72.9334716796875,252.89097595214844
1700075787,1.4899749755859375,0.3282928466796875,-1.1881256103515625,-0.697563886642456,0.7539861798286438,3.859052419662476,85.01907348632812,-73.15481567382812,253.2796173095703
1700075787,1.472564697265625,0.621185302734375,-0.7100982666015625,-0.1346350461244583,0.4402993619441986,4.206066608428955,85.34017944335938,-73.42587280273438,253.4112243652344
1700075787,1.5245819091796875,0.7772979736328125,-0.341827392578125,0.20242740213871,0.5261008143424988,4.195775032043457,85.232177734375,-73.16893005371094,253.6019744873047
1700075787,1.6771697998046875,0.9380035400390624,-0.199676513671875,0.5454108715057373,1.0528658628463743,3.664284229278565,85.1536865234375,-73.21162414550781,253.1803741455078
1700075787,2.01458740234375,1.10333251953125,-0.0854034423828125,1.0785058736801147,1.4732245206832886,2.894388198852539,85.52500915527344,-73.27049255371094,253.59947204589844
1700075787,2.092041015625,1.003448486328125,-0.090606689453125,1.5022809505462646,1.6566880941390991,2.5288867950439453,85.43330383300781,-72.99652099609375,253.56455993652344
1700075787,1.768524169921875,0.7244873046875,-0.311859130859375,1.615465760231018,1.706858515739441,2.4435362815856934,85.63999938964844,-73.24977111816406,253.3762969970703
1700075787,1.53216552734375,0.5523834228515625,-0.5365142822265625,1.5162994861602783,1.6017608642578125,2.460169553756714,85.5225830078125,-73.17312622070312,254.0272216796875
1700075787,1.4675750732421875,0.452667236328125,-0.597930908203125,1.2336113452911377,1.3744549751281738,2.4372079372406006,85.51966857910156,-73.41572570800781,253.5518798828125
1700075787,1.4998626708984375,0.3238372802734375,-0.583740234375,0.7023349404335022,1.1175178289413452,2.198932409286499,85.595703125,-73.42912292480469,253.4537506103516
1700075787,1.5631561279296875,0.130859375,-0.5492095947265625,0.1165617629885673,0.9089879989624025,1.9291837215423584,85.53236389160156,-73.4366455078125,253.418685913086
1700075787,1.4763641357421875,0.0439605712890625,-0.478424072265625,-0.3415778279304504,0.7910832166671753,1.7712374925613403,85.69175720214844,-73.31730651855469,253.4974365234375
1700075787,1.2430419921875,0.0283050537109375,-0.3600921630859375,-0.6490173935890198,0.7972047328948975,1.5934603214263916,85.58624267578125,-73.87812805175781,253.4263458251953
1700075787,1.0036163330078125,-0.0455169677734375,-0.2233123779296875,-0.89564049243927,0.742019534111023,1.3370863199234009,85.34768676757812,-73.81620788574219,253.49305725097656
1700075787,0.7984466552734375,-0.1362152099609375,-0.138031005859375,-1.2863001823425293,0.661469042301178,1.0109175443649292,85.56427001953125,-74.12167358398438,254.0895233154297
1700075787,0.6286163330078125,-0.2097625732421875,-0.2418975830078125,-1.638941764831543,0.6137294769287109,0.6965809464454651,85.79045104980469,-73.86880493164062,253.93849182128903
1700075787,0.4564666748046875,-0.2568817138671875,-0.2949981689453125,-1.7393677234649658,0.5261394381523132,0.4603135287761688,86.0457763671875,-73.67521667480469,253.7265014648437
1700075787,0.3269805908203125,-0.2830963134765625,-0.214599609375,-1.6492905616760254,0.3791965842247009,0.2293783277273178,85.93901062011719,-73.77043151855469,253.48524475097656
1700075787,0.292327880859375,-0.321563720703125,-0.09967041015625,-1.456853985786438,0.2701625227928161,-0.0551420822739601,85.77125549316406,-74.04782104492188,253.4924774169922
1700075787,0.2625579833984375,-0.3240509033203125,-0.0415496826171875,-1.2217952013015747,0.1564652472734451,-0.3940844535827636,86.03340148925781,-74.23843383789062,252.9469451904297
1700075787,0.181243896484375,-0.23846435546875,-0.02740478515625,-1.1151448488235474,-0.0207630693912506,-0.8229524493217468,85.88121032714844,-74.14837646484375,253.60205078125
1700075787,0.1682281494140625,-0.1153564453125,-0.0426483154296875,-1.0208836793899536,-0.1470661461353302,-1.2392982244491575,85.83694458007812,-73.85458374023438,253.5662536621093
1700075787,0.1681976318359375,-0.0839691162109375,-0.0310516357421875,-1.0375603437423706,-0.2517547309398651,-1.6024290323257446,85.88113403320312,-73.92181396484375,253.86056518554688
1700075787,0.152008056640625,-0.1393890380859375,-0.070465087890625,-1.149659514427185,-0.4072596430778503,-1.901553750038147,86.26933288574219,-74.18548583984375,253.195556640625
1700075787,0.1333465576171875,-0.2081451416015625,-0.1191558837890625,-1.337143063545227,-0.5630625486373901,-2.127472162246704,86.42738342285156,-74.05368041992188,253.6145172119141
1700075787,0.07476806640625,-0.2387237548828125,-0.1427459716796875,-1.6205161809921265,-0.6526694297790527,-2.329002857208252,86.22236633300781,-73.7454833984375,253.35055541992188
1700075787,0.02679443359375,-0.2787322998046875,-0.182220458984375,-1.898046374320984,-0.776316225528717,-2.47175669670105,86.46212768554688,-73.87802124023438,253.61753845214844
1700075787,-0.021942138671875,-0.2138824462890625,-0.1807708740234375,-2.165966510772705,-0.928354799747467,-2.6280298233032227,86.76478576660156,-73.96792602539062,253.4865264892578
1700075787,-0.028106689453125,-0.0790863037109375,-0.181427001953125,-2.1372487545013428,-1.0613837242126465,-2.7193076610565186,86.63468933105469,-73.56132507324219,253.5419311523437
1700075787,-0.019622802734375,0.0969696044921875,-0.1239013671875,-1.8918981552124023,-1.1751251220703125,-2.815721035003662,86.69624328613281,-73.66680908203125,253.78775024414065
1700075787,-0.0165557861328125,0.2550201416015625,-0.109893798828125,-1.4706963300704956,-1.298746109008789,-2.920616865158081,86.79910278320312,-73.40080261230469,253.60655212402344
1700075787,-0.0046844482421875,0.4156036376953125,-0.1744537353515625,-0.9234569668769836,-1.3289775848388672,-2.942457437515259,86.95510864257812,-73.35565185546875,253.43934631347656
1700075787,0.009918212890625,0.5935821533203125,-0.2493743896484375,-0.4931154251098633,-1.2540076971054075,-2.861944437026977,86.65599060058594,-72.74678039550781,253.73580932617188
1700075787,0.0243377685546875,0.7946319580078125,-0.3700103759765625,-0.0884252041578292,-1.1490437984466553,-2.6787922382354736,86.79231262207031,-72.51667785644531,253.02944946289065
1700075787,0.0435028076171875,0.9820556640625,-0.5543670654296875,0.3285741508007049,-1.0050694942474363,-2.4979379177093506,87.02932739257812,-72.39985656738281,253.34844970703125
1700075787,0.11297607421875,1.0999298095703125,-0.75701904296875,0.6303268074989319,-0.7919644713401794,-2.179518699645996,87.08438110351562,-71.6827392578125,253.2641143798828
1700075787,0.1494293212890625,1.257781982421875,-0.9430999755859376,0.7439934611320496,-0.7341882586479187,-1.6458919048309326,87.56878662109375,-71.64427185058594,253.4789886474609
1700075787,0.1706390380859375,1.55792236328125,-0.9825439453125,0.6500864028930664,-0.7088556885719299,-1.189041256904602,87.47105407714844,-71.56968688964844,253.43600463867188
1700075787,0.3017120361328125,1.7326507568359375,-0.888427734375,0.5667456984519958,-0.6073384284973145,-0.8525891900062561,87.42706298828125,-70.783203125,253.5102386474609
1700075787,0.3250579833984375,1.85662841796875,-0.7885589599609375,0.4828739762306213,-0.4973866045475006,-0.5741444826126099,87.92343139648438,-70.44294738769531,253.9000701904297
1700075787,0.2750244140625,1.8989715576171875,-0.7152252197265625,0.3213628530502319,-0.4251790046691894,-0.4050412178039551,87.94898986816406,-69.98747253417969,253.43101501464844
1700075787,0.2488861083984375,1.7211151123046875,-0.625732421875,0.2690871357917785,-0.3989758789539337,-0.2660109102725982,87.87812805175781,-69.33673095703125,253.7255859375
1700075787,0.22052001953125,1.3544769287109375,-0.523284912109375,-0.334726870059967,0.0766487047076225,-0.3593515157699585,87.71836853027344,-68.86207580566406,253.42498779296875
1700075788,0.1674346923828125,0.904144287109375,-1.0225982666015625,-0.8961228132247925,0.5708837509155273,-0.5277695655822754,87.50065612792969,-68.04681396484375,253.11415100097656
1700075788,0.117584228515625,0.6296844482421875,-1.4757843017578125,-0.390693724155426,0.10333863645792,-0.3352192640304565,87.68637084960938,-67.92987060546875,253.0181884765625
1700075788,1.0673370361328125,0.5400848388671875,-0.5579986572265625,0.1857485622167587,-0.4892445206642151,-0.9045527577400208,87.57237243652344,-67.46754455566406,251.8158264160156
1700075788,2.53985595703125,0.072265625,-0.1493072509765625,0.3751168847084045,-0.9672670364379884,-0.5401103496551514,87.40724182128906,-66.91883850097656,251.47715759277344
1700075788,2.60382080078125,0.39520263671875,-0.0336456298828125,0.2833496928215027,-0.4540623128414154,0.7794973850250244,87.49325561523438,-66.04850769042969,250.77511596679688
1700075788,1.8587799072265625,0.5833892822265625,0.1592254638671875,-0.1710577607154846,-0.433097630739212,0.8805659413337708,87.21282958984375,-65.16427612304688,250.0398101806641
1700075788,1.786895751953125,0.4425048828125,0.4635009765625,-0.7343589663505554,-0.3326179087162018,0.4866335690021515,86.81671142578125,-64.14204406738281,249.94366455078125
1700075788,1.23382568359375,0.339599609375,0.0199127197265625,-0.6936461329460144,-0.0190517213195562,0.3642304241657257,86.76351928710938,-62.61961364746094,249.09637451171875
1700075788,0.56951904296875,0.1440582275390625,-0.6705169677734375,-0.1267981529235839,-0.1460525393486023,0.1474855989217758,86.41734313964844,-61.67616271972656,248.8450164794922
1700075788,0.798736572265625,0.0388641357421875,-0.6288299560546875,-0.009852897375822,-0.350237101316452,0.3254838287830353,86.11297607421875,-61.07427978515625,248.29962158203125
1700075788,0.912872314453125,0.305938720703125,-0.3834991455078125,-0.10600046813488,-0.1230303198099136,0.2781653106212616,85.8863525390625,-60.27983093261719,247.21221923828125
1700075788,0.826416015625,0.418731689453125,-0.1104278564453125,-0.1559989154338836,0.1888551414012909,0.0228896029293537,85.53436279296875,-59.167755126953125,246.7091827392578
1700075788,0.8901214599609375,0.464447021484375,-0.037445068359375,-0.0229939986020326,0.2445239871740341,-0.2048780471086502,85.38963317871094,-58.462799072265625,246.8512115478516
1700075788,0.995758056640625,0.424041748046875,-0.3630523681640625,0.035532958805561,0.1336278319358825,-0.298688679933548,84.83641052246094,-57.63053894042969,246.0486602783203
1700075788,1.0465240478515625,0.27252197265625,-0.4608917236328125,0.0628439411520958,0.0605901107192039,-0.2504386007785797,84.81683349609375,-56.74757385253906,245.84634399414065
1700075788,0.954803466796875,0.12982177734375,-0.4595184326171875,0.0520610697567462,-0.0227415319532156,-0.1833836734294891,84.40261840820312,-56.33831787109375,244.7637176513672
1700075788,0.9435272216796876,0.083038330078125,-0.44989013671875,0.0310732312500476,-0.0903895497322082,-0.145507127046585,84.42402648925781,-56.14958190917969,244.3879547119141
1700075788,1.0380096435546875,0.125640869140625,-0.423828125,0.0371383130550384,-0.1511426419019699,-0.1362947225570678,84.03936767578125,-55.5057373046875,244.1564178466797
1700075788,1.0517120361328125,0.2047271728515625,-0.404296875,0.0778561830520629,-0.1941545605659485,-0.1714354008436203,83.41615295410156,-55.54849243164063,243.2762756347656
1700075788,1.0057830810546875,0.2516021728515625,-0.3811187744140625,0.1346209347248077,-0.239988625049591,-0.2337989062070846,83.87736511230469,-55.85791015625,242.8827209472656
1700075788,0.982452392578125,0.2606201171875,-0.3582305908203125,0.1366507858037948,-0.2970204949378967,-0.2934771478176117,83.65689086914062,-55.67716979980469,242.84523010253903
1700075788,0.9775848388671876,0.2361602783203125,-0.3668975830078125,0.1160075590014457,-0.3433091640472412,-0.3248095214366913,83.67449951171875,-56.081573486328125,242.5952606201172
1700075788,0.9564666748046876,0.19970703125,-0.3825531005859375,0.0597133971750736,-0.3875237703323364,-0.32707479596138,83.75302124023438,-56.360443115234375,241.3098907470703
1700075788,0.94830322265625,0.1652679443359375,-0.3867950439453125,-2.79631913144e-05,-0.4175359904766083,-0.3079170882701874,83.42903137207031,-56.98092651367188,241.11659240722656
1700075788,0.961395263671875,0.146759033203125,-0.357574462890625,-0.0629557967185974,-0.4348060488700866,-0.296368807554245,84.16334533691406,-57.291015625,240.51187133789065
1700075788,0.9926910400390624,0.135955810546875,-0.326812744140625,-0.0505063161253929,-0.4242375493049621,-0.2955738604068756,84.25927734375,-58.149932861328125,240.5166015625
1700075788,1.008880615234375,0.134063720703125,-0.3358612060546875,-0.0034530546981841,-0.4334446489810943,-0.2775413393974304,84.55694580078125,-58.55531311035156,241.1959686279297
1700075788,0.9987335205078124,0.1550140380859375,-0.342926025390625,0.0734334737062454,-0.4465987980365753,-0.268688440322876,84.844970703125,-59.21928405761719,240.4602508544922
1700075788,0.9845733642578124,0.1803131103515625,-0.3495025634765625,0.1513767391443252,-0.4742855429649353,-0.302190214395523,85.02775573730469,-60.171295166015625,241.1926422119141
1700075788,0.9538726806640624,0.219024658203125,-0.31341552734375,0.1440237462520599,-0.4778954684734344,-0.3699730038642883,85.83799743652344,-61.78900146484375,240.4115600585937
1700075788,0.9395904541015624,0.2458343505859375,-0.2778472900390625,0.0871042758226394,-0.4450640082359314,-0.4544841349124908,85.814453125,-62.34535217285156,240.5107879638672
1700075788,0.94818115234375,0.23577880859375,-0.2891998291015625,0.0622958652675151,-0.4263260066509247,-0.4829165935516357,86.78959655761719,-63.90753173828125,240.7397308349609
1700075788,0.9586334228515624,0.2051544189453125,-0.2969970703125,0.0728449150919914,-0.4411499798297882,-0.4756301939487457,86.81330871582031,-64.719970703125,240.6287536621093
1700075788,0.96612548828125,0.15789794921875,-0.3093109130859375,0.1202164217829704,-0.4347791671752929,-0.4488459825515747,86.82304382324219,-65.68634033203125,241.1899871826172
1700075788,0.960296630859375,0.123199462890625,-0.315521240234375,0.1440069675445556,-0.43575119972229,-0.4079648554325104,87.38896179199219,-66.49787902832031,241.1994171142578
1700075788,0.9566802978515624,0.116973876953125,-0.2823333740234375,0.1090790852904319,-0.4216252565383911,-0.4005074799060821,87.62832641601562,-67.47543334960938,241.75021362304688
1700075788,0.9891510009765624,0.1070556640625,-0.245391845703125,0.0935382097959518,-0.3911491334438324,-0.3775014877319336,87.8896484375,-67.92324829101562,242.30039978027344
1700075788,1.0012359619140625,0.0874176025390625,-0.241241455078125,0.1209498569369316,-0.3139475286006927,-0.3495561480522156,88.19841003417969,-68.53581237792969,242.4877014160156
1700075788,0.978363037109375,0.06591796875,-0.2537689208984375,0.2686575651168823,-0.2907918989658355,-0.3074185252189636,88.24642944335938,-68.88752746582031,242.6201171875
1700075788,0.9384613037109376,0.094573974609375,-0.2196197509765625,0.3522225022315979,-0.2866802215576172,-0.2964628338813782,88.21406555175781,-69.07135009765625,243.3677673339844
1700075788,0.922515869140625,0.126434326171875,-0.2071990966796875,0.3306865692138672,-0.2635022103786468,-0.2941887378692627,88.38906860351562,-69.09709167480469,242.8226776123047
1700075788,0.9273834228515624,0.1179351806640625,-0.21466064453125,0.2653344571590423,-0.2293319851160049,-0.2397835701704025,88.70405578613281,-69.35598754882812,243.49110412597656
1700075788,0.95306396484375,0.06219482421875,-0.246826171875,0.2614052295684814,-0.2282515466213226,-0.1433883160352707,88.40069580078125,-69.04188537597656,242.9036102294922
1700075788,0.9941558837890624,-0.0173187255859375,-0.2705078125,0.251944363117218,-0.246582344174385,-0.0662522539496421,88.35569763183594,-69.09358215332031,242.5797882080078
1700075788,1.0303802490234375,-0.0948028564453125,-0.2569427490234375,0.2356905490159988,-0.2438132017850875,0.0332807265222072,88.17903137207031,-69.1513671875,243.4280548095703
1700075788,0.993499755859375,-0.0987091064453125,-0.2389373779296875,0.217238038778305,-0.2238621264696121,0.1202739477157592,88.55899047851562,-69.26881408691406,243.3152313232422
1700075788,0.9207763671875,-0.0747833251953125,-0.237762451171875,0.1399427205324173,-0.1955958604812622,0.2265484482049942,88.71627807617188,-69.12644958496094,243.5121917724609
1700075788,0.8552398681640625,-0.02142333984375,-0.225799560546875,0.0758130028843879,-0.150756761431694,0.3129307329654693,88.59832763671875,-69.15242004394531,243.8179931640625
1700075788,0.8188323974609375,0.023773193359375,-0.2301177978515625,0.0789323672652244,-0.130041629076004,0.3708254694938659,88.6185302734375,-68.96330261230469,244.1671142578125
1700075788,0.8348541259765625,0.0699310302734375,-0.226531982421875,0.126663401722908,-0.1314022243022918,0.4199035465717315,88.70991516113281,-68.67771911621094,243.4626617431641
1700075788,0.8874969482421875,0.1126251220703125,-0.208160400390625,0.1216678470373153,-0.1331212967634201,0.4564775228500366,88.63603210449219,-68.75798034667969,244.0572662353516
1700075788,0.956298828125,0.1069183349609375,-0.2017059326171875,0.1516771465539932,-0.1182502135634422,0.4848881363868713,88.74725341796875,-68.52919006347656,244.28250122070312
1700075788,0.99468994140625,0.0738372802734375,-0.2353668212890625,0.1671216189861297,-0.1403208971023559,0.5125961899757385,88.78311157226562,-68.29920959472656,244.083724975586
1700075788,1.0230712890625,0.064361572265625,-0.248687744140625,0.1517551690340042,-0.1609188467264175,0.5533012747764587,89.1416015625,-68.63900756835938,244.4961395263672
1700075788,1.0724945068359375,0.0778350830078125,-0.220947265625,0.0945315659046173,-0.1820547580718994,0.5918630361557007,88.82826232910156,-68.54151916503906,244.3053131103516
1700075788,1.1213226318359375,0.106475830078125,-0.182373046875,0.1250258237123489,-0.2030705660581588,0.6045625805854797,88.8502197265625,-68.39497375488281,244.0057983398437
1700075788,1.1558837890625,0.1656036376953125,-0.173309326171875,0.1675074994564056,-0.2588315606117248,0.5521885752677917,88.7320556640625,-68.45011901855469,244.31109619140625
1700075788,1.19342041015625,0.2434234619140625,-0.1520843505859375,0.2079790383577346,-0.282762199640274,0.5203284025192261,88.87406921386719,-68.70657348632812,243.9317321777344
1700075788,1.2287750244140625,0.3039398193359375,-0.050811767578125,0.2334215342998504,-0.2740795016288757,0.5172444581985474,88.93028259277344,-68.73239135742188,244.4522705078125
1700075788,1.242828369140625,0.2640380859375,-0.025390625,0.2626103162765503,-0.2859939336776733,0.5385524034500122,88.81468200683594,-68.95111083984375,243.5798797607422
1700075788,1.247528076171875,0.1441497802734375,-0.10198974609375,0.1799862831830978,-0.3389998972415924,0.5769823789596558,88.9178466796875,-69.09194946289062,244.03189086914065
1700075788,1.2666778564453125,-0.0135498046875,-0.153778076171875,-0.0286958273500204,-0.3964828848838806,0.6650989055633545,88.72843933105469,-68.94831848144531,243.7876434326172
1700075788,1.3015594482421875,-0.10467529296875,-0.2611236572265625,-0.2341733574867248,-0.5183179974555969,0.707059919834137,88.95082092285156,-68.89105224609375,243.95571899414065
1700075788,1.3803558349609375,-0.1545257568359375,-0.354248046875,-0.2841614186763763,-0.6334488391876221,0.7182353734970093,88.88011169433594,-68.9560546875,244.35012817382807
1700075788,1.506011962890625,-0.1769256591796875,-0.2651214599609375,-0.1752834022045135,-0.7025948762893677,0.7549968361854553,89.11727905273438,-69.23905944824219,244.7587890625
1700075788,1.598388671875,-0.1378631591796875,-0.05718994140625,-0.0521271154284477,-0.7914009094238281,0.8045350909233093,89.55093383789062,-69.59378051757812,244.39068603515625
1700075788,1.65301513671875,-0.0730438232421875,0.1729278564453125,0.0199089925736188,-0.7587401866912842,0.8288953304290771,89.27774047851562,-69.39962768554688,244.91668701171875
1700075788,1.681243896484375,-0.10955810546875,0.3057098388671875,0.072535715997219,-0.7146986722946167,0.8416569232940674,89.57929992675781,-70.04638671875,245.645736694336
1700075788,1.6483917236328125,-0.252532958984375,0.3611602783203125,-0.0102664856240153,-0.6803162097930908,0.9135710597038268,89.87887573242188,-69.43051147460938,245.34832763671875
1700075788,1.558441162109375,-0.45074462890625,0.3122711181640625,-0.1043194830417633,-0.6569352746009827,0.9861482977867126,90.30754089355467,-69.78121948242188,245.35861206054688
1700075788,1.4542388916015625,-0.6463775634765625,0.263092041015625,-0.1515256017446518,-0.5478671193122864,0.9961002469062804,90.1549072265625,-69.69145202636719,245.94268798828125
1700075788,1.3629608154296875,-0.7534332275390625,0.1010894775390625,-0.4728788733482361,-0.0961963087320327,1.2141772508621216,90.24748229980467,-69.66055297851562,245.64529418945312
1700075788,1.2280120849609375,-0.59429931640625,-0.449066162109375,-1.3020647764205933,0.3916032016277313,1.7897965908050537,90.46693420410156,-70.46098327636719,246.1097717285156
1700075788,1.0252685546875,-0.2523651123046875,-1.097930908203125,-2.2709810733795166,0.4951239824295044,2.418568849563598,90.70309448242188,-70.27812194824219,246.4241485595703
1700075788,1.0160675048828125,-0.1428680419921875,-1.4325408935546875,-3.0075221061706543,0.4448054134845733,2.715941905975342,90.7921142578125,-70.35267639160156,246.83612060546875
1700075788,1.257720947265625,-0.2428741455078125,-1.4276123046875,-3.112424612045288,0.5220357775688171,3.071293592453003,90.69253540039062,-70.64056396484375,246.5973358154297
1700075788,1.3055267333984375,-0.075958251953125,-1.147308349609375,-2.6801869869232178,0.7153980135917664,3.733801126480103,91.0014190673828,-70.96372985839844,246.52584838867188
1700075788,1.20562744140625,0.3593292236328125,-0.8920745849609375,-1.9205788373947144,0.56755530834198,4.369724750518799,91.16270446777344,-71.18702697753906,246.8243865966797
1700075788,1.285980224609375,0.7157440185546875,-0.584991455078125,-1.175532579421997,0.4247379601001739,4.720693111419678,91.45710754394533,-71.16171264648438,246.5876007080078
1700075788,1.464141845703125,0.97625732421875,-0.5438690185546875,-0.8380270004272461,0.6659647226333618,4.604491710662842,91.11378479003906,-70.92845153808594,246.895263671875
1700075788,1.6284942626953125,1.24237060546875,-0.6665496826171875,-0.8702038526535034,0.8601959943771362,4.146032333374023,91.43028259277344,-70.85626220703125,247.4404754638672
1700075788,1.8872833251953125,1.47802734375,-0.5398712158203125,-0.576815664768219,1.0585641860961914,3.506563186645508,91.46888732910156,-70.79988098144531,246.93492126464844
1700075788,2.043548583984375,1.2630157470703125,-0.4264068603515625,0.2634097933769226,1.2992295026779177,3.094690322875977,91.52001953125,-70.95077514648438,247.3432464599609
1700075788,1.82635498046875,0.7394561767578125,-0.4493865966796875,0.7768493890762329,1.3691867589950562,2.9363274574279785,91.85426330566406,-71.05287170410156,247.2463836669922
1700075788,1.59991455078125,0.4889678955078125,-0.5912322998046875,0.872553825378418,1.264883279800415,2.9538912773132324,91.97573852539062,-70.98309326171875,247.5722045898437
1700075788,1.4886474609375,0.3750152587890625,-0.674591064453125,0.7991384863853455,1.0886123180389404,3.0009565353393555,92.10598754882812,-71.18045043945312,247.5623474121093
1700075788,1.4423675537109375,0.2653350830078125,-0.6311798095703125,0.5434955358505249,0.90909081697464,2.910094976425171,92.08961486816406,-71.12850952148438,247.5973052978516
1700075788,1.4203643798828125,0.12835693359375,-0.5605010986328125,0.2718099355697632,0.7720165848731995,2.6600170135498047,92.19108581542967,-70.92337036132812,248.1610717773437
1700075788,1.356170654296875,-0.0110626220703125,-0.5019989013671875,0.0256606228649616,0.6675729751586914,2.3637773990631104,92.52825927734376,-70.88404846191406,248.0370483398437
1700075788,1.2284698486328125,-0.088775634765625,-0.4403076171875,-0.2569926381111145,0.6230060458183289,2.09999680519104,92.70808410644533,-70.6290283203125,248.36477661132807
1700075788,1.04876708984375,-0.1240997314453125,-0.398895263671875,-0.5026375651359558,0.5360487699508667,1.867348313331604,92.4290008544922,-70.71656799316406,247.9991607666016
1700075788,0.8398895263671875,-0.1430816650390625,-0.336090087890625,-0.8092361092567444,0.394281268119812,1.615763783454895,92.89187622070312,-70.69650268554688,247.9683074951172
1700075788,0.6713409423828125,-0.1840972900390625,-0.303619384765625,-1.2068127393722534,0.2411990314722061,1.2645405530929563,92.86947631835938,-70.59275817871094,248.7028961181641
1700075788,0.5802764892578125,-0.2713470458984375,-0.29132080078125,-1.5804507732391355,0.1223054081201553,0.9028664827346802,92.9943389892578,-70.49961853027344,248.4203643798828
1700075788,0.48602294921875,-0.3135528564453125,-0.29718017578125,-1.7819583415985107,-0.0243223831057548,0.6215916275978088,92.91253662109376,-69.89341735839844,248.54147338867188
1700075788,0.348297119140625,-0.2860870361328125,-0.239105224609375,-1.918278336524964,-0.164784163236618,0.289003312587738,93.22915649414062,-69.99002075195312,248.5198516845703
1700075788,0.2928466796875,-0.312164306640625,-0.198699951171875,-1.9774386882781985,-0.3185271024703979,-0.1260426193475723,93.18440246582033,-69.53828430175781,249.31124877929688
1700075788,0.298370361328125,-0.3426513671875,-0.163330078125,-1.9483497142791748,-0.4824795722961426,-0.4838028848171234,93.5693817138672,-69.41653442382812,248.6619415283203
1700075788,0.2888336181640625,-0.2806243896484375,-0.1612548828125,-1.9063713550567627,-0.6420580148696899,-0.7980660200119019,93.73841857910156,-69.39506530761719,248.74972534179688
1700075788,0.28076171875,-0.1951904296875,-0.1807861328125,-1.898872137069702,-0.8234723210334778,-1.1817971467971802,93.537353515625,-68.4075927734375,249.117919921875
1700075789,0.319854736328125,-0.17254638671875,-0.1670074462890625,-1.8817949295043943,-1.0062708854675293,-1.602446675300598,93.19512939453124,-68.26518249511719,248.74546813964844
1700075789,0.3350677490234375,-0.16424560546875,-0.170501708984375,-1.8338143825531008,-1.119653344154358,-1.94797158241272,93.19754028320312,-67.49360656738281,248.8351287841797
1700075789,0.2751312255859375,-0.1527557373046875,-0.182403564453125,-1.8240163326263428,-1.2262426614761353,-2.2249655723571777,93.05511474609376,-67.14930725097656,248.2761688232422
1700075789,0.228424072265625,-0.1837921142578125,-0.188323974609375,-1.8730485439300537,-1.3488452434539795,-2.458205461502075,93.3561553955078,-66.70950317382812,247.613525390625
1700075789,0.2138214111328125,-0.2045135498046875,-0.2266845703125,-1.9081133604049685,-1.465201497077942,-2.6912589073181152,92.27737426757812,-65.74681091308594,247.0565795898437
1700075789,0.220977783203125,-0.210601806640625,-0.262603759765625,-1.9008251428604128,-1.584422945976257,-2.91502046585083,92.1171875,-64.781005859375,245.9967498779297
1700075789,0.2404022216796875,-0.164337158203125,-0.2662200927734375,-1.885495662689209,-1.6679353713989258,-3.147192478179932,91.48141479492188,-63.46514892578125,245.8509826660156
1700075789,0.288482666015625,-0.0865936279296875,-0.257537841796875,-1.840139865875244,-1.742717742919922,-3.3761980533599854,91.20021057128906,-62.19346618652344,245.06417846679688
1700075789,0.3561553955078125,-0.035980224609375,-0.2396392822265625,-1.7196252346038818,-1.8646106719970703,-3.576231002807617,90.79745483398438,-60.46797180175781,244.85281372070312
1700075789,0.41064453125,0.0515594482421875,-0.245452880859375,-1.567033290863037,-1.9577256441116333,-3.753964424133301,90.28228759765624,-59.14213562011719,244.34890747070312
1700075789,0.459381103515625,0.143310546875,-0.2342376708984375,-1.5345802307128906,-1.9791553020477293,-3.9031734466552734,89.48287963867188,-58.13568115234375,243.5334930419922
1700075789,0.5002593994140625,0.167877197265625,-0.2404022216796875,-1.5692362785339355,-1.9660743474960327,-3.97408390045166,88.99310302734375,-56.90663146972656,243.3104705810547
1700075789,0.50927734375,0.172607421875,-0.3209991455078125,-1.6853138208389282,-1.964332699775696,-3.975211143493652,88.31982421875,-55.43595886230469,242.6196136474609
1700075789,0.516998291015625,0.220001220703125,-0.3933563232421875,-1.906233191490173,-1.9765632152557373,-3.915931940078736,87.84100341796875,-54.4351806640625,242.0420379638672
1700075789,0.5624542236328125,0.3142547607421875,-0.4294281005859375,-2.103700637817383,-1.9958804845809937,-3.785611629486084,86.85389709472656,-53.39060974121094,241.6007080078125
1700075789,0.62567138671875,0.4249420166015625,-0.4508819580078125,-2.177595615386963,-2.025334358215332,-3.561219930648804,86.39448547363281,-52.49087524414063,241.38790893554688
1700075789,0.677154541015625,0.5772247314453125,-0.5050048828125,-2.0955703258514404,-2.052364110946656,-3.2852907180786133,85.87152099609375,-51.9161376953125,240.58840942382807
1700075789,0.7368927001953125,0.7509765625,-0.6066741943359375,-1.9022527933120728,-2.0487279891967773,-2.9812562465667725,85.62091064453125,-51.63441467285156,240.3166656494141
1700075789,0.7904815673828125,0.9697723388671876,-0.7397613525390625,-1.7747808694839478,-1.9671257734298704,-2.698936700820923,85.191162109375,-50.99418640136719,239.8882293701172
1700075789,0.8344268798828125,1.174468994140625,-0.901214599609375,-1.6863127946853638,-1.8066368103027344,-2.524996995925904,84.777099609375,-50.11444091796875,239.8703155517578
1700075789,0.88299560546875,1.2696990966796875,-1.014495849609375,-1.6420563459396362,-1.603735089302063,-2.267015218734741,84.65843200683594,-49.60740661621094,239.280502319336
1700075789,0.834991455078125,1.3668212890625,-1.08453369140625,-1.6093263626098633,-1.4400150775909424,-1.8648077249526973,84.15567016601562,-49.50157165527344,238.4428100585937
1700075789,0.7258453369140625,1.4979248046875,-1.0916900634765625,-1.4485965967178345,-1.260918140411377,-1.448031306266785,84.16293334960938,-49.18597412109375,238.2613220214844
1700075789,0.674591064453125,1.579376220703125,-1.0664215087890625,-1.1679418087005615,-1.0370266437530518,-1.0651805400848389,83.87687683105469,-49.11238098144531,237.5914764404297
1700075789,0.636444091796875,1.697845458984375,-1.04345703125,-0.8566758036613464,-0.8238901495933533,-0.7052924036979675,83.85409545898438,-49.42073059082031,237.3445739746093
1700075789,0.6313629150390625,1.797027587890625,-1.0134124755859375,-0.442323088645935,-0.3112865090370178,-0.522576630115509,83.87261962890625,-49.37922668457031,236.9922637939453
1700075789,0.70477294921875,1.7085723876953125,-1.1876220703125,-0.0639725923538208,-0.250711053609848,0.4299481809139251,84.19450378417969,-49.99395751953125,236.6441802978516
1700075789,0.4082183837890625,2.0941925048828125,-1.1079559326171875,-0.3720601201057434,-0.0649960413575172,0.6519178748130798,84.31413269042969,-50.392822265625,236.2952117919922
1700075789,0.6833648681640625,1.8310089111328125,-1.239105224609375,-0.2320236414670944,0.5664168000221252,1.058078408241272,84.51473999023438,-51.49755859375,235.546615600586
1700075789,0.6666107177734375,1.5880889892578125,-1.4942474365234375,0.8291725516319275,0.2296481132507324,0.2228501290082931,85.09590148925781,-51.94172668457031,235.44810485839844
1700075789,2.2859649658203125,0.19757080078125,-0.2987518310546875,0.5661686062812805,-0.6997551321983337,-0.5920255184173584,85.47450256347656,-52.829193115234375,235.2147979736328
1700075789,3.929229736328125,-0.4634246826171875,0.50823974609375,-1.791220784187317,-0.630692183971405,0.6239235401153564,85.91035461425781,-53.73249816894531,235.390365600586
1700075789,2.194091796875,-0.242645263671875,0.172882080078125,-1.731289267539978,-0.1948576420545578,2.059586524963379,86.30084228515625,-54.81678771972656,234.45606994628903
1700075789,0.4514007568359375,-0.3647003173828125,0.376953125,-0.6130828261375427,-0.2774156332015991,1.957523822784424,87.174072265625,-56.47628784179688,234.41915893554688
1700075789,-0.150146484375,-0.4716644287109375,-0.1203155517578125,-0.1865581572055816,0.0346471928060054,0.923215925693512,87.75749206542969,-57.56480407714844,234.09548950195312
1700075789,-0.1478424072265625,-0.4566192626953125,-0.7310943603515625,-0.2276494055986404,0.2847678065299988,0.7569257616996765,88.49940490722656,-58.546966552734375,234.0136566162109
1700075789,0.4703369140625,0.129913330078125,-0.331085205078125,-0.1747670173645019,0.1851064711809158,1.01347815990448,88.66331481933594,-59.29304504394531,234.8262939453125
1700075789,1.1573486328125,0.598175048828125,-0.0004730224609375,-0.3251392245292663,0.0723929703235626,1.0549126863479614,89.48451232910156,-60.10610961914063,234.38531494140625
1700075789,1.5998992919921875,0.7781982421875,-0.1706390380859375,-0.3945214748382568,0.0807427838444709,0.7118602991104126,89.62626647949219,-61.34152221679688,234.5209808349609
1700075789,1.5916900634765625,0.74102783203125,-0.2639007568359375,-0.0732688903808593,0.0944625884294509,0.3685024082660675,89.92535400390625,-61.611328125,235.20632934570312
1700075789,1.232025146484375,0.514739990234375,-0.1490325927734375,0.0794727206230163,0.15434430539608,0.2568818628787994,90.53671264648438,-61.49354553222656,235.5884246826172
1700075789,0.9807891845703124,0.217010498046875,-0.090301513671875,0.0260300021618604,0.2611298561096191,0.2959357798099518,90.46229553222656,-62.49394226074219,235.4974975585937
1700075789,0.8954315185546875,-0.0022430419921875,-0.1295928955078125,0.0077822892926633,0.3144327700138092,0.4431646466255188,90.48136901855467,-62.72215270996094,235.72525024414065
1700075789,0.8785552978515625,-0.091552734375,-0.1989898681640625,0.0642197355628013,0.2886792123317718,0.5803520679473877,90.72274780273438,-62.32237243652344,235.93746948242188
1700075789,0.919677734375,-0.0794677734375,-0.2507781982421875,0.0364267155528068,0.2400690615177154,0.6039029359817505,90.76057434082033,-62.54563903808594,236.96356201171875
1700075789,0.9789581298828124,0.033782958984375,-0.25665283203125,-0.0337758064270019,0.2388187050819397,0.5469693541526794,90.63320922851562,-62.294281005859375,236.1988067626953
1700075789,1.0163726806640625,0.1637725830078125,-0.24908447265625,-0.0620575100183486,0.2319421470165252,0.4194880723953247,91.14671325683594,-62.7171630859375,236.5460205078125
1700075789,1.0225982666015625,0.1948089599609375,-0.250885009765625,-0.0891455858945846,0.195780947804451,0.3377218544483185,90.625244140625,-62.05149841308594,237.0837554931641
1700075789,1.017974853515625,0.1691741943359375,-0.2471771240234375,-0.0728190764784812,0.1615428179502487,0.3641590476036072,90.5732421875,-61.98992919921875,236.5906219482422
1700075789,1.003692626953125,0.1700592041015625,-0.2877349853515625,-0.0262755453586578,0.0713759139180183,0.3723101913928985,90.61036682128906,-62.12638854980469,237.0474853515625
1700075789,1.0185546875,0.1593780517578125,-0.322235107421875,-0.0710179805755615,-0.0397186502814292,0.3489073812961578,90.58209228515624,-62.32856750488281,237.0072631835937
1700075789,1.0288543701171875,0.149932861328125,-0.3075103759765625,-0.1244228854775428,-0.0811246782541275,0.329949676990509,90.70083618164062,-62.87815856933594,237.0709228515625
1700075789,0.9983673095703124,0.149749755859375,-0.255828857421875,-0.1577161252498626,-0.0685606822371482,0.3158008456230163,91.3786163330078,-63.15565490722656,237.4546813964844
1700075789,0.9742279052734376,0.1468505859375,-0.2201080322265625,-0.2199406176805496,-0.0423469245433807,0.267934501171112,91.1886749267578,-62.99261474609375,237.60818481445312
1700075789,0.980194091796875,0.1164093017578125,-0.2057647705078125,-0.2205771207809448,-0.0269165690988302,0.240199014544487,90.84236145019533,-62.82035827636719,237.6211700439453
1700075789,0.9765625,0.1207275390625,-0.22271728515625,-0.1553448438644409,-0.0425479933619499,0.2165378928184509,91.2002410888672,-62.84326171875,237.47862243652344
1700075789,0.9799957275390624,0.1548919677734375,-0.264068603515625,-0.1613830327987671,-0.1066060736775398,0.1575246453285217,91.01605224609376,-62.22468566894531,237.6470489501953
1700075789,1.0167999267578125,0.18218994140625,-0.24200439453125,-0.2407654672861099,-0.1276945769786834,0.0723948404192924,91.14471435546876,-62.34638977050781,237.4012451171875
1700075789,1.039093017578125,0.188079833984375,-0.217254638671875,-0.2309706360101699,-0.1259558051824569,0.015434349887073,91.0985870361328,-62.67596435546875,237.6168365478516
1700075789,1.00726318359375,0.179931640625,-0.2239532470703125,-0.1730735152959823,-0.1582199931144714,-0.0186466556042432,91.62612915039062,-62.95294189453125,237.76544189453125
1700075789,0.99176025390625,0.146728515625,-0.2264251708984375,-0.1193623468279838,-0.185914471745491,-0.044410340487957,91.7150421142578,-62.87135314941406,237.5960693359375
1700075789,0.9942474365234376,0.1146240234375,-0.226104736328125,-0.084134854376316,-0.1971082687377929,-0.0565029568970203,91.38560485839844,-63.02020263671875,237.2073516845703
1700075789,0.988983154296875,0.10015869140625,-0.214141845703125,-0.0933022499084472,-0.2013930380344391,-0.0842725336551666,91.5576171875,-63.1546630859375,238.203369140625
1700075789,0.9874420166015624,0.0751190185546875,-0.2343902587890625,-0.0578182935714721,-0.2098728120326995,-0.0690831989049911,91.33168029785156,-62.90264892578125,237.7918395996093
1700075789,0.9669342041015624,0.098663330078125,-0.2724151611328125,-0.0820671692490577,-0.2716403007507324,-0.0928345993161201,91.43971252441406,-63.208770751953125,237.7683563232422
1700075789,0.99444580078125,0.11248779296875,-0.247467041015625,-0.1202569007873535,-0.2902044057846069,-0.1343812495470047,91.55712890625,-63.48638916015625,237.44419860839844
1700075789,1.02008056640625,0.1065826416015625,-0.206146240234375,-0.099913015961647,-0.2615985870361328,-0.1418737769126892,91.72222900390624,-63.574310302734375,237.56167602539065
1700075789,0.995513916015625,0.1104583740234375,-0.2001495361328125,-0.0445088781416416,-0.2770433127880096,-0.1281760782003402,91.40602111816406,-63.61714172363281,237.3633270263672
1700075789,0.9803924560546876,0.1034393310546875,-0.193450927734375,-0.0291783921420574,-0.2711798250675201,-0.153556540608406,91.53776550292967,-63.44752502441406,237.6220703125
1700075789,0.999603271484375,0.061431884765625,-0.2115478515625,0.005911951418966,-0.2772558331489563,-0.136245995759964,91.5873565673828,-63.40293884277344,237.6479034423828
1700075789,0.9666290283203124,0.0812835693359375,-0.2288970947265625,-0.0361090004444122,-0.2977858781814575,-0.1089669615030288,91.932373046875,-63.476318359375,238.0895538330078
1700075789,0.9532012939453124,0.12066650390625,-0.21820068359375,-0.1186166629195213,-0.2777903378009796,-0.1260322332382202,92.14772033691406,-63.93727111816406,238.2694702148437
1700075789,0.9626312255859376,0.1150360107421875,-0.186767578125,-0.1166669577360153,-0.2301671504974365,-0.1337135881185531,92.33790588378906,-64.08151245117188,238.69509887695312
1700075789,0.9609375,0.0957183837890625,-0.160003662109375,-0.070826768875122,-0.2238325625658035,-0.1095320880413055,92.47264099121094,-63.9716796875,238.16925048828125
1700075789,0.9792938232421876,0.058135986328125,-0.1694183349609375,-0.0116183068603277,-0.2167493551969528,-0.064022921025753,92.5371551513672,-64.57478332519531,238.3597412109375
1700075789,0.9814910888671876,0.0279388427734375,-0.16107177734375,0.0155760301277041,-0.1884498000144958,-0.0043550673872232,92.6556396484375,-64.17225646972656,238.84844970703125
1700075789,0.9620513916015624,0.0208587646484375,-0.133331298828125,0.0077109164558351,-0.1455318927764892,0.0493465103209018,92.93064880371094,-64.60173034667969,239.37115478515625
1700075789,0.9445037841796876,0.004058837890625,-0.135467529296875,0.0103727458044886,-0.1074564158916473,0.1088351383805275,93.00759887695312,-64.90852355957031,239.22596740722656
1700075789,0.935089111328125,-0.0270843505859375,-0.1348724365234375,0.0496474467217922,-0.0844067558646202,0.1859730631113052,93.22608947753906,-65.09590148925781,239.3191375732422
1700075789,0.936920166015625,-0.0472869873046875,-0.152435302734375,0.0220403205603361,-0.097753457725048,0.2757812440395355,93.2882843017578,-65.0277099609375,239.50680541992188
1700075789,0.9512939453125,-0.0359039306640625,-0.1766815185546875,0.0196874178946018,-0.0891881957650184,0.3587011694908142,93.3967742919922,-65.33389282226562,239.69888305664065
1700075789,0.9496612548828124,-0.004364013671875,-0.18896484375,0.0686437785625457,-0.079077772796154,0.4138030409812927,93.2282257080078,-65.45318603515625,239.5620574951172
1700075789,0.9460906982421876,0.0279541015625,-0.19818115234375,0.1145862340927124,-0.0921413749456405,0.4607995748519897,93.47337341308594,-65.47285461425781,239.0031280517578
1700075789,0.9487457275390624,0.0508270263671875,-0.146514892578125,0.0976464003324508,-0.0751868933439254,0.5375313758850098,93.97442626953124,-65.52259826660156,239.95567321777344
1700075789,0.93719482421875,0.054595947265625,-0.1268157958984375,0.0465142391622066,-0.0508264303207397,0.6345559358596802,94.16488647460938,-65.79887390136719,240.0539093017578
1700075789,0.9343109130859376,0.00872802734375,-0.161468505859375,0.0292574875056743,-0.0413058958947658,0.7309961915016174,94.3319854736328,-65.88551330566406,239.88522338867188
1700075789,0.9615325927734376,-0.0646514892578125,-0.169647216796875,-0.009148490615189,-0.0249410364776849,0.846997082233429,93.90818786621094,-65.90728759765625,240.57717895507807
1700075789,0.97607421875,-0.100189208984375,-0.146209716796875,-0.0558265149593353,0.0085133267566561,0.9981690049171448,94.321044921875,-66.0736083984375,241.072982788086
1700075789,0.9662322998046876,-0.0579986572265625,-0.14825439453125,-0.0677881017327308,0.020985709503293,1.101178526878357,94.2314453125,-66.015625,240.7362365722656
1700075789,0.9712677001953124,0.0039825439453125,-0.14813232421875,0.0046948865056037,0.033279925584793,1.1748868227005005,94.8319091796875,-65.80618286132812,240.3767852783203
1700075789,0.98236083984375,0.0647735595703125,-0.14056396484375,0.119938388466835,0.0391953401267528,1.2396421432495115,94.98670959472656,-66.02565002441406,241.5205993652344
1700075789,1.0103759765625,0.1136016845703125,-0.1295013427734375,0.248229518532753,0.0457714833319187,1.298447608947754,94.86611938476562,-66.29454040527344,241.19821166992188
1700075789,1.0501708984375,0.143463134765625,-0.1256103515625,0.3732870221138,0.0465304851531982,1.3655235767364502,95.1300048828125,-66.15293884277344,241.26336669921875
1700075789,1.0626678466796875,0.163360595703125,-0.14190673828125,0.4343511760234833,0.0266388021409511,1.444807529449463,95.24856567382812,-66.28475952148438,241.9982452392578
1700075789,1.0877532958984375,0.1309661865234375,-0.12127685546875,0.4840225875377655,0.0207313764840364,1.5558639764785769,95.01068115234376,-65.96928405761719,241.4989318847656
1700075789,1.1128387451171875,0.080810546875,-0.128692626953125,0.4866844415664673,-0.0028815402183681,1.668726921081543,95.53742980957033,-66.13522338867188,241.61428833007807
1700075789,1.156341552734375,0.052337646484375,-0.1793975830078125,0.5274768471717834,-0.0718036144971847,1.782696008682251,95.5584716796875,-65.75502014160156,241.9291229248047
1700075789,1.2477874755859375,0.07891845703125,-0.1760406494140625,0.5768992900848389,-0.1362497210502624,1.8782390356063845,95.62644958496094,-65.50962829589844,241.46792602539065
1700075789,1.3348388671875,0.1429595947265625,-0.1269378662109375,0.6204358339309692,-0.1672539710998535,1.9679242372512813,95.7397003173828,-65.67665100097656,241.7817840576172
1700075790,1.3603363037109375,0.210357666015625,-0.0620880126953125,0.6517719030380249,-0.1790578961372375,2.0371885299682617,96.20419311523438,-65.85360717773438,242.417724609375
1700075790,1.38616943359375,0.234405517578125,-0.0008544921875,0.6782264113426208,-0.207469031214714,2.124989748001098,96.25918579101562,-65.61497497558594,242.28298950195312
1700075790,1.43414306640625,0.194244384765625,0.04376220703125,0.6905174255371094,-0.2847438454627991,2.2625949382781982,95.83563232421876,-65.26910400390625,242.14239501953125
1700075790,1.537353515625,0.110198974609375,0.05615234375,0.6369162797927856,-0.3912582993507385,2.3972558975219727,96.35475158691406,-65.09962463378906,242.54840087890625
1700075790,1.6977081298828125,0.0057220458984375,-0.012054443359375,0.5584757924079895,-0.4897204339504242,2.4845776557922363,96.46644592285156,-64.97618103027344,243.0797271728516
1700075790,1.872406005859375,-0.1255340576171875,-0.05047607421875,0.526758074760437,-0.5799930691719055,2.558021306991577,96.65765380859376,-64.51441955566406,243.1690826416016
1700075790,2.0316314697265625,-0.28546142578125,0.025421142578125,0.4945103824138641,-0.7374197244644165,2.711172103881836,96.90072631835938,-64.13504028320312,243.14630126953125
1700075790,2.1181793212890625,-0.4211578369140625,0.135894775390625,0.261209487915039,-0.7824058532714844,2.850541591644287,96.87586975097656,-63.8446044921875,243.2245330810547
1700075790,2.158309936523437,-0.60992431640625,0.1118316650390625,0.1773516088724136,-0.6009804010391235,2.894606351852417,97.20138549804688,-63.84080505371094,243.36924743652344
1700075790,2.0459136962890625,-0.8153228759765625,0.05059814453125,-0.0121836960315704,-0.3435376584529876,2.9694480895996094,96.99539184570312,-63.09844970703125,243.9649810791016
1700075790,1.7360076904296875,-0.80572509765625,-0.3264923095703125,-0.8846997022628784,-0.0741924718022346,3.1640067100524902,97.3190460205078,-62.95567321777344,243.8196716308593
1700075790,1.47393798828125,-0.631439208984375,-0.9521331787109376,-1.940343260765076,0.0202996786683797,3.404119968414306,97.67082214355467,-63.225921630859375,244.12225341796875
1700075790,1.2476654052734375,-0.4818115234375,-1.220977783203125,-2.457573175430298,-0.0330255925655365,3.404724359512329,97.70062255859376,-62.61415100097656,244.1981964111328
1700075790,1.0987701416015625,-0.4771575927734375,-1.2989654541015625,-2.5012552738189697,-0.0985518768429756,3.244935750961304,97.76312255859376,-62.37458801269531,243.9473114013672
1700075790,1.10003662109375,-0.4307403564453125,-1.337005615234375,-2.484673023223877,-0.168767973780632,3.0670270919799805,97.2094268798828,-61.33641052246094,243.9293975830078
1700075790,1.1517333984375,-0.310516357421875,-1.275634765625,-2.43906831741333,-0.2878448367118835,2.8665482997894287,97.4536590576172,-60.757354736328125,243.70187377929688
1700075790,1.0973968505859375,-0.167083740234375,-1.10809326171875,-2.238800048828125,-0.44968381524086,2.619959592819214,96.74639892578124,-59.763763427734375,242.88238525390625
1700075790,0.9879913330078124,-0.0251922607421875,-0.8607940673828125,-2.15559983253479,-0.6801681518554688,2.313692092895508,96.68840026855467,-58.920501708984375,242.16458129882807
1700075790,0.8426971435546875,0.1332855224609375,-0.65277099609375,-2.090681552886963,-0.8257266879081726,2.127859354019165,95.82322692871094,-58.11561584472656,242.1385955810547
1700075790,0.634857177734375,0.4453582763671875,-0.487640380859375,-2.349714756011963,-0.8168261051177979,1.905686378479004,94.76785278320312,-56.74281311035156,241.2073974609375
1700075790,0.5821533203125,0.78472900390625,-0.331695556640625,-2.6983957290649414,-0.9076526761054992,1.262419581413269,94.61509704589844,-55.184844970703125,241.3845977783203
1700075790,0.683349609375,0.7497711181640625,-0.041168212890625,-2.102407693862915,-0.982010006904602,0.5001406073570251,93.74246215820312,-53.866119384765625,240.8416290283203
1700075790,0.683868408203125,0.1832733154296875,0.0795440673828125,-1.5656020641326904,-1.09034526348114,-0.0231503266841173,93.12728881835938,-52.15547180175781,240.7569580078125
1700075790,0.5172882080078125,-0.1303253173828125,-0.101837158203125,-1.554400086402893,-1.3099132776260376,-0.2347017228603363,92.29217529296876,-50.69938659667969,240.03591918945312
1700075790,0.3749542236328125,-0.1834716796875,-0.266845703125,-1.7093712091445925,-1.554862141609192,-0.3142370283603668,91.53538513183594,-49.15702819824219,240.36285400390625
1700075790,0.308135986328125,-0.2366485595703125,-0.3020172119140625,-1.9029664993286133,-1.6968826055526731,-0.4282298982143402,90.65939331054688,-47.297454833984375,240.137939453125
1700075790,0.2824859619140625,-0.308837890625,-0.3795318603515625,-2.1246578693389893,-1.7829258441925049,-0.6800693273544312,89.79586791992188,-46.10429382324219,240.0977478027344
1700075790,0.2879486083984375,-0.359130859375,-0.509429931640625,-2.265915632247925,-1.912472128868103,-0.9933569431304932,88.86381530761719,-44.47837829589844,239.4082946777344
1700075790,0.3259735107421875,-0.371734619140625,-0.583099365234375,-2.32875394821167,-2.1138665676116943,-1.287300705909729,87.92626953125,-43.500579833984375,238.9990234375
1700075790,0.4056854248046875,-0.3601837158203125,-0.5841064453125,-2.406346321105957,-2.320875406265259,-1.5695648193359375,87.3695068359375,-42.629241943359375,238.8267822265625
1700075790,0.48504638671875,-0.3291778564453125,-0.55987548828125,-2.5707030296325684,-2.496936082839966,-1.8192013502120967,86.98724365234375,-41.77032470703125,239.0643005371093
1700075790,0.498260498046875,-0.2393035888671875,-0.56988525390625,-2.830878257751465,-2.626837968826294,-2.038226366043091,86.19749450683594,-41.34819030761719,238.58106994628903
1700075790,0.478179931640625,-0.128173828125,-0.639312744140625,-3.0976579189300537,-2.7569704055786133,-2.2797350883483887,85.58314514160156,-40.68116760253906,238.48489379882807
1700075790,0.5039825439453125,-0.0541534423828125,-0.7015533447265625,-3.312760353088379,-2.9263298511505127,-2.566210985183716,85.76408386230469,-40.15382385253906,237.58062744140625
1700075790,0.582855224609375,-0.029693603515625,-0.7168121337890625,-3.4219796657562256,-3.0744948387146,-2.888982057571411,85.0390625,-40.250579833984375,236.6743011474609
1700075790,0.669189453125,-0.0439453125,-0.7022705078125,-3.4077961444854736,-3.145972728729248,-3.175405740737915,84.90159606933594,-40.06880187988281,236.21617126464844
1700075790,0.7113494873046875,-0.046356201171875,-0.7045440673828125,-3.3289644718170166,-3.1206722259521484,-3.3833940029144287,84.49249267578125,-40.12945556640625,235.1966857910156
1700075790,0.724395751953125,-0.026092529296875,-0.7497100830078125,-3.28779673576355,-3.074490547180176,-3.555093050003052,84.35325622558594,-40.62567138671875,234.7661590576172
1700075790,0.7716827392578125,-0.012176513671875,-0.7769012451171875,-3.3786871433258057,-3.018530368804932,-3.714903354644776,84.42588806152344,-39.985443115234375,235.1409606933593
1700075790,0.8787689208984375,-0.0002288818359375,-0.7814483642578125,-3.539064645767212,-2.8769710063934326,-3.789328336715698,84.49337768554688,-40.32261657714844,233.6807403564453
1700075790,1.0100250244140625,0.0367889404296875,-0.8177642822265625,-3.733654975891113,-2.674072265625,-3.777432680130005,85.29512023925781,-40.72491455078125,233.66197204589844
1700075790,1.161224365234375,0.0832366943359375,-0.9112701416015624,-3.9279026985168457,-2.5035526752471924,-3.813486099243164,85.57069396972656,-41.17839050292969,233.7163543701172
1700075790,1.37310791015625,0.0890045166015625,-1.0377197265625,-4.189652919769287,-2.4596424102783203,-3.933417797088623,86.09510803222656,-41.21855163574219,233.3816070556641
1700075790,1.6087646484375,0.079498291015625,-1.1685791015625,-4.460223197937012,-2.4783432483673096,-4.042239665985107,86.89564514160156,-42.11094665527344,233.1282958984375
1700075790,1.7807159423828125,0.0980987548828125,-1.268280029296875,-4.652876853942871,-2.42251968383789,-4.038368701934815,88.06167602539062,-42.81074523925781,233.23452758789065
1700075790,1.7801971435546875,0.1730499267578125,-1.3226318359375,-4.582032680511475,-2.293691635131836,-3.9967877864837646,88.554443359375,-43.85847473144531,232.03591918945312
1700075790,1.673004150390625,0.240020751953125,-1.2664642333984375,-4.353775024414063,-2.170063734054565,-3.981891870498657,89.30567932128906,-44.881927490234375,231.76821899414065
1700075790,1.6074066162109375,0.294342041015625,-1.1632537841796875,-3.879642248153688,-2.0731518268585205,-3.9538588523864746,90.2580108642578,-46.16853332519531,231.1919403076172
1700075790,1.6007232666015625,0.3687896728515625,-0.98980712890625,-3.106873035430908,-2.007286310195923,-3.887888431549072,91.28421020507812,-47.62580871582031,231.11978149414065
1700075790,1.585235595703125,0.4681396484375,-0.809417724609375,-2.1102824211120605,-1.9522638320922847,-3.8008642196655273,92.47152709960938,-48.651947021484375,231.4903259277344
1700075790,1.56695556640625,0.5929718017578125,-0.7019805908203125,-1.0762169361114502,-1.8442598581314087,-3.7731974124908447,93.42041015625,-49.60179138183594,231.2525787353516
1700075790,1.5784454345703125,0.723052978515625,-0.6768798828125,-0.240791842341423,-1.6271202564239502,-3.869819402694702,94.5106201171875,-50.407257080078125,231.96109008789065
1700075790,1.546722412109375,0.8760223388671875,-0.65484619140625,0.2467642426490783,-1.271687388420105,-3.9799323081970215,94.9990234375,-51.09175109863281,232.3019256591797
1700075790,1.39947509765625,1.0397186279296875,-0.6132659912109375,0.620374321937561,-0.842291533946991,-3.939818859100342,95.6568603515625,-51.79161071777344,233.0341186523437
1700075790,1.1958465576171875,1.093170166015625,-0.6171112060546875,0.920896589756012,-0.5134987235069275,-3.623545169830322,96.40032958984376,-52.06507873535156,233.44053649902344
1700075790,1.0541534423828125,0.998382568359375,-0.6624298095703125,0.7737284302711487,-0.3347934484481811,-3.028563499450684,96.79183959960938,-52.09696960449219,233.37185668945312
1700075790,0.9645843505859376,0.94268798828125,-0.7126007080078125,0.2956763803958893,-0.18572698533535,-2.2588083744049072,96.9172821044922,-51.92018127441406,233.7728576660156
1700075790,0.8813934326171875,0.929962158203125,-0.7131195068359375,-0.2965001165866852,0.0303395297378301,-1.3683782815933228,97.27313232421876,-52.12742614746094,233.8797302246093
1700075790,0.7277679443359375,0.9737701416015624,-0.7127532958984375,-0.7967224717140198,0.3059868216514587,-0.3969201743602752,97.42887878417967,-51.36119079589844,234.0263671875
1700075790,0.5497894287109375,1.089599609375,-0.7135467529296875,-1.0611064434051514,0.5994560122489929,0.4513956904411316,97.58601379394533,-51.82614135742188,234.284912109375
1700075790,0.4927215576171875,1.1894378662109375,-0.678863525390625,-1.057787299156189,0.8511646389961243,0.9708409905433656,97.25558471679688,-51.66900634765625,234.5145263671875
1700075790,0.6196746826171875,1.1732025146484375,-0.606475830078125,-0.940534234046936,1.0599676370620728,1.2118695974349976,97.32325744628906,-51.47718811035156,234.35093688964844
1700075790,0.80377197265625,1.0516510009765625,-0.57379150390625,-0.8579126000404358,1.175870060920715,1.3349603414535522,97.31488037109376,-52.15281677246094,233.81704711914065
1700075790,0.91253662109375,0.9038543701171876,-0.56634521484375,-0.7434735894203186,1.2438254356384275,1.4258756637573242,97.0700225830078,-52.40437316894531,233.82139587402344
1700075790,0.932373046875,0.7592010498046875,-0.50787353515625,-0.4708042740821838,1.307833909988403,1.5142496824264526,97.1422882080078,-52.44090270996094,233.6522674560547
1700075790,0.934906005859375,0.6462554931640625,-0.3899078369140625,-0.2559175193309784,1.0969035625457764,1.4546209573745728,97.35357666015624,-53.25535583496094,234.0069122314453
1700075790,1.1582183837890625,0.408782958984375,0.0036163330078125,-0.4665466845035553,0.6593959927558899,1.2304786443710327,97.18264770507812,-52.72581481933594,233.8843231201172
1700075790,1.45440673828125,-0.129791259765625,0.606475830078125,-0.4628494083881378,0.2055534273386001,0.2908600568771362,97.32763671875,-52.33680725097656,234.84228515625
1700075790,1.8607635498046875,-1.203125,1.1253204345703125,-0.7331589460372925,0.635251522064209,-0.4452701508998871,97.37234497070312,-52.38197326660156,234.83338928222656
1700075790,1.89984130859375,-1.60205078125,0.9088897705078124,-1.9230870008468628,1.4905270338058472,1.0415079593658447,97.24592590332033,-52.48918151855469,234.8251953125
1700075790,1.3158721923828125,-0.4374237060546875,-0.027374267578125,-2.7079761028289795,1.4889768362045288,3.0405638217926025,97.01991271972656,-52.20672607421875,234.6078186035156
1700075790,1.2643280029296875,0.2711029052734375,-0.24078369140625,-2.266083002090454,1.5016350746154783,3.143744707107544,97.5532684326172,-52.22196960449219,235.0536193847656
1700075790,1.26513671875,-0.18267822265625,-0.3826904296875,-1.8272006511688232,1.4404606819152832,2.3077588081359863,97.07676696777344,-52.46554565429688,235.0295562744141
1700075790,0.8869171142578125,-0.0350341796875,-0.8786773681640625,-1.196663737297058,1.453746676445007,1.804357647895813,97.32315063476562,-52.38581848144531,234.54551696777344
1700075790,0.8532562255859375,0.4439239501953125,-0.8711395263671875,-1.1847509145736694,0.694799542427063,1.931726336479187,97.45205688476562,-52.49443054199219,234.7930145263672
1700075790,1.20428466796875,0.8223876953125,-0.062835693359375,-1.9423837661743164,0.3765613734722137,1.8507819175720213,96.9684600830078,-52.74378967285156,234.7186584472656
1700075790,1.40521240234375,0.9107513427734376,0.2499237060546875,-1.2517714500427246,1.0916485786437988,1.1383037567138672,97.41639709472656,-52.97911071777344,234.7485809326172
1700075790,1.181640625,0.5766448974609375,0.164581298828125,0.2478622645139694,1.3940681219100952,0.8145179748535156,97.06417846679688,-52.51206970214844,234.75540161132807
1700075790,0.9111175537109376,0.416046142578125,0.09161376953125,0.6101365685462952,1.1282029151916504,0.7390516996383667,97.21614074707033,-52.86476135253906,235.0588836669922
1700075790,1.0390167236328125,0.3836517333984375,-0.133087158203125,0.5226981043815613,0.9007135629653931,0.7004435658454895,97.56492614746094,-52.588134765625,234.7378387451172
1700075790,1.1705474853515625,0.2087249755859375,-0.2670135498046875,0.4198798239231109,0.7533991932868958,0.5997257828712463,97.4091796875,-52.79634094238281,235.1247711181641
1700075790,1.19708251953125,-0.00433349609375,-0.2897186279296875,0.1170230284333229,0.6260886788368225,0.5422430038452148,97.58389282226562,-53.14056396484375,235.1001892089844
1700075790,1.169219970703125,-0.078460693359375,-0.3188018798828125,-0.2206144034862518,0.4605947732925415,0.6109323501586914,97.6938934326172,-53.02967834472656,235.1465301513672
1700075790,1.0947723388671875,-0.058837890625,-0.2541351318359375,-0.3320421278476715,0.3803702294826507,0.6436293125152588,97.81613159179688,-52.951690673828125,235.4174652099609
1700075790,1.03759765625,-0.0168304443359375,-0.174652099609375,-0.4036454558372497,0.3416276276111603,0.570834755897522,97.85726928710938,-53.54704284667969,235.5315399169922
1700075790,1.02392578125,0.0530853271484375,-0.111297607421875,-0.4161285161972046,0.3761461973190307,0.4736045897006988,97.84445190429688,-53.092864990234375,235.7290496826172
1700075790,1.0228271484375,0.1063995361328125,-0.078369140625,-0.3009345233440399,0.4087345004081726,0.3753752112388611,98.35733032226562,-53.50485229492188,236.0420684814453
1700075790,1.0255279541015625,0.0547637939453125,-0.0833587646484375,-0.112818956375122,0.3921501934528351,0.3379873633384704,98.2844696044922,-53.74504089355469,236.1664123535156
1700075790,0.9970855712890624,-0.0081024169921875,-0.14080810546875,0.0549750998616218,0.3242571651935577,0.3515910506248474,98.7236785888672,-53.92066955566406,236.0538482666016
1700075790,1.0006256103515625,-0.0412445068359375,-0.1920928955078125,0.1402995884418487,0.245465949177742,0.3748340606689453,99.0151824951172,-54.25552368164063,235.85125732421875
1700075790,1.0396270751953125,-0.071990966796875,-0.1699371337890625,0.1674164235591888,0.2346798777580261,0.3916865587234497,99.55563354492188,-54.22496032714844,236.654525756836
1700075790,1.03546142578125,-0.08380126953125,-0.139678955078125,0.169491559267044,0.2516660690307617,0.4123193919658661,99.21951293945312,-54.14956665039063,236.3681640625
1700075790,0.9909515380859376,-0.1119384765625,-0.105621337890625,0.1517477184534073,0.2790151238441467,0.478643000125885,99.33389282226562,-54.58099365234375,236.71731567382807
1700075790,0.94757080078125,-0.12750244140625,-0.127349853515625,0.1471540331840515,0.2829723060131073,0.5464492440223694,99.7325439453125,-54.5440673828125,237.3119506835937
1700075790,0.9411773681640624,-0.1061553955078125,-0.186248779296875,0.1210185661911964,0.2710448205471039,0.5832823514938354,100.15576171875,-54.54197692871094,237.1158142089844
1700075790,0.9796142578125,-0.0951385498046875,-0.186248779296875,0.0732308030128479,0.2897335588932037,0.6144024729728699,100.20799255371094,-55.043487548828125,237.32394409179688
1700075790,0.9915924072265624,-0.1063232421875,-0.163055419921875,0.0608835890889167,0.3110564053058624,0.646744430065155,100.35658264160156,-55.13385009765625,237.6117553710937
1700075790,0.9732666015625,-0.109344482421875,-0.1684112548828125,0.0306010525673627,0.2885801196098327,0.7002997994422913,100.93809509277344,-55.51441955566406,237.76426696777344
1700075790,0.9658050537109376,-0.062774658203125,-0.1768341064453125,0.0238930825144052,0.2573630809783935,0.7375249266624451,101.0154266357422,-55.40119934082031,238.0332489013672
1700075790,0.9808807373046876,-0.009674072265625,-0.16400146484375,0.0668059289455413,0.2596336901187897,0.7343339323997498,101.47186279296876,-55.51803588867188,238.0342559814453
1700075791,1.00640869140625,0.0510406494140625,-0.1448211669921875,0.1222305744886398,0.2747679054737091,0.7112783789634705,101.1712646484375,-55.67935180664063,238.613037109375
1700075791,1.0179290771484375,0.098602294921875,-0.1439666748046875,0.185093954205513,0.2932063043117523,0.6856403946876526,101.5380401611328,-55.61656188964844,238.86129760742188
1700075791,1.0097808837890625,0.0950775146484375,-0.144317626953125,0.26076340675354,0.3117650747299194,0.6761438250541687,101.49520874023438,-55.83590698242188,238.40447998046875
1700075791,0.982818603515625,0.0654144287109375,-0.1482696533203125,0.2275034636259079,0.3243210911750793,0.6840710043907166,101.80378723144533,-55.83502197265625,238.9269561767578
1700075791,0.978240966796875,0.0218353271484375,-0.1694183349609375,0.1544913053512573,0.3264319002628326,0.6934517025947571,101.76419067382812,-55.94105529785156,239.01394653320312
1700075791,0.9708404541015624,-0.0242767333984375,-0.1900177001953125,0.0550605878233909,0.3276865184307098,0.720497727394104,101.84825134277344,-55.55776977539063,239.1674346923828
1700075791,0.9713134765625,-0.049224853515625,-0.2082977294921875,0.0164894945919513,0.3233692646026611,0.7849190831184387,102.0614776611328,-55.79147338867188,239.26031494140625
1700075791,0.9889373779296876,-0.020965576171875,-0.2328033447265625,0.0707649812102317,0.2927024364471435,0.8120537400245667,102.20474243164062,-55.89555358886719,239.2902069091797
1700075791,1.0185089111328125,0.0561065673828125,-0.2104949951171875,0.0936681702733039,0.2665768265724182,0.8007515668869019,102.40338134765624,-55.53871154785156,240.05894470214844
1700075791,1.016632080078125,0.1717681884765625,-0.196044921875,0.1216545328497886,0.2294755280017852,0.7889465689659119,102.08692932128906,-55.41737365722656,239.4194183349609
1700075791,1.0050506591796875,0.2287139892578125,-0.1750640869140625,0.2462459951639175,0.2591386139392853,0.767949104309082,102.34571838378906,-55.33952331542969,239.6099548339844
1700075791,0.998382568359375,0.167327880859375,-0.111328125,0.3026511967182159,0.3073157370090484,0.7973549365997314,102.02305603027344,-55.01568603515625,239.7473907470703
1700075791,0.9777679443359376,0.101043701171875,-0.07855224609375,0.148907721042633,0.2940579950809479,0.8821545243263245,102.18620300292967,-54.81959533691406,239.7830505371093
1700075791,1.000823974609375,0.0262451171875,-0.103668212890625,-0.0550941452383995,0.2937988638877868,0.9792121052742004,102.1962890625,-54.33641052246094,239.63235473632807
1700075791,1.0402069091796875,-0.02178955078125,-0.205474853515625,-0.1597534418106079,0.2641847729682922,1.053879976272583,101.84237670898438,-54.367095947265625,240.07763671875
1700075791,1.0783233642578125,-0.037689208984375,-0.2571258544921875,-0.0795808434486389,0.2254536300897598,1.1092369556427002,102.20245361328124,-54.16093444824219,239.5334930419922
1700075791,1.126922607421875,-0.0006866455078125,-0.2379150390625,0.0122659876942634,0.163385197520256,1.1304810047149658,102.10321044921876,-53.67449951171875,239.6698455810547
1700075791,1.181396484375,0.1448211669921875,-0.2083282470703125,0.1108871027827262,0.1186297088861465,1.132547378540039,102.0634765625,-53.348968505859375,240.00347900390625
1700075791,1.256988525390625,0.230316162109375,-0.1190185546875,0.2631115317344665,0.1292746365070343,1.1128242015838623,101.7775421142578,-52.968994140625,240.4129638671875
1700075791,1.2988433837890625,0.2086944580078125,-0.0579681396484375,0.3414763808250427,0.120733343064785,1.1563916206359863,102.19630432128906,-52.79505920410156,240.5873260498047
1700075791,1.2897186279296875,0.168304443359375,-0.025177001953125,0.2952747941017151,0.1042598262429237,1.2559195756912231,102.01959228515624,-52.39991760253906,240.6275634765625
1700075791,1.27825927734375,0.0879364013671875,-0.0186309814453125,0.194634735584259,0.0899195000529289,1.3524682521820068,101.71971130371094,-51.59989929199219,240.9197692871093
1700075791,1.3051605224609375,-0.01702880859375,-0.0814361572265625,0.148866981267929,0.0138697428628802,1.4282429218292236,101.70237731933594,-51.61155700683594,241.371322631836
1700075791,1.382781982421875,-0.0363006591796875,-0.1761474609375,0.1710303276777267,-0.0770029053092002,1.5046035051345823,102.11082458496094,-51.576904296875,241.1963653564453
1700075791,1.4534454345703125,-0.0494842529296875,-0.1415557861328125,0.2410214096307754,-0.1476264744997024,1.5679235458374023,102.14810180664062,-50.699127197265625,241.3020172119141
1700075791,1.51678466796875,-0.1040191650390625,-0.06707763671875,0.2010140717029571,-0.2260072976350784,1.6321773529052734,102.3893585205078,-50.69999694824219,240.9788818359375
1700075791,1.588836669921875,-0.1625213623046875,-0.0480804443359375,0.1019892171025276,-0.2791229784488678,1.6786242723464966,102.48112487792967,-50.076202392578125,242.0506896972656
1700075791,1.677154541015625,-0.265625,0.01019287109375,0.1245270147919654,-0.2923780679702759,1.720158934593201,102.78079223632812,-49.52952575683594,241.9217529296875
1700075791,1.7661895751953125,-0.40380859375,0.1072998046875,0.2558381557464599,-0.2893556356430053,1.7259891033172607,102.53675842285156,-49.75459289550781,242.7755279541016
1700075791,1.8859100341796875,-0.558868408203125,0.217193603515625,0.3549697995185852,-0.2561787962913513,1.687383055686951,102.72515869140624,-48.61689758300781,242.2684631347656
1700075791,1.929351806640625,-0.705963134765625,0.2680206298828125,0.3486320078372955,-0.2007826417684555,1.6370363235473633,102.88371276855467,-48.55224609375,243.37257385253903
1700075791,1.8472137451171875,-0.8354949951171875,0.23675537109375,0.1678337454795837,-0.0627643167972564,1.6801321506500244,102.96250915527344,-47.70964050292969,243.2718505859375
1700075791,1.64947509765625,-0.8573760986328125,-0.0431976318359375,-0.3780229389667511,0.266399472951889,1.9562971591949463,102.8671417236328,-46.8004150390625,243.33932495117188
1700075791,1.4213104248046875,-0.632049560546875,-0.68896484375,-1.115686297416687,0.7210655212402344,2.696478843688965,103.13127136230467,-46.20733642578125,243.5469665527344
1700075791,1.3352508544921875,-0.1735382080078125,-1.3920440673828125,-2.038784980773926,0.9045652747154236,3.463700532913208,102.84417724609376,-45.2232666015625,243.08433532714844
1700075791,1.47357177734375,0.013946533203125,-1.8327484130859373,-2.8220489025115967,0.7654486894607544,3.5195751190185547,101.9346923828125,-44.36447143554688,242.40875244140625
1700075791,1.7254486083984375,-0.10748291015625,-1.6768798828125,-3.0097880363464355,0.6484003663063049,3.580076217651367,101.513916015625,-43.215423583984375,242.0707550048828
1700075791,1.5107574462890625,0.11297607421875,-1.2112884521484375,-2.5807788372039795,0.6738143563270569,3.856620311737061,100.9707489013672,-43.034454345703125,240.9683074951172
1700075791,1.3387451171875,0.43365478515625,-0.8983001708984375,-2.1855592727661133,0.5703931450843811,3.9920051097869873,99.95675659179688,-41.47145080566406,239.43081665039065
1700075791,1.4433746337890625,0.652984619140625,-0.588348388671875,-1.9449340105056765,0.587499737739563,3.920000553131104,98.68569946289062,-39.86119079589844,237.8360595703125
1700075791,1.493408203125,0.937530517578125,-0.3681488037109375,-1.7454432249069214,0.8693811893463135,3.5952816009521484,97.24909973144533,-38.52072143554688,237.1622314453125
1700075791,1.58056640625,1.160675048828125,-0.3218536376953125,-1.3549108505249023,0.8326112031936646,2.932187557220459,95.92315673828124,-36.57389831542969,237.35574340820312
1700075791,1.76788330078125,1.048492431640625,-0.1769256591796875,-0.538787305355072,0.8111503720283508,2.313667058944702,94.00320434570312,-35.03428649902344,236.29405212402344
1700075791,1.721954345703125,0.6096954345703125,-0.30706787109375,0.0411556921899318,0.8384336829185486,2.093308448791504,92.86993408203124,-33.659637451171875,236.1588592529297
1700075791,1.423248291015625,0.4129638671875,-0.5821380615234375,0.1128059104084968,0.844906747341156,2.0774450302124023,91.47799682617188,-32.74787902832031,235.5500946044922
1700075791,1.2066192626953125,0.32806396484375,-0.7823486328125,-0.1486504673957824,0.72968989610672,2.0018696784973145,89.74635314941406,-31.202621459960938,235.4088897705078
1700075791,1.120635986328125,0.20404052734375,-0.8342132568359375,-0.6038815975189209,0.5465781092643738,1.7736914157867432,88.56504821777344,-29.614410400390625,235.9738311767578
1700075791,1.1229400634765625,0.0980224609375,-0.7933349609375,-1.0372636318206787,0.3958463966846466,1.4499891996383667,87.05708312988281,-28.299484252929688,235.8855438232422
1700075791,1.0818939208984375,0.048492431640625,-0.6737213134765625,-1.4391090869903564,0.2792335152626037,1.163877248764038,85.67698669433594,-27.35365295410156,236.5443115234375
1700075791,0.913421630859375,0.080169677734375,-0.55218505859375,-1.7132279872894287,0.1544652134180069,0.8505337238311768,84.32675170898438,-25.883590698242188,235.99285888671875
1700075791,0.7126922607421875,0.0768890380859375,-0.4508514404296875,-1.8633331060409544,0.0046400255523622,0.4798627495765686,83.1181640625,-25.208892822265625,235.88116455078125
1700075791,0.4951019287109375,0.029541015625,-0.378387451171875,-1.9477249383926392,-0.1190848425030708,0.0904990062117576,81.89582824707031,-24.67866516113281,236.1625518798828
1700075791,0.2716827392578125,-0.0570831298828125,-0.35064697265625,-1.8436646461486816,-0.238752394914627,-0.2404775917530059,80.95516967773438,-24.054672241210938,236.38259887695312
1700075791,0.11090087890625,-0.1335601806640625,-0.28802490234375,-1.6582638025283811,-0.4213959574699402,-0.494249939918518,79.94093322753906,-23.633209228515625,235.76007080078125
1700075791,0.05694580078125,-0.138092041015625,-0.22259521484375,-1.4547975063323977,-0.6050882935523987,-0.6744849681854248,79.09199523925781,-23.471450805664062,234.8505401611328
1700075791,0.0919189453125,-0.0803680419921875,-0.1458587646484375,-1.3420521020889282,-0.7930408716201782,-0.9526547789573668,78.43222045898438,-23.427566528320312,234.41995239257807
1700075791,0.1359405517578125,-0.0008087158203125,-0.1515655517578125,-1.2382287979125977,-0.962588667869568,-1.3431991338729858,78.78993225097656,-23.8050537109375,233.4243621826172
1700075791,0.11273193359375,0.0121307373046875,-0.1763153076171875,-1.1625536680221558,-1.0967427492141724,-1.7627633810043335,78.11117553710938,-23.86480712890625,232.82876586914065
1700075791,0.0122528076171875,-0.031707763671875,-0.174896240234375,-1.1662017107009888,-1.242359280586243,-2.087024450302124,78.14505004882812,-24.30464172363281,232.0887756347656
1700075791,-0.1138763427734375,-0.070770263671875,-0.1439208984375,-1.3131978511810305,-1.3426613807678225,-2.42020034790039,78.17936706542969,-25.005386352539062,230.6534576416016
1700075791,-0.1529083251953125,-0.1362457275390625,-0.16595458984375,-1.496417999267578,-1.411723256111145,-2.742847919464112,78.86564636230469,-25.884811401367188,229.2646026611328
1700075791,-0.1464385986328125,-0.177337646484375,-0.1545257568359375,-1.841470718383789,-1.496188402175903,-3.0066075325012207,79.7119140625,-26.470443725585938,228.6023864746093
1700075791,-0.1398773193359375,-0.14935302734375,-0.1631317138671875,-2.159280776977539,-1.5751785039901731,-3.2095415592193604,80.65921020507812,-27.347885131835938,228.00721740722656
1700075791,-0.133544921875,-0.169952392578125,-0.2201690673828125,-2.4645819664001465,-1.6865447759628296,-3.382162094116211,82.15975952148438,-28.22969055175781,226.7377014160156
1700075791,-0.1094207763671875,-0.1053466796875,-0.2506256103515625,-2.6920316219329834,-1.860400438308716,-3.564116716384888,83.48432922363281,-29.228973388671875,226.50732421875
1700075791,-0.062896728515625,0.098663330078125,-0.2391204833984375,-2.4513955116271973,-1.939505100250244,-3.580876588821411,85.4049072265625,-30.2513427734375,225.8480529785156
1700075791,-0.0457916259765625,0.3065338134765625,-0.18560791015625,-2.024601697921753,-1.929113507270813,-3.580883979797364,87.29917907714844,-31.940750122070312,224.3096466064453
1700075791,-0.0307159423828125,0.535888671875,-0.21636962890625,-1.5109665393829346,-2.007974147796631,-3.506218194961548,89.06759643554688,-33.27226257324219,224.5119781494141
1700075791,0.04345703125,0.85296630859375,-0.44732666015625,-1.02302086353302,-1.985024094581604,-3.3902409076690674,91.4570770263672,-34.811981201171875,223.30447387695312
1700075791,0.088287353515625,1.019287109375,-0.630126953125,-0.526981770992279,-1.920273303985596,-3.1297173500061035,93.47688293457033,-36.879150390625,222.5932464599609
1700075791,0.1265716552734375,1.200531005859375,-0.75982666015625,-0.0325374379754066,-1.643039345741272,-2.745458602905273,95.83113098144533,-38.71250915527344,222.3456878662109
1700075791,0.146697998046875,1.3825225830078125,-0.9859161376953124,0.1165404617786407,-1.3491333723068235,-2.34328556060791,98.45452880859376,-41.06712341308594,222.3684997558593
1700075791,0.1621856689453125,1.605926513671875,-1.179656982421875,-0.0050871702842414,-1.075983643531799,-1.894073724746704,100.82798767089844,-43.28517150878906,221.6327667236328
1700075791,0.23333740234375,1.8383941650390625,-1.2645416259765625,-0.2458009719848632,-0.8134231567382812,-1.2117289304733276,103.48194885253906,-45.64268493652344,222.07765197753903
1700075791,0.2189483642578125,2.1940155029296875,-1.2476043701171875,-0.3659827709197998,-0.5478271245956421,-0.6309566497802734,105.36366271972656,-48.89105224609375,222.3157653808593
1700075791,0.22760009765625,2.49267578125,-1.2030487060546875,-0.4088943004608154,-0.3806551992893219,-0.3036070168018341,108.02294921875,-51.33406066894531,221.8203887939453
1700075791,0.2558135986328125,2.6487579345703125,-1.0869293212890625,-0.5669036507606506,0.493248850107193,-0.3846488893032074,110.5264892578125,-54.1273193359375,222.28575134277344
1700075791,0.25213623046875,2.277801513671875,-1.5969390869140625,0.4370085000991821,0.939497172832489,0.1769319027662277,112.7563934326172,-58.07960510253906,222.3751373291016
1700075791,0.0167236328125,2.06817626953125,-1.8319091796875,0.819655179977417,-0.5324410200119019,0.4669551849365234,114.51040649414062,-61.1671142578125,222.5975646972656
1700075791,1.5419921875,1.352813720703125,-0.2686004638671875,0.0634836331009864,-0.9956430196762084,-0.7307959198951721,115.9214324951172,-63.99089050292969,223.9592742919922
1700075791,2.992660522460937,-0.1758270263671875,0.66510009765625,0.1145699918270111,0.1186699271202087,-0.2937421500682831,117.42726135253906,-67.06712341308594,224.2694396972656
1700075791,1.9157867431640625,-0.21563720703125,0.5692901611328125,0.1130384057760238,0.6035622954368591,1.3350458145141602,118.91374206542967,-69.68609619140625,225.0897216796875
1700075791,0.847503662109375,0.4353790283203125,-0.6915130615234375,0.0525875762104988,-0.2457586377859115,1.369562029838562,119.3674774169922,-72.40554809570312,226.09071350097656
1700075791,1.2089080810546875,0.1424713134765625,-0.7267303466796875,-0.9502608776092528,-0.6632182002067566,1.1096724271774292,120.56631469726562,-74.77346801757812,226.8942413330078
1700075791,1.1259613037109375,0.2742767333984375,-0.5510101318359375,-1.0454773902893066,-0.1444887369871139,0.779308557510376,121.49757385253906,-76.97666931152344,227.95816040039065
1700075791,0.6934051513671875,0.4768829345703125,-0.1953277587890625,-0.1155662760138511,0.1215831562876701,0.4926888048648834,122.24517822265624,-79.08815002441406,228.6717224121093
1700075791,0.7032470703125,0.4844818115234375,0.0348968505859375,0.1940166056156158,0.1291766315698623,0.3413703739643097,122.77369689941406,-80.42805480957031,229.3517303466797
1700075791,0.9456787109375,0.513946533203125,-0.28436279296875,0.2447796612977981,0.1323756128549575,0.1756988614797592,122.54803466796876,-81.58146667480469,229.1007080078125
1700075791,1.0914459228515625,0.42791748046875,-0.2833404541015625,0.109951265156269,0.1297484040260315,0.0613746792078018,123.09645080566406,-81.76536560058594,229.44918823242188
1700075791,1.0681610107421875,0.362030029296875,-0.3061676025390625,-0.2121207863092422,0.1004547029733657,-0.077645793557167,123.3566436767578,-82.00982666015625,229.41554260253903
1700075791,1.115203857421875,0.2274627685546875,-0.4453582763671875,-0.305031806230545,0.0862142443656921,-0.1452946066856384,123.40631103515624,-81.78158569335938,228.99513244628903
1700075791,1.107391357421875,0.0703582763671875,-0.4372711181640625,-0.1207258850336074,0.0529100857675075,-0.077701449394226,123.7047882080078,-81.36509704589844,228.3676605224609
1700075791,1.0444488525390625,0.0077362060546875,-0.4166717529296875,0.0297922510653734,-0.003932689782232,0.0090044140815734,123.68109130859376,-81.37754821777344,228.32467651367188
1700075791,1.042816162109375,0.0347747802734375,-0.37420654296875,0.0098710069432854,-0.0297099594026803,0.0463869385421276,124.22232055664062,-81.66165161132812,229.27261352539065
1700075791,1.02117919921875,0.1478729248046875,-0.37322998046875,-0.0628133192658424,-0.0473898872733116,-0.014926484785974,123.93994140625,-81.857421875,229.8475646972656
1700075791,0.996337890625,0.20501708984375,-0.38885498046875,-0.0701436698436737,-0.0803150758147239,-0.1215464025735855,124.27810668945312,-81.07215881347656,229.9916076660156
1700075791,0.9774627685546876,0.2088165283203125,-0.3857879638671875,0.0188053790479898,-0.1288921982049942,-0.1979985684156417,124.75743103027344,-80.60340881347656,230.68467712402344
1700075791,0.9814300537109376,0.1999359130859375,-0.3543853759765625,0.0937584489583969,-0.1693525463342666,-0.2408930361270904,124.4392547607422,-80.44674682617188,230.2525329589844
1700075791,1.019744873046875,0.1817626953125,-0.3501434326171875,0.1470008939504623,-0.2005786448717117,-0.2475663870573043,124.4477996826172,-80.34480285644531,229.8934631347656
1700075791,1.0487213134765625,0.1793060302734375,-0.3636016845703125,0.2098541557788849,-0.2344138324260711,-0.2680213153362274,124.58737182617188,-80.23658752441406,229.7245483398437
1700075792,1.0701751708984375,0.179046630859375,-0.3665618896484375,0.2650473713874817,-0.2734001278877258,-0.2931908667087555,124.62905883789062,-79.76960754394531,229.94439697265625
1700075792,1.0621795654296875,0.1965789794921875,-0.362884521484375,0.2823027968406677,-0.3056986629962921,-0.3256313502788543,124.89787292480467,-79.36662292480469,229.7313842773437
1700075792,1.02099609375,0.2236785888671875,-0.345611572265625,0.2548735737800598,-0.3252958059310913,-0.3791649043560028,124.43939208984376,-79.05140686035156,229.5445251464844
1700075792,0.9843597412109376,0.228485107421875,-0.3141021728515625,0.2153735607862472,-0.3153867125511169,-0.4411987066268921,124.68881225585938,-78.81948852539062,229.5845489501953
1700075792,0.967132568359375,0.1996002197265625,-0.302459716796875,0.2019637525081634,-0.2796723842620849,-0.4727515578269958,124.73483276367188,-78.63456726074219,229.68231201171875
1700075792,0.94976806640625,0.1622161865234375,-0.3061676025390625,0.2045371681451797,-0.2447410374879837,-0.4574309289455414,124.60488891601562,-78.48713684082031,228.8868560791016
1700075792,0.9287872314453124,0.137420654296875,-0.3174591064453125,0.1866218149662017,-0.2408411055803299,-0.4470930695533752,124.01521301269533,-78.22689819335938,229.07862854003903
1700075792,0.90618896484375,0.117034912109375,-0.340423583984375,0.2301482558250427,-0.2286614030599594,-0.4781253039836883,124.45480346679688,-77.31365966796875,228.9856109619141
1700075792,0.8930816650390625,0.0999755859375,-0.3553314208984375,0.3019835650920868,-0.230853721499443,-0.5255194306373596,124.1483154296875,-77.07754516601562,228.8052215576172
1700075792,0.90814208984375,0.1016998291015625,-0.3319244384765625,0.438888669013977,-0.2434688508510589,-0.5420249104499817,124.47203063964844,-77.13984680175781,228.8119506835937
1700075792,0.9220428466796876,0.1402740478515625,-0.2974853515625,0.5357611775398254,-0.2825502157211303,-0.5116822123527527,124.22811889648438,-76.99534606933594,228.56103515625
1700075792,0.96142578125,0.1764984130859375,-0.251556396484375,0.5095476508140564,-0.2799133956432342,-0.5113687515258789,124.0559539794922,-76.85246276855469,228.6383056640625
1700075792,1.02117919921875,0.1665191650390625,-0.2416839599609375,0.5091474056243896,-0.2413843870162964,-0.4789524674415588,123.93264770507812,-76.55703735351562,228.612060546875
1700075792,0.9996795654296876,0.1912994384765625,-0.2575225830078125,0.5166378021240234,-0.2420826703310012,-0.4689054191112518,124.21942138671876,-76.71327209472656,228.13644409179688
1700075792,0.97509765625,0.20294189453125,-0.2589263916015625,0.5299978256225586,-0.2678926885128021,-0.4960566163063049,124.34634399414062,-76.41024780273438,228.27786254882807
1700075792,0.982086181640625,0.1786041259765625,-0.22222900390625,0.5689207315444946,-0.2396828979253769,-0.4903577268123626,124.46612548828124,-76.28080749511719,229.18995666503903
1700075792,0.994537353515625,0.1134490966796875,-0.18719482421875,0.5640628337860107,-0.2207145392894745,-0.3784253299236297,124.21231079101562,-76.23463439941406,228.90435791015625
1700075792,1.0196533203125,0.0090484619140625,-0.199005126953125,0.5600175261497498,-0.2036532610654831,-0.2294401079416275,124.12796020507812,-76.12635803222656,228.6768798828125
1700075792,1.039642333984375,-0.10723876953125,-0.256256103515625,0.5115509033203125,-0.2277298271656036,-0.1193543598055839,124.48175048828124,-76.03352355957031,229.5188903808593
1700075792,1.02655029296875,-0.2010345458984375,-0.3035888671875,0.4173567593097687,-0.268378734588623,-0.0331861823797225,124.08995056152344,-76.00236511230469,229.4281768798828
1700075792,1.0338897705078125,-0.25689697265625,-0.2906951904296875,0.3803721070289612,-0.2713838219642639,0.0967331975698471,124.58097839355467,-76.36732482910156,229.16978454589844
1700075792,1.021881103515625,-0.2009429931640625,-0.2898101806640625,0.3241405189037323,-0.2925437092781067,0.2306598424911499,124.44525146484376,-75.98733520507812,228.7825622558593
1700075792,1.0412139892578125,-0.0641021728515625,-0.233184814453125,0.3674672245979309,-0.2752781808376312,0.2983385026454925,124.38186645507812,-75.81192016601562,229.4391326904297
1700075792,1.072265625,0.0418548583984375,-0.171783447265625,0.4642145335674286,-0.2516618072986603,0.3156631588935852,124.4626007080078,-76.140380859375,229.0849609375
1700075792,1.100250244140625,0.10601806640625,-0.1415557861328125,0.521609365940094,-0.2471368163824081,0.3291784226894378,124.44168090820312,-76.25621032714844,229.59942626953125
1700075792,1.146331787109375,0.0686187744140625,-0.1153106689453125,0.5673052668571472,-0.2283018827438354,0.4043671786785126,124.66545104980467,-76.36026000976562,229.75962829589844
1700075792,1.149444580078125,0.003143310546875,-0.1567230224609375,0.5606420040130615,-0.2357075959444046,0.5198231935501099,125.15403747558594,-76.19081115722656,229.9217224121093
1700075792,1.212188720703125,-0.0529937744140625,-0.1674957275390625,0.4842558801174164,-0.2147439867258072,0.6109797358512878,124.8240966796875,-76.36949157714844,230.0131683349609
1700075792,1.283599853515625,-0.1542816162109375,-0.1378326416015625,0.4813157618045807,-0.1388825178146362,0.6857059001922607,125.07662963867188,-76.24354553222656,230.282470703125
1700075792,1.284576416015625,-0.2797698974609375,-0.14532470703125,0.4594615995883941,-0.1424876451492309,0.8137227296829224,125.22206115722656,-76.427490234375,230.65377807617188
1700075792,1.3023529052734375,-0.363433837890625,-0.1004638671875,0.3041388392448425,-0.1456466764211654,1.0179626941680908,124.98796081542967,-76.66757202148438,230.2556915283203
1700075792,1.29541015625,-0.3942413330078125,-0.0802764892578125,0.151056095957756,-0.1428117454051971,1.2078663110733032,125.14541625976562,-76.60826110839844,230.97866821289065
1700075792,1.316497802734375,-0.4499664306640625,-0.051727294921875,-0.019414709880948,-0.1658680588006973,1.3777387142181396,125.07640075683594,-77.21014404296875,230.9630126953125
1700075792,1.4036102294921875,-0.5236663818359375,0.0556793212890625,-0.1448863446712494,-0.1619921028614044,1.5438292026519775,125.13153076171876,-77.31562805175781,230.8700561523437
1700075792,1.4678497314453125,-0.5919342041015625,0.1779632568359375,-0.1811751127243042,-0.1200747415423393,1.6875154972076416,125.11012268066406,-77.1053466796875,230.79367065429688
1700075792,1.50909423828125,-0.6616668701171875,0.2562713623046875,-0.1763944774866104,-0.0495406538248062,1.7544279098510742,125.3704833984375,-77.3853759765625,231.46304321289065
1700075792,1.5334014892578125,-0.7315673828125,0.246856689453125,-0.3863828480243683,0.3462689816951751,1.9099016189575195,125.4394073486328,-77.37374877929688,231.48944091796875
1700075792,1.486053466796875,-0.62554931640625,-0.134246826171875,-0.9435481429100036,1.0034343004226685,2.421056270599365,125.6118621826172,-77.19351196289062,232.0284576416016
1700075792,1.363494873046875,-0.2681732177734375,-0.6847991943359375,-1.567351222038269,1.5224705934524536,3.08848524093628,125.4180145263672,-77.61871337890625,231.84426879882807
1700075792,1.4250640869140625,-0.01800537109375,-1.135589599609375,-1.951480865478516,1.4563478231430054,3.612193107604981,125.4530029296875,-77.24897766113281,232.224365234375
1700075792,1.766143798828125,0.168060302734375,-1.58367919921875,-1.943084716796875,1.274823784828186,3.9374518394470215,125.35452270507812,-77.23876953125,231.89393615722656
1700075792,1.9524993896484373,0.3797760009765625,-1.7240142822265625,-1.153432846069336,1.065705418586731,4.353058815002441,125.36695861816406,-77.13107299804688,232.38626098632807
1700075792,1.865447998046875,0.7269134521484375,-1.225555419921875,-0.4037959277629852,0.750453770160675,4.931901931762695,125.5290069580078,-76.85736083984375,231.8159027099609
1700075792,1.8273162841796875,1.099212646484375,-0.7884674072265625,-0.3464477062225342,0.7328659892082214,5.085326194763184,125.53155517578124,-76.66921997070312,231.6383514404297
1700075792,1.920928955078125,1.2626800537109375,-0.8728790283203125,-0.7088530659675598,1.0102914571762085,4.564042568206787,125.31385803222656,-76.17256164550781,231.9978790283203
1700075792,2.1174468994140625,1.4228515625,-0.83441162109375,-0.6661998629570007,1.390799880027771,3.621870994567871,125.4796142578125,-75.69358825683594,232.0945739746093
1700075792,2.27734375,1.3884124755859375,-0.443084716796875,0.5348713994026184,1.7553235292434692,2.832117319107056,125.17512512207033,-75.77792358398438,231.7765045166016
1700075792,2.0933990478515625,0.872406005859375,-0.3244476318359375,1.1282775402069092,1.8347160816192627,2.4797723293304443,125.923828125,-75.4102783203125,232.2201690673828
1700075792,1.7880859375,0.63232421875,-0.536346435546875,1.0493028163909912,1.594918131828308,2.3643229007720947,125.43684387207033,-74.81234741210938,232.5341339111328
1700075792,1.633575439453125,0.492279052734375,-0.6333465576171875,0.8154476881027222,1.1737158298492432,2.15505313873291,125.69882202148438,-74.32411193847656,232.35256958007807
1700075792,1.574005126953125,0.2793731689453125,-0.55804443359375,0.4821684956550598,0.7439364790916443,1.798009991645813,125.71028137207033,-73.64289855957031,232.2733917236328
1700075792,1.423004150390625,0.0705413818359375,-0.4568939208984375,0.1856414973735809,0.4991245865821838,1.419686198234558,125.47671508789062,-72.99234008789062,232.21368408203125
1700075792,1.0925445556640625,-0.1314544677734375,-0.28985595703125,-0.0268587786704301,0.4654297530651092,1.1133131980895996,125.72523498535156,-72.55088806152344,232.3701934814453
1700075792,0.638763427734375,-0.2850189208984375,-0.1334075927734375,-0.278357058763504,0.3778460919857025,0.813896894454956,125.54415893554688,-71.99826049804688,232.67950439453125
1700075792,0.209320068359375,-0.4314117431640625,-0.0470733642578125,-0.4246468842029571,0.1709483116865158,0.4145641624927521,125.4363250732422,-71.01077270507812,232.80239868164065
1700075792,-0.0798797607421875,-0.598724365234375,0.0062255859375,-0.5603200197219849,-0.0190003234893083,0.1071152687072753,125.14051818847656,-69.87370300292969,232.146484375
1700075792,-0.2100372314453125,-0.678924560546875,0.0329132080078125,-0.6157654523849487,-0.1705126166343689,-0.1433694064617157,125.2743682861328,-69.04278564453125,232.02169799804688
1700075792,-0.12847900390625,-0.6478118896484375,0.0633544921875,-0.6888993382453918,-0.3625726103782654,-0.4858205020427704,125.32260131835938,-67.97947692871094,232.37586975097656
1700075792,0.00787353515625,-0.4696807861328125,0.0318756103515625,-0.9155545830726624,-0.5108707547187805,-0.9265390634536744,124.87452697753906,-66.88029479980469,233.1032257080078
1700075792,0.0007781982421875,-0.31317138671875,0.028900146484375,-1.035142421722412,-0.5949323177337646,-1.3663076162338257,124.84881591796876,-65.70433044433594,232.361328125
1700075792,-0.088104248046875,-0.3143157958984375,0.0783538818359375,-1.1183550357818604,-0.6660371422767639,-1.7306818962097168,124.49386596679688,-64.62123107910156,232.61785888671875
1700075792,-0.178375244140625,-0.357818603515625,0.051025390625,-1.4052236080169678,-0.7506497502326965,-2.008410692214966,124.43264770507812,-63.21452331542969,233.44845581054688
1700075792,-0.218994140625,-0.37652587890625,-0.0175933837890625,-1.790014386177063,-0.828983724117279,-2.276123046875,124.23060607910156,-61.83195495605469,233.55682373046875
1700075792,-0.2459716796875,-0.3456878662109375,-0.0861968994140625,-2.152918100357056,-0.9382748007774352,-2.581055164337158,123.82292175292967,-60.666107177734375,234.200424194336
1700075792,-0.2128753662109375,-0.29388427734375,-0.089569091796875,-2.441981315612793,-1.0695422887802124,-2.8840298652648926,123.25997924804688,-59.23117065429688,234.5130310058593
1700075792,-0.1473388671875,-0.212646484375,-0.095184326171875,-2.4561684131622314,-1.2549734115600586,-3.024834394454956,122.9935302734375,-57.66705322265625,234.92483520507807
1700075792,-0.17059326171875,-0.0395965576171875,-0.08013916015625,-2.0431787967681885,-1.299575686454773,-3.1247658729553223,122.42373657226562,-56.21806335449219,236.11993408203125
1700075792,-0.1020965576171875,0.0650482177734375,-0.0478515625,-1.4588572978973389,-1.4383524656295776,-3.206939220428467,122.0146942138672,-55.037628173828125,236.3616180419922
1700075792,-0.090484619140625,0.25408935546875,-0.1288909912109375,-0.4567592740058899,-1.5218740701675415,-3.3455679416656494,121.44842529296876,-53.93405151367188,236.8692321777344
1700075792,-0.0782470703125,0.592864990234375,-0.2683258056640625,0.208793431520462,-1.3908454179763794,-3.4965062141418457,120.80233764648438,-52.31605529785156,237.9535675048828
1700075792,-0.02679443359375,0.83428955078125,-0.3181915283203125,0.7726866006851196,-1.2108615636825562,-3.502375841140747,120.42015075683594,-51.68170166015625,238.605209350586
1700075792,0.07049560546875,0.9868927001953124,-0.443084716796875,1.0930452346801758,-1.0807852745056152,-3.2569828033447266,119.2340087890625,-50.262786865234375,239.0209045410156
1700075792,0.08837890625,1.1473236083984375,-0.655303955078125,0.8809800744056702,-0.8864219784736633,-2.863798379898072,118.20126342773438,-49.31163024902344,238.4821319580078
1700075792,0.1147308349609375,1.2978057861328125,-0.8526153564453125,0.508450984954834,-0.7258051633834839,-2.302666425704956,116.8660888671875,-48.34732055664063,238.71597290039065
1700075792,0.216766357421875,1.4900360107421875,-0.9033050537109376,0.4635764360427856,-0.5763727426528931,-1.6918548345565796,116.1138916015625,-48.03872680664063,237.7105407714844
1700075792,0.315582275390625,1.6847076416015625,-0.91015625,0.2217957824468612,-0.3980027735233307,-1.0734413862228394,115.02781677246094,-47.74191284179688,237.9204864501953
1700075792,0.3223419189453125,1.936798095703125,-1.0341033935546875,-0.2279162555932998,-0.3058896064758301,-0.6052390336990356,114.58541870117188,-47.7606201171875,237.5053253173828
1700075792,0.3366851806640625,2.0749969482421875,-0.9938201904296876,-0.362937718629837,-0.2630199193954468,-0.4055637419223785,113.88951110839844,-47.60333251953125,237.3585662841797
1700075792,0.359649658203125,1.89776611328125,-0.7858428955078125,-0.4095020294189453,-0.0656053721904754,-0.3965153992176056,112.76092529296876,-47.22183227539063,236.80992126464844
1700075792,0.32244873046875,1.4321136474609375,-0.7953643798828125,-0.7747122049331665,0.6781166791915894,-0.7040218114852905,112.1653289794922,-47.98794555664063,237.27243041992188
1700075792,0.22186279296875,0.9302978515625,-1.5024566650390625,-0.1909832656383514,-0.2469493299722671,-0.1360896676778793,112.13966369628906,-47.88450622558594,236.6087951660156
1700075792,0.6506500244140625,1.1927337646484375,-0.5391845703125,-0.0032120386604219,-0.6157723665237427,-0.7347339391708374,112.24356079101562,-48.59576416015625,236.643783569336
1700075792,2.0435943603515625,0.4386749267578125,-0.036163330078125,0.0618316754698753,-0.4288477599620819,-0.9803647398948668,111.72372436523438,-49.50251770019531,236.2925262451172
1700075792,1.939056396484375,0.1360015869140625,0.180389404296875,0.0504205636680126,0.0706030651926994,0.3493531942367553,111.88954162597656,-50.2547607421875,236.8613739013672
1700075792,1.298858642578125,0.6635894775390625,0.106201171875,-0.2819917500019073,-0.3074656724929809,0.7029858231544495,111.87448120117188,-51.62065124511719,237.0429534912109
1700075792,1.73675537109375,0.45367431640625,-0.064666748046875,-1.0142955780029297,-0.3044379353523254,0.6055362224578857,111.9044189453125,-52.30224609375,237.93096923828125
1700075792,1.6764373779296875,0.39361572265625,-0.19677734375,-0.876807451248169,0.0720118731260299,0.3329305648803711,112.14730834960938,-53.72334289550781,238.4813995361328
1700075792,0.8826904296875,0.155914306640625,-0.438201904296875,-0.3300676643848419,0.0764276608824729,0.1184052079916,112.7296142578125,-54.938751220703125,239.0558624267578
1700075792,0.745513916015625,0.04449462890625,-0.5280303955078125,-0.0048623993061482,0.0039148465730249,0.2907516658306122,113.368408203125,-56.68917846679688,239.47271728515625
1700075792,0.8502197265625,0.1654052734375,-0.392181396484375,0.0242803059518337,0.1176307573914527,0.3259831666946411,113.90928649902344,-57.91278076171875,240.1929168701172
1700075792,0.8707427978515625,0.292144775390625,-0.160247802734375,-0.1024504750967025,0.2610475718975067,0.1609793007373809,114.23396301269533,-59.5543212890625,241.1943206787109
1700075792,0.8770904541015625,0.476104736328125,-0.157958984375,-0.1046584993600845,0.2482364326715469,-0.0978874117136001,115.09129333496094,-61.81414794921875,242.6762084960937
1700075792,0.9868011474609376,0.4853363037109375,-0.372802734375,-0.0911589413881301,0.182161808013916,-0.2472425401210785,115.8056640625,-63.97102355957031,243.76617431640625
1700075792,1.04010009765625,0.3534698486328125,-0.4709930419921875,-0.0581341423094272,0.1035538241267204,-0.2633695900440216,116.28526306152344,-66.13772583007812,245.2983245849609
1700075792,0.9467926025390624,0.1990509033203125,-0.485931396484375,-0.0412600897252559,0.0162114612758159,-0.2026569694280624,116.81884765625,-68.68435668945312,246.3112335205078
1700075792,0.9640960693359376,0.097869873046875,-0.4507598876953125,-0.0829374939203262,-0.0330900438129901,-0.1112511605024337,117.10977172851562,-71.35166931152344,247.6832427978516
1700075792,1.0546112060546875,0.0544586181640625,-0.42962646484375,-0.092606097459793,-0.0633661895990371,-0.039780169725418,117.55368041992188,-74.34445190429688,249.402587890625
1700075792,1.046783447265625,0.0567626953125,-0.4340057373046875,-0.0175419747829437,-0.1067592054605484,0.0078011979348957,117.60606384277344,-76.49514770507812,251.6490936279297
1700075792,0.9757843017578124,0.127960205078125,-0.4236297607421875,0.0551085248589515,-0.1656089425086975,0.0033883398864418,117.50968933105467,-80.14680480957031,253.20350646972656
1700075793,0.9711456298828124,0.2171173095703125,-0.3863372802734375,0.092817023396492,-0.2019048929214477,-0.0672211125493049,116.86875915527344,-82.7716064453125,255.16891479492188
1700075793,0.996490478515625,0.261016845703125,-0.3667144775390625,0.1302221864461898,-0.2338526993989944,-0.1510449051856994,117.12301635742188,-85.65414428710938,257.56396484375
1700075793,0.979644775390625,0.269073486328125,-0.3672027587890625,0.1372910141944885,-0.2620590329170227,-0.2035163789987564,115.95191955566406,-88.5167236328125,259.5537109375
1700075793,0.9429168701171876,0.2765960693359375,-0.364532470703125,0.0887328013777732,-0.2865103185176849,-0.2484745234251022,114.72395324707033,-91.02084350585938,261.15869140625
1700075793,0.9556884765625,0.286865234375,-0.3538665771484375,0.0353167131543159,-0.3018469512462616,-0.3077897727489471,113.77584838867188,-93.98014831542967,263.2039794921875
1700075793,1.001068115234375,0.2772979736328125,-0.3484344482421875,0.0322839021682739,-0.3139973282814026,-0.3754236996173858,112.32066345214844,-96.2237548828125,265.695068359375
1700075793,1.049530029296875,0.223907470703125,-0.339813232421875,0.0699708312749862,-0.3178461492061615,-0.3960943520069122,110.7888641357422,-98.85357666015624,268.05938720703125
1700075793,1.055389404296875,0.167327880859375,-0.3358154296875,0.1205866038799285,-0.3253160417079925,-0.3614615201950073,108.8260498046875,-101.32926940917967,270.37677001953125
1700075793,1.03778076171875,0.13153076171875,-0.334136962890625,0.1661080121994018,-0.3363173007965088,-0.3157361149787903,107.26507568359376,-103.16061401367188,272.1137084960937
1700075793,0.9847412109375,0.1146392822265625,-0.343475341796875,0.2121580690145492,-0.337829440832138,-0.2970801591873169,105.26246643066406,-104.86349487304688,274.574951171875
1700075793,0.93511962890625,0.1215362548828125,-0.349700927734375,0.2084141969680786,-0.3635198771953583,-0.3001920580863952,102.5844268798828,-107.03962707519533,276.3502197265625
1700075793,0.9327850341796876,0.1618499755859375,-0.3307952880859375,0.1649237126111984,-0.3765051960945129,-0.3199316561222076,100.5052490234375,-108.12136840820312,278.0653686523437
1700075793,1.0018157958984375,0.1820068359375,-0.3096923828125,0.1177239716053009,-0.3722763657569885,-0.3430260717868805,98.1874542236328,-109.3974609375,279.51837158203125
1700075793,1.0852813720703125,0.169525146484375,-0.3118133544921875,0.1493793725967407,-0.3538424968719482,-0.3383394479751587,95.5533447265625,-110.80384826660156,280.20391845703125
1700075793,1.124481201171875,0.159698486328125,-0.32891845703125,0.2788785099983215,-0.380722314119339,-0.3190767765045166,93.4751434326172,-112.34678649902344,281.0965881347656
1700075793,1.11883544921875,0.1616973876953125,-0.3181610107421875,0.3904010355472564,-0.3910963833332062,-0.3279560208320617,91.30548095703124,-113.47613525390624,280.85211181640625
1700075793,1.0812530517578125,0.170654296875,-0.2948150634765625,0.4699999988079071,-0.3200238049030304,-0.3731421530246734,88.63563537597656,-114.5912628173828,280.98797607421875
1700075793,1.0251922607421875,0.1730194091796875,-0.2374114990234375,0.5164574980735779,-0.2689449191093445,-0.3865218758583069,86.62786865234375,-115.40643310546876,280.7696838378906
1700075793,0.997802734375,0.15228271484375,-0.2153472900390625,0.5255333185195923,-0.2601335644721985,-0.3609320819377899,84.94520568847656,-115.80735778808594,279.6031494140625
1700075793,1.0287017822265625,0.076873779296875,-0.24432373046875,0.561425507068634,-0.2673201262950897,-0.2970439195632934,83.30418395996094,-115.98826599121094,279.64031982421875
1700075793,1.068115234375,0.00067138671875,-0.3007965087890625,0.6498392820358276,-0.2893407344818115,-0.2275905460119247,82.57693481445312,-115.88487243652344,279.6849365234375
1700075793,1.0792083740234375,-0.0139923095703125,-0.316558837890625,0.7645730376243591,-0.3615731298923492,-0.186679869890213,82.03143310546875,-115.72940063476562,280.3258972167969
1700075793,1.0814971923828125,0.05126953125,-0.2743377685546875,0.7884916663169861,-0.413703441619873,-0.1578436940908432,81.80668640136719,-115.0192413330078,280.21697998046875
1700075793,1.06524658203125,0.17462158203125,-0.206817626953125,0.7100951671600342,-0.4433633089065552,-0.1279995143413543,81.92100524902344,-114.6278839111328,280.57635498046875
1700075793,1.054595947265625,0.2328033447265625,-0.153167724609375,0.6309811472892761,-0.4482526183128357,-0.100130595266819,82.41943359375,-114.05593872070312,280.63043212890625
1700075793,1.119049072265625,0.1377716064453125,-0.135040283203125,0.6209858059883118,-0.4499714374542236,-0.0253791268914937,82.66241455078125,-112.8648681640625,280.2424011230469
1700075793,1.1974639892578125,-0.0128631591796875,-0.119354248046875,0.6185747981071472,-0.4426448047161102,0.1099174469709396,83.45989990234375,-112.2278289794922,280.6646423339844
1700075793,1.2402801513671875,-0.1176605224609375,-0.1142578125,0.5434970855712891,-0.4423425197601318,0.2681097388267517,83.72898864746094,-111.75601196289062,279.78594970703125
1700075793,1.240966796875,-0.153228759765625,-0.1302490234375,0.2815712392330169,-0.4418652951717376,0.3972765207290649,84.40872192382812,-111.43324279785156,280.17108154296875
1700075793,1.2370758056640625,-0.1666717529296875,-0.16796875,0.087651289999485,-0.4413774013519287,0.5002138018608093,84.12202453613281,-111.15544128417967,280.8595886230469
1700075793,1.198394775390625,-0.1810150146484375,-0.171600341796875,0.0719540864229202,-0.4439209997653961,0.577786922454834,84.16572570800781,-110.97494506835938,280.1890869140625
1700075793,1.222747802734375,-0.2236785888671875,-0.103912353515625,0.0772974491119384,-0.4148248732089996,0.712427020072937,83.59709167480469,-110.65805053710938,280.1221923828125
1700075793,1.26519775390625,-0.255096435546875,-0.036895751953125,0.1610405445098877,-0.3629238605499267,0.846028745174408,84.37437438964844,-109.55001831054688,280.262451171875
1700075793,1.320343017578125,-0.332916259765625,0.02178955078125,0.1580104082822799,-0.3577165901660919,1.002718448638916,85.42172241210938,-108.0462646484375,281.0741882324219
1700075793,1.4215240478515625,-0.4257659912109375,0.1129150390625,-0.0003869573120027,-0.331895649433136,1.172450304031372,86.54884338378906,-106.78572082519533,281.9398193359375
1700075793,1.5214996337890625,-0.5389251708984375,0.145751953125,-0.1886793673038482,-0.2741681635379791,1.3005746603012085,87.12934875488281,-105.34666442871094,281.4130859375
1700075793,1.58416748046875,-0.66864013671875,0.1434173583984375,-0.2741260826587677,-0.2670652568340301,1.353369951248169,87.90242004394531,-104.32330322265624,281.8253173828125
1700075793,1.563629150390625,-0.7828826904296875,0.187713623046875,-0.3334165811538696,-0.0710896253585815,1.4256612062454224,88.9176025390625,-103.63287353515624,281.887939453125
1700075793,1.4804840087890625,-0.774261474609375,-0.0014801025390625,-0.8221460580825806,0.5135897994041443,1.7475894689559937,89.24880981445312,-102.71005249023438,282.0852966308594
1700075793,1.3485107421875,-0.49444580078125,-0.6051483154296875,-1.7360446453094482,1.2496830224990845,2.5751256942749023,89.54658508300781,-101.94001770019533,282.796630859375
1700075793,1.3125152587890625,-0.1498870849609375,-1.1941070556640625,-2.2404539585113525,1.511233925819397,3.524355888366699,90.07820129394533,-101.58831787109376,281.9400634765625
1700075793,1.59796142578125,0.009124755859375,-1.533233642578125,-1.6715812683105469,1.218929648399353,4.051029205322266,90.11993408203124,-101.34619140625,281.3036499023437
1700075793,1.8714599609375,0.1901397705078125,-1.765899658203125,-0.9770288467407228,1.130534291267395,4.431042671203613,90.56941223144533,-101.21456909179688,280.99786376953125
1700075793,1.7696075439453125,0.5770263671875,-1.6064605712890625,-0.4205288589000702,1.0801483392715454,5.0809831619262695,90.4349365234375,-101.05014038085938,280.83721923828125
1700075793,1.6222686767578125,1.0704345703125,-1.1571807861328125,-0.6517742872238159,0.8494359850883484,5.6388750076293945,91.01042175292967,-100.65827941894533,280.5831298828125
1700075793,1.7592926025390625,1.4217376708984375,-1.011749267578125,-1.2239261865615845,0.7567476034164429,5.376784801483154,91.06895446777344,-100.64828491210938,280.5946044921875
1700075793,1.9967041015625,1.5775146484375,-1.0452880859375,-1.6555343866348269,1.078784465789795,4.27029275894165,91.67266845703124,-99.99862670898438,280.6604919433594
1700075793,2.288665771484375,1.6331787109375,-0.63433837890625,-0.4877864420413971,1.7138820886611938,3.146907329559326,91.3209228515625,-99.77008056640624,280.5115966796875
1700075793,2.173202514648437,1.257659912109375,-0.0467376708984375,0.7503083348274231,2.078057289123535,2.5913407802581787,91.5593719482422,-99.7049560546875,280.7730407714844
1700075793,1.773193359375,0.84674072265625,-0.17510986328125,0.9860990643501282,2.000337600708008,2.2956290245056152,91.5732879638672,-99.70703125,281.07940673828125
1700075793,1.5692901611328125,0.633148193359375,-0.45501708984375,0.6994773745536804,1.635939359664917,1.9996262788772583,91.94955444335938,-99.5635223388672,280.4945373535156
1700075793,1.5381927490234375,0.3784027099609375,-0.4934234619140625,0.1933239251375198,1.198696255683899,1.6009867191314695,92.05035400390624,-99.368896484375,280.1438293457031
1700075793,1.4203643798828125,0.0966796875,-0.46319580078125,-0.1982174813747406,0.8813713192939758,1.2426559925079346,92.22209167480467,-99.37220764160156,279.7021484375
1700075793,1.125732421875,-0.155487060546875,-0.347930908203125,-0.4015471637248993,0.7419865131378174,0.985586404800415,92.08180236816406,-98.8348388671875,279.85906982421875
1700075793,0.72625732421875,-0.3690948486328125,-0.2025146484375,-0.4014874994754791,0.6380691528320312,0.708466649055481,92.63346862792967,-98.82302856445312,279.8761901855469
1700075793,0.35650634765625,-0.5632171630859375,-0.0356292724609375,-0.3632676899433136,0.5553931593894958,0.3907989263534546,92.35256958007812,-98.52871704101562,279.2170104980469
1700075793,0.0275726318359375,-0.7040252685546875,0.020721435546875,-0.4857467412948608,0.4535155594348907,0.0730406567454338,92.7437744140625,-98.4757080078125,279.629150390625
1700075793,-0.1978607177734375,-0.7580413818359375,-0.0634765625,-0.6046561002731323,0.3568007349967956,-0.2164987474679947,92.6527862548828,-97.97064208984376,279.5401306152344
1700075793,-0.20770263671875,-0.7048187255859375,-0.0740966796875,-0.7860788702964783,0.2330122143030166,-0.635772168636322,93.40408325195312,-97.76673889160156,279.371337890625
1700075793,-0.0263519287109375,-0.577362060546875,0.0252532958984375,-1.1052435636520386,0.0585527904331684,-1.078023076057434,93.1824188232422,-97.98918151855467,278.72137451171875
1700075793,0.104888916015625,-0.46588134765625,0.1085205078125,-1.211396336555481,-0.085495725274086,-1.3800681829452517,93.16659545898438,-97.5197296142578,278.66021728515625
1700075793,0.0283355712890625,-0.356842041015625,0.145050048828125,-1.2815676927566528,-0.2436041384935379,-1.641090989112854,93.5828094482422,-97.2766571044922,279.3172302246094
1700075793,-0.074676513671875,-0.2563934326171875,0.128997802734375,-1.5290864706039429,-0.3597757518291473,-2.023172378540039,93.69717407226562,-96.6763153076172,278.4359741210937
1700075793,-0.0904998779296875,-0.316009521484375,0.0998382568359375,-1.8645992279052728,-0.46967214345932,-2.348827362060547,93.5797119140625,-96.22468566894533,278.227294921875
1700075793,-0.1495513916015625,-0.37841796875,0.023101806640625,-2.134905338287353,-0.6263791918754578,-2.5481810569763184,94.31175231933594,-96.07733154296876,278.3277893066406
1700075793,-0.1620635986328125,-0.3388519287109375,-0.03155517578125,-2.3318979740142822,-0.8178035020828247,-2.7232632637023926,94.00938415527344,-95.7800750732422,277.8203430175781
1700075793,-0.104156494140625,-0.2161712646484375,-0.0033721923828125,-2.403212785720825,-0.9917476177215576,-2.903665065765381,94.46963500976562,-95.5634765625,277.8863220214844
1700075793,-0.0748291015625,-0.075531005859375,0.00042724609375,-2.2253835201263428,-1.187983155250549,-3.0637803077697754,94.45768737792967,-95.48046875,277.7972412109375
1700075793,-0.0683441162109375,0.0704498291015625,0.0174560546875,-1.7064204216003418,-1.3325475454330444,-3.1668405532836914,94.42225646972656,-94.97306823730467,277.8609619140625
1700075793,-0.0628204345703125,0.2812347412109375,0.0089111328125,-0.8874134421348572,-1.352963089942932,-3.2190871238708496,94.927490234375,-94.58732604980467,277.39019775390625
1700075793,-0.086395263671875,0.543853759765625,-0.08184814453125,-0.0570755377411842,-1.3326919078826904,-3.293546199798584,95.232177734375,-94.14137268066406,277.31304931640625
1700075793,-0.062896728515625,0.8161163330078125,-0.260009765625,0.719601571559906,-1.2346774339675903,-3.313872098922729,95.62945556640624,-93.95823669433594,277.50506591796875
1700075793,-0.0346832275390625,1.056854248046875,-0.4554443359375,1.1627448797225952,-1.0656365156173706,-3.213079929351806,95.6528778076172,-93.77613830566406,277.3558959960937
1700075793,-0.0163726806640625,1.2640838623046875,-0.63763427734375,1.3090879917144775,-0.9011226296424866,-2.962075710296631,95.87614440917967,-93.63900756835938,277.664794921875
1700075793,0.044036865234375,1.3903350830078125,-0.7302703857421875,1.3353569507598877,-0.741206169128418,-2.538081645965576,95.55194091796876,-93.0364227294922,276.8355712890625
1700075793,0.114532470703125,1.46429443359375,-0.8119964599609375,1.2296960353851318,-0.6076372265815735,-1.9609062671661377,96.0171356201172,-92.75144958496094,276.37213134765625
1700075793,0.140960693359375,1.588134765625,-0.9167327880859376,0.8971566557884216,-0.5162971615791321,-1.3111183643341064,96.28811645507812,-92.12339782714844,276.67822265625
1700075793,0.180084228515625,1.7863922119140625,-0.9490509033203124,0.6557576060295105,-0.3906372487545013,-0.8312332630157471,96.27200317382812,-91.30197143554688,276.74517822265625
1700075793,0.2421112060546875,1.8776092529296875,-0.88983154296875,0.5092443227767944,-0.2778981924057007,-0.5145410895347595,96.91912841796876,-90.93995666503906,276.9115600585937
1700075793,0.26202392578125,1.900970458984375,-0.74945068359375,0.4033775627613067,-0.2832293212413788,-0.2511651217937469,96.60098266601562,-90.5571746826172,276.8144226074219
1700075793,0.2596435546875,1.8275909423828125,-0.5907135009765625,0.3002357184886932,-0.3311544954776764,-0.0901605188846588,97.00494384765624,-89.82810974121094,277.163330078125
1700075793,0.28125,1.5081939697265625,-0.5340423583984375,-0.5389763712882996,0.3532017469406128,-0.5027864575386047,97.19679260253906,-89.36921691894531,276.0509948730469
1700075793,0.3133392333984375,0.8425140380859375,-1.2722625732421875,-1.3068102598190308,0.3027276396751404,-0.7067006826400757,97.57762145996094,-88.49359130859375,276.47186279296875
1700075793,0.567138671875,0.478271484375,-1.1188201904296875,-0.9874513745307922,-0.315752625465393,-0.9609028697013856,97.6500244140625,-88.21080017089844,276.417236328125
1700075793,1.838043212890625,0.1481781005859375,-0.2791900634765625,-0.1789820045232772,-0.4971399903297424,-1.6624932289123535,98.05110168457033,-87.81988525390625,276.2315673828125
1700075793,2.757232666015625,-0.304473876953125,-0.33770751953125,0.2855108380317688,-0.64885413646698,-0.6227216124534607,98.19512939453124,-86.81449890136719,276.447021484375
1700075793,1.855682373046875,0.1005859375,-0.3526153564453125,0.9288640022277832,-0.1637154370546341,0.8235538005828857,98.75505065917967,-85.55839538574219,276.1937561035156
1700075793,1.010894775390625,0.0510101318359375,0.00384521484375,0.0429163090884685,-0.4442392289638519,1.167306900024414,98.86795043945312,-85.34684753417969,276.31134033203125
1700075793,1.366180419921875,0.5491943359375,0.3030242919921875,-1.0746324062347412,-0.3234539628028869,0.8426377177238464,98.69378662109376,-84.53936767578125,276.1517333984375
1700075793,1.49847412109375,0.8953094482421875,0.09271240234375,-1.0776113271713257,-0.06011313945055,0.3130649626255035,99.39935302734376,-83.31332397460938,276.14752197265625
1700075793,1.1228790283203125,0.4355010986328125,-0.4593353271484375,-0.6343172788619995,-0.0744830220937728,0.0647156164050102,99.6433563232422,-82.64852905273438,276.3954772949219
1700075793,0.876312255859375,0.0926513671875,-0.6473846435546875,-0.0295541640371084,-0.0763682723045349,0.1875866800546646,99.2150421142578,-81.2071533203125,276.1796875
1700075793,0.8401031494140625,-0.0390777587890625,-0.42059326171875,0.1790155619382858,0.0929499119520187,0.4428264200687408,99.5221710205078,-80.13987731933594,276.4094543457031
1700075793,0.813079833984375,0.0579376220703125,-0.130096435546875,0.0872331708669662,0.2237540036439895,0.4271792769432068,99.79837036132812,-79.35209655761719,276.39312744140625
1700075793,0.910308837890625,0.3757781982421875,-0.1704864501953125,0.0462140999734401,0.2030726820230484,0.1291662454605102,99.71478271484376,-78.07850646972656,276.4274597167969
1700075793,1.11175537109375,0.5535736083984375,-0.360626220703125,0.0741322860121727,0.142149418592453,-0.1421403586864471,100.1728973388672,-76.59585571289062,276.3505859375
1700075793,1.136505126953125,0.4998626708984375,-0.4557952880859375,0.0999548286199569,0.0819984599947929,-0.2563550770282745,100.22506713867188,-74.87844848632812,275.9112548828125
1700075793,0.981719970703125,0.2897796630859375,-0.4697723388671875,0.0978804901242256,0.0374970398843288,-0.2263535112142563,100.20843505859376,-72.80778503417969,275.48468017578125
1700075793,0.88616943359375,0.1137542724609375,-0.469482421875,0.0916899740695953,-0.0121357589960098,-0.1288272142410278,100.25653076171876,-70.05343627929688,274.70782470703125
1700075793,0.9255218505859376,0.04815673828125,-0.4488372802734375,0.0997561514377594,-0.0669683814048767,-0.0482554137706756,100.07048034667967,-67.89268493652344,274.30242919921875
1700075794,0.9717864990234376,0.07666015625,-0.467041015625,0.1567070484161377,-0.1515053659677505,-0.0249905716627836,100.12687683105467,-65.41221618652344,273.6856689453125
1700075794,0.9591064453125,0.1632537841796875,-0.4839630126953125,0.1717616319656372,-0.2700956761837005,-0.0535082332789897,100.1483917236328,-63.347503662109375,272.8124084472656
1700075794,0.9623260498046876,0.2460174560546875,-0.4697418212890625,0.1227743849158287,-0.3578050136566162,-0.1203170865774154,99.6385498046875,-60.78636169433594,272.4016418457031
1700075794,0.97430419921875,0.265228271484375,-0.4463653564453125,0.0620029158890247,-0.4260849952697754,-0.1700108796358108,99.82508850097656,-58.75250244140625,271.68389892578125
1700075794,0.9831085205078124,0.2482452392578125,-0.424957275390625,0.0037377465050667,-0.4667626619338989,-0.1936387121677398,99.37843322753906,-57.04707336425781,269.9957275390625
1700075794,1.0398101806640625,0.200531005859375,-0.391937255859375,-0.0367255248129367,-0.4835645258426666,-0.1616421639919281,99.44253540039062,-55.43077087402344,269.2987060546875
1700075794,1.081207275390625,0.1724853515625,-0.3583831787109375,-0.0895373374223709,-0.4804374575614929,-0.0951669961214065,99.00698852539062,-54.44068908691406,268.7253112792969
1700075794,1.0816497802734375,0.1710357666015625,-0.32965087890625,-0.06934604793787,-0.4448536336421966,-0.0593179166316986,99.00762939453124,-53.1512451171875,268.3109741210937
1700075794,1.0417938232421875,0.16912841796875,-0.323944091796875,0.0558787137269973,-0.4035155177116394,-0.0598958246409893,98.7914581298828,-51.89112854003906,267.25604248046875
1700075794,0.9759674072265624,0.1713104248046875,-0.3447265625,0.1755193620920181,-0.4077398180961609,-0.1053514555096626,98.3919677734375,-50.444244384765625,266.71063232421875
1700075794,0.9434814453125,0.166473388671875,-0.351806640625,0.249102234840393,-0.41673144698143,-0.1437545120716095,97.97428894042967,-49.42073059082031,265.80352783203125
1700075794,0.93841552734375,0.1822509765625,-0.3665008544921875,0.2443596720695495,-0.4479972124099731,-0.1665618121623993,98.22872924804688,-48.69451904296875,264.95172119140625
1700075794,0.9542388916015624,0.2039947509765625,-0.3555755615234375,0.2137237340211868,-0.4446664154529571,-0.1950874626636505,98.26712036132812,-48.20860290527344,264.2255249023437
1700075794,0.968719482421875,0.2266693115234375,-0.3684539794921875,0.2264653593301773,-0.452415406703949,-0.2350244969129562,98.4718780517578,-47.486907958984375,263.2667236328125
1700075794,0.966278076171875,0.2440032958984375,-0.3602752685546875,0.2505605816841125,-0.4601745307445526,-0.2956212759017944,98.52003479003906,-47.41616821289063,262.28228759765625
