timestamp,acc-x,acc-y,acc-z,gyr-x,gyr-y,gyr-z,mag-x,mag-y,mag-z
1699734369,-0.650247802734375,-2.931204528808594,-9.406888275146486,-0.2622430622577667,0.0835494846105575,-0.2983922958374023,20.502456665039062,-167.80621337890625,-310.3128662109375
1699734369,-0.6764433288574219,-2.841690673828125,-9.401499481201174,-0.2118624597787857,0.049447976052761,-0.2985824346542358,20.920074462890625,-167.84507751464844,-310.07049560546875
1699734369,-0.7119195556640625,-2.741399230957031,-9.346713409423828,-0.1855909079313278,0.0566257275640964,-0.3012168407440185,21.236099243164062,-167.67333984375,-310.05108642578125
1699734369,-0.7854167175292969,-2.628683624267578,-9.38323745727539,-0.1738980263471603,0.0884483754634857,-0.3082779347896576,20.916427612304688,-167.76780700683594,-309.2467956542969
1699734369,-0.9340576171875,-2.600093078613281,-9.44505889892578,-0.1707911789417266,0.0697724223136901,-0.3022008836269378,21.102951049804688,-167.3577880859375,-309.4466247558594
1699734369,-0.9300160217285156,-2.7330166625976564,-9.484876098632814,-0.1730713844299316,0.0312274284660816,-0.2726264595985412,21.461151123046875,-167.35791015625,-309.7323913574219
1699734369,-0.6655160522460938,-2.81459701538086,-9.433233489990236,-0.1776624023914337,0.0095972334966063,-0.2312763631343841,21.43890380859375,-167.37339782714844,-309.55859375
1699734369,-0.5623805236816406,-2.741399230957031,-9.435179443359376,-0.154290497303009,-0.0091879060491919,-0.1983069628477096,21.1351318359375,-167.25851440429688,-309.34521484375
1699734369,-0.6408174133300781,-2.611768798828125,-9.526489562988282,-0.0985374897718429,-0.0274193733930587,-0.1899265348911285,21.17269897460937,-166.97657775878906,-309.73370361328125
1699734369,-0.4831951904296875,-2.554138641357422,-9.51211944580078,-0.0558105334639549,-0.0876353085041046,-0.1773167252540588,21.75732421875,-167.38272094726562,-309.900146484375
1699734369,-0.3017724609375,-2.593506774902344,-9.437873840332031,-0.0526040904223918,-0.208219513297081,-0.1679642349481582,21.3443603515625,-167.20021057128906,-309.5292053222656
1699734369,-0.1986369323730469,-2.495161285400391,-9.381441192626951,-0.0080624539405107,-0.3646123111248016,-0.1724993288516998,20.9815673828125,-167.25733947753906,-309.39776611328125
1699734369,-0.1061293029785156,-2.465822296142578,-9.195527801513672,0.060963749885559,-0.4229057133197784,-0.1636941283941269,20.832244873046875,-167.4660186767578,-310.39776611328125
1699734369,0.1440005493164062,-2.699037322998047,-9.055269470214844,0.1080827936530113,-0.3324953913688659,-0.1714598983526229,20.5234375,-167.9304656982422,-309.99609375
1699734369,0.4384382629394531,-2.503992919921876,-9.02877456665039,0.1472546905279159,-0.2135801911354065,-0.2159261703491211,20.2369384765625,-167.55355834960938,-309.7935791015625
1699734369,0.3121009826660156,-2.638413391113281,-9.2687255859375,0.1263020187616348,-0.0296364556998014,-0.2837851047515869,20.470184326171875,-167.8688201904297,-309.9367370605469
1699734369,0.2553689575195312,-2.593955841064453,-9.351204071044924,0.0378829352557659,0.1001335233449935,-0.3326487839221954,20.641845703125,-167.8053741455078,-309.642578125
1699734369,0.1338217163085937,-2.525548095703125,-9.4986474609375,-0.0598992854356765,0.1497423499822616,-0.3298753798007965,20.41171264648437,-167.69479370117188,-309.0782775878906
1699734369,0.1225950622558593,-2.482288055419922,-9.682016143798828,-0.1120080277323722,0.1992036551237106,-0.2878198027610779,20.484115600585938,-167.6897430419922,-310.04351806640625
1699734369,0.2124082946777344,-2.365381164550781,-9.55807388305664,-0.0675521492958068,0.0221388582140207,-0.2343190312385559,20.613571166992188,-167.4564971923828,-309.6610717773437
1699734369,0.4439767456054688,-2.6217979431152343,-9.493857421875,0.0587437413632869,-0.2403116673231125,-0.2181477844715118,20.502609252929688,-167.47406005859375,-309.6461181640625
1699734369,0.6366261291503906,-2.4740551757812503,-9.28549072265625,0.2208775132894516,-0.3720118999481201,-0.2541787624359131,20.262435913085938,-167.75669860839844,-309.8754272460937
1699734369,0.5379812622070312,-2.211800537109375,-9.00482437133789,0.3656096756458282,-0.5419878959655762,-0.2823137044906616,20.09173583984375,-167.86378479003906,-309.9527587890625
1699734369,0.188009033203125,-2.5656646728515624,-9.337432708740236,0.4815650284290313,-0.5503976345062256,-0.3377868235111236,20.20452880859375,-167.95716857910156,-310.42156982421875
1699734369,-0.01197509765625,-2.6303302001953126,-9.455836486816407,0.4656510353088379,-0.3041236698627472,-0.3707325160503387,19.784439086914062,-167.91539001464844,-309.97955322265625
1699734369,-0.2423460388183594,-2.319576416015625,-9.452992401123048,0.3797204196453094,-0.0286673307418823,-0.3042560219764709,20.095932006835938,-168.14797973632812,-310.1192626953125
1699734369,-0.3677851867675781,-2.3715184020996096,-9.60687240600586,0.3200009167194366,0.1232026219367981,-0.228799358010292,20.21136474609375,-168.36056518554688,-309.9847412109375
1699734369,-0.2469863891601562,-2.372117156982422,-9.4603271484375,0.2827509939670563,0.0466218292713165,-0.196448877453804,20.18817138671875,-168.54721069335938,-309.7392578125
1699734369,-0.1974394226074219,-2.3837928771972656,-9.308542785644532,0.2531481087207794,-0.1404135674238205,-0.0869873613119125,20.15562438964844,-169.009033203125,-309.751220703125
1699734369,-0.0362246704101562,-2.578088836669922,-9.208700408935549,0.2082594633102417,-0.3618506193161011,0.1397427171468734,20.010528564453125,-168.79527282714844,-309.681396484375
1699734369,0.0685574340820312,-2.881956939697266,-9.272467803955076,0.2146632969379425,-0.4132754504680633,0.2562927603721618,20.0291748046875,-168.75607299804688,-309.95220947265625
1699734369,0.2264790344238281,-2.596949615478516,-9.040001220703124,0.2585356831550598,-0.3752042353153229,0.2723409831523895,19.50630187988281,-169.1402587890625,-310.48876953125
1699734369,0.1871109008789062,-2.9726683044433595,-8.846902770996094,0.2433114498853683,-0.3205423355102539,0.2112501859664917,19.430221557617188,-169.37335205078125,-309.85943603515625
1699734369,-0.4016148376464843,-3.1856753540039064,-9.361831970214844,0.1788035631179809,-0.1570761650800705,0.0822988674044609,19.309890747070312,-169.06565856933594,-310.1121826171875
1699734369,-0.7595205688476563,-3.2826736450195315,-9.352401580810549,0.0641779229044914,-0.0164295732975006,-0.0277432147413492,19.068618774414062,-169.78195190429688,-310.6124572753906
1699734369,-0.8783734130859375,-3.417393493652344,-9.307794342041015,-0.0489073544740676,0.1548958420753479,-0.1595435887575149,19.48237609863281,-169.89407348632812,-310.0935974121094
1699734369,-0.9071136474609376,-2.975662078857422,-9.054670715332032,-0.1563688367605209,0.3161846101284027,-0.3008181452751159,19.138641357421875,-169.4716339111328,-309.8411865234375
1699734369,-1.0517129516601562,-2.7978318786621097,-9.042545928955075,-0.2736307382583618,0.4695448577404022,-0.4327698051929474,19.64703369140625,-169.5233917236328,-309.7701110839844
1699734369,-1.0056088256835938,-3.036286010742188,-8.991352386474611,-0.4333772659301758,0.4751065969467163,-0.4655298888683319,19.828659057617188,-169.0635223388672,-310.2044677734375
1699734369,-0.9391470336914064,-3.1590307617187503,-8.879834289550782,-0.5090824365615845,0.345457524061203,-0.5267959237098694,20.11781311035156,-169.08009338378906,-310.1829833984375
1699734369,-0.9138496398925782,-3.054847412109375,-8.54782470703125,-0.5136537551879883,0.2435633838176727,-0.5986455678939819,20.41004943847656,-168.82745361328125,-310.0550537109375
1699734369,-1.01309326171875,-2.7466383361816407,-8.372090148925782,-0.4515022039413452,0.091463603079319,-0.5872800350189209,20.695526123046875,-168.79736328125,-310.28594970703125
1699734369,-1.3527369689941406,-2.443069610595704,-8.368497619628906,-0.3789007067680359,-0.1369677037000656,-0.5219255089759827,20.90596008300781,-168.23495483398438,-309.77862548828125
1699734369,-1.6796571350097658,-2.402503967285156,-8.154891815185547,-0.3533724546432495,-0.3357055783271789,-0.4519871771335602,20.39190673828125,-167.9637908935547,-310.06060791015625
1699734369,-2.076182556152344,-2.1743783569335937,-7.909402313232422,-0.3801348209381103,-0.3743086159229278,-0.352138876914978,20.36070251464844,-167.9347686767578,-310.3992919921875
1699734369,-2.804867248535156,-1.6986676025390626,-7.656727752685547,-0.5752276182174683,-0.0502274855971336,-0.4096120297908783,20.476333618164062,-167.87060546875,-310.2171630859375
1699734369,-3.296445007324219,0.2085163879394531,-6.691834259033204,-0.9512568712234496,-0.261169821023941,-0.1226750537753105,20.468276977539062,-167.3371124267578,-310.20098876953125
1699734369,-2.1463865661621093,-0.9038204956054688,-7.527247009277344,-1.02880597114563,-0.7344495058059692,0.6392638683319092,19.97235107421875,-167.041015625,-309.9512939453125
1699734369,-3.082988891601562,-4.469705200195313,-7.965685272216797,-0.8921312689781189,-0.9531799554824828,1.167325496673584,19.511520385742188,-166.65802001953125,-310.41162109375
1699734369,-3.2424073791503907,-3.0626312255859376,-5.982160034179688,-0.6226760745048523,-1.5267969369888306,1.3287861347198486,19.30307006835937,-166.60874938964844,-310.63726806640625
1699734369,-3.199147338867188,-0.1830693054199219,-5.9348583984375,-0.2227598428726196,-2.245524644851685,1.3832926750183103,18.3046875,-166.5673828125,-310.5482788085937
1699734369,-4.597090301513672,0.6890171813964844,-5.33849853515625,0.3062392771244049,-2.894573211669922,1.2699416875839231,17.02911376953125,-166.68858337402344,-310.8364562988281
1699734369,-4.648583221435547,1.1799961853027343,-4.04084701538086,0.9416354298591614,-3.4387221336364746,0.9303665161132812,16.292770385742188,-167.32806396484375,-311.0461730957031
1699734369,-4.021836547851563,1.5247293090820313,-2.725232849121094,1.3889436721801758,-3.584995746612549,0.4939364790916443,14.308547973632812,-167.99407958984375,-311.2725830078125
1699734369,-4.469405822753907,0.8102650451660157,-2.5295896911621094,1.3157587051391602,-3.2878870964050293,0.1625401824712753,12.731842041015623,-168.72085571289062,-311.100341796875
1699734369,-5.748945007324219,0.1267863464355468,-3.862268371582032,0.8621227741241455,-2.521646738052368,-0.0450140796601772,11.599563598632812,-169.54441833496094,-311.8431091308594
1699734369,-5.951174468994141,0.3959266662597656,-3.570674743652344,0.1320408582687378,-1.8768779039382928,-0.1316341906785965,10.597198486328123,-169.92483520507812,-311.39794921875
1699734369,-5.583239593505859,0.9180409240722656,-3.696113891601563,-0.638690710067749,-1.433903455734253,-0.1447124481201172,10.048538208007812,-169.87318420410156,-311.35888671875
1699734369,-4.700674896240234,1.10410400390625,-3.554807739257813,-1.4431171417236328,-1.1722084283828735,-0.0598960891366004,10.020538330078123,-169.27488708496094,-311.608642578125
1699734369,-3.941603393554688,0.8373587036132812,-3.925586700439453,-2.1938586235046387,-1.0653938055038452,0.1244255453348159,9.556427001953123,-168.90206909179688,-311.3614501953125
1699734370,-4.085753631591797,0.9943821716308594,-4.734803924560548,-2.6843819618225098,-1.3513238430023191,0.364586740732193,9.168487548828123,-168.1859588623047,-311.4361877441406
1699734370,-4.177063751220703,2.2409898376464845,-5.304219818115235,-2.9040701389312744,-2.0039429664611816,0.601848840713501,8.58819580078125,-166.76077270507812,-311.99835205078125
1699734370,-3.702251129150391,2.867586822509766,-5.9760227966308594,-2.9599719047546387,-2.8439249992370605,0.7906802892684937,7.7253265380859375,-165.6128692626953,-311.7167663574219
1699734370,-3.501219177246094,2.6192532348632813,-7.175029449462891,-2.922940492630005,-3.801184892654419,0.9581512808799744,6.662612915039063,-164.61000061035156,-312.1698608398437
1699734370,-4.148772583007813,2.7436445617675784,-8.271199951171875,-2.735215663909912,-4.727042675018311,0.9917798042297364,4.8931732177734375,-163.4076690673828,-311.588134765625
1699734370,-4.271667022705079,3.614234161376953,-8.326734466552734,-2.342346668243408,-5.691678047180176,0.9657087922096252,2.68359375,-162.34617614746094,-311.4512023925781
1699734370,-4.062701568603516,4.289330291748047,-8.000113677978517,-1.7925654649734497,-6.615224838256836,1.0810221433639526,0.6155853271484375,-161.40924072265625,-311.3256225585937
1699734370,-4.176614685058594,4.515659637451172,-8.059989166259767,-1.096177339553833,-7.324098587036133,1.4133992195129397,-2.553207397460937,-161.23599243164062,-310.2159423828125
1699734370,-4.286186828613282,4.5214974975585935,-7.155719604492188,-0.3563472032546997,-7.76722526550293,1.971492886543274,-5.2235107421875,-160.34127807617188,-308.8920288085937
1699734370,-4.924010467529297,4.767286376953125,-6.421795806884766,0.3137624561786651,-8.158061981201172,2.636075019836426,-8.10882568359375,-160.4969940185547,-308.214599609375
1699734370,-5.385800170898438,5.422024841308594,-6.864874420166016,0.7908715009689331,-8.593916893005371,3.3966753482818604,-11.263717651367188,-159.65724182128906,-306.67999267578125
1699734370,-6.375392303466797,5.733377380371094,-8.304580535888672,0.9808496832847596,-8.621967315673828,4.197453022003174,-14.142196655273438,-159.3271942138672,-305.0814208984375
1699734370,-7.84174301147461,5.383255462646485,-9.220675506591798,0.8423237800598145,-8.248827934265137,4.952591896057129,-16.637481689453125,-158.5968017578125,-303.35797119140625
1699734370,-9.002279663085938,5.473368072509766,-10.17793487548828,0.5426890850067139,-7.864711761474609,5.555656909942627,-19.239013671875,-157.7976837158203,-301.25372314453125
1699734370,-9.6231884765625,5.439987487792969,-11.010204162597656,0.3515630960464477,-7.615856647491455,5.850409030914307,-21.227828979492188,-156.10748291015625,-299.6009826660156
1699734370,-10.070009307861328,4.99885482788086,-11.229198760986328,0.47098109126091,-7.364134788513184,5.780366897583008,-22.844024658203125,-154.7131805419922,-297.37310791015625
1699734370,-11.594888305664064,5.040318603515625,-10.76890594482422,0.8930034637451172,-7.124166488647461,5.359719753265381,-24.505203247070312,-153.52662658691406,-295.15545654296875
1699734370,-12.882660369873047,5.4845947265625,-10.673404541015625,1.5677512884140017,-6.692478656768799,4.769718170166016,-25.448638916015625,-152.33509826660156,-293.05352783203125
1699734370,-14.053375854492188,5.3983740234375,-10.087073822021486,2.360953092575073,-5.913578033447266,4.232982635498047,-26.446517944335938,-151.20571899414062,-291.39532470703125
1699734370,-14.854060821533205,4.853207702636719,-8.79061981201172,3.041891098022461,-4.838397979736328,3.93524694442749,-27.20176696777344,-150.3585968017578,-289.98193359375
1699734370,-16.092734985351562,4.035907287597657,-8.265212402343751,3.3621442317962646,-3.7055273056030273,3.812143087387085,-27.8087158203125,-149.63108825683594,-289.12847900390625
1699734370,-17.071848907470702,3.3437466430664062,-8.801397399902344,3.3573086261749268,-2.6190173625946045,3.662806034088135,-27.91709899902344,-148.91351318359375,-288.59912109375
1699734370,-17.17513412475586,3.2988400268554687,-8.397537231445312,3.128825187683105,-1.66826593875885,3.411087274551392,-27.59814453125,-148.2529296875,-288.71551513671875
1699734370,-16.670533447265626,3.347189483642578,-7.636519775390625,2.8466618061065674,-0.9898160099983216,3.091391086578369,-27.37617492675781,-147.4429168701172,-288.25994873046875
1699734370,-16.0033708190918,3.2921040344238284,-6.71847885131836,2.683315753936768,-0.6395503878593445,2.7702009677886963,-26.73286437988281,-147.2509765625,-289.19122314453125
1699734370,-15.922389221191407,3.316802673339844,-5.786067810058594,2.7746715545654297,-0.6430277228355408,2.4190189838409424,-26.70281982421875,-146.58316040039062,-289.60186767578125
1699734370,-15.688126373291016,3.641627197265625,-4.758604431152344,3.158132791519165,-0.9807103872299194,2.039518356323242,-26.35533142089844,-146.50437927246094,-289.70916748046875
1699734370,-15.34339324951172,3.906576232910156,-4.060755615234375,3.759123325347901,-1.4041109085083008,1.6496537923812866,-26.54013061523437,-146.51402282714844,-290.0380249023437
1699734370,-15.313455505371094,3.527564392089844,-3.236569519042969,4.368680477142334,-1.5853999853134155,1.287995457649231,-26.297119140625,-146.792236328125,-290.4400329589844
1699734370,-15.379168853759769,3.41769287109375,-1.9854711914062504,4.729774951934815,-1.5281351804733276,0.9568889737129213,-26.596954345703125,-147.53538513183594,-290.2225952148437
1699734370,-15.369588775634766,3.679049377441407,-1.2903167724609377,4.668495655059815,-1.154999852180481,0.6335217952728271,-26.33062744140625,-148.28176879882812,-291.14752197265625
1699734370,-15.485747222900391,4.033961334228516,-0.79275146484375,4.117911338806152,-0.5160108804702759,0.3291094601154327,-26.459884643554688,-148.943115234375,-291.1866760253906
1699734370,-15.420183563232422,3.9481896972656254,-0.1484912109375,3.349929094314575,0.3713320195674896,0.0415655523538589,-26.214340209960938,-149.5098114013672,-292.12335205078125
1699734370,-14.620546417236328,3.8678068542480473,0.5447172546386719,1.65752112865448,1.769688367843628,-0.1275659501552581,-25.936065673828125,-150.51536560058594,-292.53961181640625
1699734370,-13.965957641601562,3.936963043212891,2.455194396972656,-0.3253607749938965,2.63053822517395,-0.2479133903980255,-25.12397766113281,-150.52978515625,-293.7537841796875
1699734370,-13.223501586914065,4.456233215332031,3.043770446777344,-1.3620604276657104,2.2438948154449463,-0.4040947556495666,-24.539718627929688,-150.09312438964844,-294.4551696777344
1699734370,-11.849957885742189,5.198689270019531,1.8028509521484373,-1.246795892715454,1.5326519012451172,-0.5557489991188049,-23.98692321777344,-150.192138671875,-295.426025390625
1699734370,-10.448123016357425,7.052434387207032,3.078647918701172,-0.4133332371711731,0.589450478553772,-0.6136887073516846,-23.64076232910156,-150.00808715820312,-295.68316650390625
1699734370,-8.430618438720703,6.957531738281251,4.476890258789063,0.8444990515708923,-0.335144966840744,-0.6208110451698303,-23.414520263671875,-150.10797119140625,-295.8615417480469
1699734370,-7.71435791015625,6.895859985351563,4.651576995849609,2.197228193283081,-0.6924117803573608,-0.6431518197059631,-23.918121337890625,-150.6601104736328,-295.75830078125
1699734370,-7.697443084716797,6.2914169311523445,5.121599578857422,2.23479962348938,-0.8187159299850464,-0.5169699192047119,-23.937423706054688,-151.73532104492188,-296.192626953125
1699734370,-8.457562408447266,6.732699279785157,2.160457305908204,1.8915871381759644,-0.8835353851318359,-0.3709628880023956,-24.786209106445312,-152.4036102294922,-296.0990600585937
1699734370,-8.212372283935547,6.083948364257813,1.0367440795898435,1.9228174686431885,-1.2196955680847168,-0.4656475782394409,-24.94671630859375,-152.76808166503906,-295.9837646484375
1699734370,-8.625213775634766,4.805906066894532,0.4481680297851563,1.958887815475464,-1.5755047798156738,-0.7789719700813293,-25.462814331054688,-153.7553253173828,-295.4080810546875
1699734370,-8.944499816894531,3.89714584350586,-0.1258882141113281,1.805311918258667,-1.8000116348266602,-1.1009118556976318,-26.00556945800781,-154.59976196289062,-295.5765991210937
1699734370,-9.03685775756836,2.612666931152344,-0.5589376831054688,1.462138056755066,-1.747453689575195,-1.3484303951263428,-26.6571044921875,-154.8375244140625,-294.89404296875
1699734370,-8.877588958740237,1.7327966308593752,-0.6932084655761719,1.0028146505355835,-1.5857832431793213,-1.5989786386489868,-27.0302734375,-155.86912536621094,-294.1068115234375
1699734370,-8.24889633178711,1.3271401977539063,-0.1871109008789062,0.678657054901123,-1.6769485473632812,-1.7287856340408323,-27.706344604492188,-156.7199249267578,-293.2789306640625
1699734370,-7.064259796142578,0.9162446594238282,0.8828640747070313,0.5885050892829895,-2.0196399688720703,-1.737779140472412,-28.37799072265625,-157.7424774169922,-293.1745300292969
1699734370,-5.973029022216797,1.2335847473144532,1.4111155700683595,0.623359203338623,-2.5272536277771,-1.769296407699585,-29.099624633789062,-158.41404724121094,-292.33953857421875
1699734370,-5.254074096679688,1.6730708312988285,1.5259268188476562,0.6352704167366028,-2.9099745750427246,-1.81763756275177,-30.01400756835937,-159.37564086914062,-290.90203857421875
1699734370,-5.811664581298828,2.257006530761718,1.888023834228516,0.5525262951850891,-2.9959490299224854,-1.6962463855743408,-31.19673156738281,-159.89199829101562,-289.40704345703125
1699734370,-6.662195892333985,1.9532881164550784,1.7272581481933595,0.3624753952026367,-2.896857738494873,-1.5979576110839844,-31.425094604492188,-161.2970733642578,-288.4208374023437
1699734370,-6.882986755371094,2.5496479797363283,0.7032376098632813,0.2114512622356414,-2.833697557449341,-1.5784292221069336,-31.638259887695312,-162.0486297607422,-287.07928466796875
1699734370,-6.875502319335938,2.3306533813476564,0.9434880065917968,0.1862652152776718,-3.0190653800964355,-1.6069985628128052,-32.55873107910156,-162.47645568847656,-285.60662841796875
1699734370,-7.095245361328125,1.7238153076171876,0.8719367980957031,0.1869669556617736,-3.2586510181427,-1.5316646099090576,-33.09056091308594,-163.08204650878906,-283.3903503417969
1699734370,-7.021448822021485,1.6947756958007814,0.1905537414550781,0.0256465077400207,-3.1788694858551025,-1.487545132637024,-33.94612121582031,-163.86392211914062,-282.234130859375
1699734370,-7.582781524658204,1.7598902893066408,-0.5231620788574219,-0.7487131357192993,-2.3630895614624023,-1.6464399099349976,-34.1719970703125,-164.2339324951172,-281.0111389160156
1699734370,-9.603429565429687,-0.0925076293945312,-0.446671142578125,-1.6599688529968262,-1.7842284440994265,-1.8575633764266968,-34.17950439453125,-164.66905212402344,-280.3548583984375
1699734370,-10.90018295288086,-4.891827392578125,-0.1440005493164062,-1.3197473287582395,-1.8323149681091309,-1.9450740814208984,-34.745635986328125,-165.30270385742188,-278.65838623046875
1699734370,-9.494156799316409,-1.3503419494628908,-0.3932322692871094,-0.8138319253921509,-2.1396546363830566,-1.7765315771102903,-35.17170715332031,-165.815185546875,-278.2200927734375
1699734370,-6.354136505126953,4.114194488525391,-3.165018310546875,-0.4297116994857788,-2.151229858398437,-1.573603272438049,-35.02275085449219,-166.3855743408203,-276.9742431640625
1699734370,-4.849465484619141,5.103636932373047,-2.904260559082031,-0.1114447712898254,-1.4821099042892456,-1.4643734693527222,-35.297393798828125,-167.34642028808594,-276.2401428222656
1699734370,-5.723048858642579,3.497327270507813,-0.7668553161621094,-0.3467041552066803,-0.8136188983917236,-1.3433743715286257,-35.17259216308594,-167.98167419433594,-275.8052673339844
1699734370,-7.024741973876954,2.3559507751464843,-0.1001417541503906,-1.364403247833252,-0.3401559889316559,-0.9735084176063538,-35.188568115234375,-168.3466796875,-275.30047607421875
1699734370,-7.292235717773438,0.6231541442871094,-0.1577719116210937,-3.044741630554199,-0.0991878360509872,-0.1636081039905548,-34.998443603515625,-168.47711181640625,-275.37567138671875
1699734370,-9.258995819091798,-7.714058532714844,0.2535726928710937,-1.45863139629364,0.4933399260044098,-0.3306138813495636,-35.08277893066406,-168.3391571044922,-275.5270080566406
1699734370,-13.244607696533205,-9.986333312988284,3.0934671020507816,-1.5340659618377686,0.3678472638130188,-1.717196702957153,-34.986572265625,-168.24920654296875,-275.50152587890625
1699734370,-10.985056457519532,6.815477142333985,-3.312461700439453,-0.4141305983066559,0.2021070271730423,-1.2262717485427856,-34.828704833984375,-169.11434936523438,-275.6690673828125
1699734370,-10.80827407836914,-5.052144012451172,-2.988535308837891,0.10799091309309,-0.1500757783651352,-0.7825584411621094,-34.91937255859375,-169.1278533935547,-275.90972900390625
1699734370,-12.695848846435547,-2.1794677734375,-1.6479231262207032,-0.2547222971916199,-0.1319463104009628,-0.6872262954711914,-34.95947265625,-169.71112060546875,-275.47076416015625
1699734370,-11.711046752929688,-3.2888108825683595,-0.9892927551269532,-0.814349889755249,0.4413795471191406,-0.5708022117614746,-34.511138916015625,-169.623046875,-275.481201171875
1699734370,-12.869038696289063,-3.579955444335938,2.239193572998047,-1.1473289728164673,0.7672979831695557,-0.6492696404457092,-34.64570617675781,-169.60873413085938,-276.3558959960937
1699734370,-12.313543853759766,-1.1755055236816407,3.970643005371094,-1.014296293258667,0.6398979425430298,-0.6894274353981018,-34.4957275390625,-169.44851684570312,-276.4983215332031
1699734370,-12.034224700927735,2.807711334228516,5.466482391357422,-0.5520554184913635,0.3941784501075744,-0.3613744378089905,-34.47760009765625,-169.5520477294922,-277.2137451171875
1699734370,-10.901380462646484,5.370980987548829,6.941365356445313,0.0112481275573372,0.3071016073226928,0.2716600000858307,-34.705413818359375,-169.94720458984375,-276.85235595703125
1699734370,-9.700427856445312,6.51969223022461,6.883884887695313,0.7760475277900696,0.2228940576314926,0.709513783454895,-34.413330078125,-169.57733154296875,-276.47052001953125
1699734370,-8.45726303100586,8.757388916015625,5.340294799804688,1.2144938707351685,0.2202886939048767,0.989120364189148,-34.248077392578125,-169.1024932861328,-276.838134765625
1699734370,-6.932833099365235,11.048524475097658,3.9293289184570312,1.3080132007598877,0.3081580996513366,1.586783528327942,-34.534423828125,-168.33340454101562,-276.87042236328125
1699734370,-6.77595932006836,10.755134582519531,2.8336074829101565,0.9752943515777588,0.832497775554657,2.0328598022460938,-34.0799560546875,-167.73109436035156,-276.7083740234375
1699734370,-7.540419616699219,10.536289672851565,1.5965798950195311,0.5702278017997742,2.082237482070923,2.479769706726074,-34.274627685546875,-167.24993896484375,-277.52618408203125
1699734370,-7.296726379394531,8.705746307373047,1.7624349975585938,0.0461536459624767,3.5429365634918213,3.293159246444702,-33.741363525390625,-166.0266876220703,-277.8565673828125
1699734370,-7.433541870117188,6.170767822265625,2.327958984375,-0.505012571811676,3.833433389663696,4.09661340713501,-33.611419677734375,-164.78970336914062,-279.71124267578125
1699734370,-8.005352783203126,4.913681945800781,-0.966390380859375,-1.0468971729278564,3.39065170288086,4.386338710784912,-33.15406799316406,-162.71192932128906,-281.1176147460937
1699734370,-9.642947387695314,4.693639526367188,-4.449197845458984,-1.5496705770492554,3.949252843856812,3.9793059825897217,-32.66972351074219,-160.84616088867188,-282.9029235839844
1699734370,-11.793225860595705,8.20863006591797,-1.6756155395507812,-1.8888368606567385,3.1480185985565186,3.656553745269776,-31.465362548828125,-159.10635375976562,-284.0328369140625
1699734370,-13.69711669921875,6.07661361694336,-6.091582489013672,-1.9908572435379028,1.6988892555236816,3.410828828811645,-30.71229553222656,-157.5321044921875,-285.8925476074219
1699734370,-14.339281311035156,2.5005500793457034,-7.586074676513673,-2.005511999130249,0.4550181031227112,3.348311185836792,-30.4195556640625,-155.74266052246094,-286.2930908203125
1699734370,-14.063704376220704,-1.1979588317871095,-6.256389770507813,-2.1976866722106934,-0.9963064193725586,3.34231948852539,-29.971023559570312,-154.527587890625,-285.9068908691406
1699734370,-13.138777770996096,-1.2108320617675783,-6.589447174072266,-2.7290823459625244,-2.786958694458008,3.5856921672821045,-29.792770385742188,-152.49169921875,-285.206787109375
1699734370,-13.584251403808594,-0.1260379028320312,-7.808661804199219,-3.420139789581299,-4.629166126251221,3.9979734420776367,-30.122604370117188,-150.64736938476562,-283.4962158203125
1699734370,-12.855267333984376,0.3942800903320312,-7.6209521484375005,-3.95893669128418,-6.686203479766846,4.466640472412109,-30.28173828125,-148.43731689453125,-281.0068359375
1699734370,-10.814561004638673,0.7765850830078126,-6.662195892333985,-4.111632347106934,-8.905681610107422,4.855652809143066,-30.585372924804688,-146.2391815185547,-277.65875244140625
1699734370,-7.802524566650391,0.5131329345703125,-4.894970855712891,-3.849610090255737,-10.002593994140623,5.218474864959717,-30.95518493652344,-143.94287109375,-273.5382080078125
1699734370,-4.524640960693359,1.1295510864257814,-1.5461347961425782,-2.7526025772094727,-10.685575485229492,5.184914588928223,-30.31845092773437,-141.7415771484375,-268.47869873046875
1699734370,-1.924248504638672,1.4515315246582032,2.604583740234375,-0.776981770992279,-7.216365814208984,4.742043972015381,-29.376251220703125,-139.9652862548828,-264.1151733398437
1699734370,1.3157638549804689,4.313130798339844,15.100897521972655,1.4714089632034302,-0.0708326250314712,3.4210855960845947,-28.065582275390625,-138.25233459472656,-261.15264892578125
1699734370,5.350024566650391,10.070907440185549,33.50722137451172,2.7970423698425293,3.133377313613892,2.078975200653076,-27.340866088867188,-137.48573303222656,-262.306884765625
1699734370,5.207371215820313,9.072932739257812,21.25205612182617,3.539586544036865,3.212604522705078,1.2418714761734009,-26.696762084960938,-136.17745971679688,-264.1702880859375
1699734370,2.516267395019532,6.11732894897461,8.99329833984375,3.954905271530152,2.258651733398437,0.8725565075874329,-26.424102783203125,-136.1646728515625,-266.13653564453125
1699734371,-0.6066883850097656,4.65636703491211,4.257296905517578,3.836768865585327,2.8608179092407227,1.4285869598388672,-26.300033569335938,-135.93106079101562,-267.78857421875
1699734371,-6.31372055053711,4.392166442871094,2.595901794433594,3.312639236450196,3.994446277618408,2.6893444061279297,-25.526199340820312,-135.48780822753906,-269.95123291015625
1699734371,-9.967023468017578,3.733386383056641,0.97477294921875,2.90850830078125,3.80580472946167,3.819397449493408,-25.009552001953125,-134.36410522460938,-272.85308837890625
1699734371,-7.747289428710938,2.9485684204101563,-0.8761280822753906,2.6363861560821533,2.7598466873168945,4.841773986816406,-23.236129760742188,-133.5115509033203,-274.4730529785156
1699734371,-6.765780487060547,2.0504360961914063,-1.5905923461914064,2.421469688415528,1.4843688011169434,5.686274528503418,-21.543960571289062,-132.1340789794922,-275.71759033203125
1699734371,-6.1222686767578125,1.3837225341796875,-1.7372872924804688,2.1861438751220703,0.4853094518184662,5.996648788452148,-19.524322509765625,-130.6238555908203,-276.625732421875
1699734371,-4.274960174560547,1.8537451171875,-1.5762222290039063,1.9178626537323,0.1783795952796936,5.624375820159912,-17.5679931640625,-129.72755432128906,-278.3422546386719
1699734371,-2.8791128540039064,3.5127452087402347,-0.8913963317871094,1.4959650039672852,0.2984423637390136,4.629863739013672,-15.991775512695312,-128.3076629638672,-278.8981018066406
1699734371,-2.2567071533203125,6.181096343994141,-0.6349795532226563,0.857979953289032,0.461721807718277,3.29565691947937,-14.133010864257812,-127.65911865234376,-279.42333984375
1699734371,-1.8817369079589843,8.853040008544923,-1.2350816345214843,0.1254058629274368,0.4002222418785095,1.9569770097732544,-12.867950439453123,-126.90760803222656,-279.77423095703125
1699734371,-1.7967137145996095,11.409124603271485,-2.236798553466797,-0.6203705668449402,-0.1671889871358871,1.0429468154907229,-12.214248657226562,-126.7104949951172,-279.8414306640625
1699734371,-2.894979858398438,13.326038360595703,-3.695365447998047,-1.2230039834976196,-1.112093210220337,0.8623834848403931,-11.982391357421877,-126.32292175292967,-279.43609619140625
1699734371,-5.464536437988282,14.816638641357423,-3.904630279541016,-1.5142587423324585,-2.5909206867218018,1.6499654054641724,-12.034866333007812,-126.289794921875,-278.6634826660156
1699734371,-9.079219665527344,16.15859802246094,-3.5128948974609377,-1.6189223527908323,-3.752339601516724,2.5882716178894043,-11.637298583984377,-125.63351440429688,-277.4530029296875
1699734371,-8.43331283569336,17.24174560546875,-2.181563415527344,-1.6897010803222656,-3.902158737182617,3.049112558364868,-10.838470458984377,-125.18954467773438,-275.7989501953125
1699734371,-4.176614685058594,16.356785888671876,-0.5078938293457032,-1.7099483013153076,-3.291731834411621,3.3986852169036865,-9.605117797851562,-124.34518432617188,-274.8412780761719
1699734371,-2.8803103637695315,14.366075592041016,0.8755293273925782,-1.6873685121536257,-2.3516781330108643,3.7496514320373535,-8.844329833984375,-123.74581909179688,-273.3697509765625
1699734371,-3.356470184326172,12.344230041503907,1.4929953002929688,-1.63241446018219,-1.4828031063079834,4.001143932342529,-7.491378784179687,-122.76016235351562,-271.886474609375
1699734371,-3.5630406188964847,10.16161880493164,1.230890350341797,-1.5685502290725708,-1.2973657846450806,4.175350666046143,-6.195724487304688,-121.94035339355467,-270.36065673828125
1699734371,-3.603306884765625,8.515791320800782,0.209564208984375,-1.5413388013839722,-1.7086644172668457,4.216143131256104,-3.984786987304688,-121.52149963378906,-270.238037109375
1699734371,-2.0615130615234376,7.708370361328125,-0.4421804809570313,-1.544722080230713,-1.908349633216858,4.104424476623535,-2.63592529296875,-120.8684539794922,-269.3688659667969
1699734371,0.8758287048339845,7.175179138183594,0.7041357421875001,-1.489180564880371,-1.493227243423462,3.840234518051148,-0.710479736328125,-120.30915832519533,-268.3793640136719
1699734371,4.250111846923828,6.82820068359375,3.3675471496582032,-1.2984201908111572,-0.8943414092063904,3.394681692123413,0.8377838134765625,-119.86782836914062,-267.3673400878906
1699734371,6.721472625732423,6.660998382568359,4.779261474609375,-1.029987931251526,-0.4675251245498657,2.804341554641724,2.443603515625,-119.612060546875,-266.898681640625
1699734371,8.149652709960938,6.660399627685547,5.220843200683594,-0.62688148021698,-0.4611577689647674,2.056269884109497,3.479721069335937,-119.48834228515624,-266.072021484375
1699734371,9.578281860351565,6.926246795654297,5.367837524414063,-0.2262291461229324,-0.81972736120224,0.8629422187805176,4.743667602539063,-119.03858947753906,-266.343505859375
1699734371,12.56801467895508,8.074359283447267,4.54140609741211,0.0682184696197509,-1.335149168968201,-0.706079363822937,5.005096435546875,-119.21690368652344,-266.1787109375
1699734371,15.404915313720704,9.187743988037113,3.333268432617188,0.2570038437843323,-1.4906498193740845,-1.821840047836304,4.714599609375,-119.2751922607422,-265.5773010253906
1699734371,13.890963592529298,7.702233123779298,3.320694580078125,0.3761368691921234,-1.1878584623336792,-2.0137503147125244,3.9615631103515625,-119.746826171875,-266.1585693359375
1699734371,9.519903259277344,5.135670318603516,3.880829772949219,0.4621676206588745,-0.6697959303855896,-1.5583298206329346,3.1693267822265625,-119.66207885742188,-265.57891845703125
1699734371,6.420298919677735,4.092789001464844,4.2626856994628906,0.5123823285102844,-0.0504613108932971,-0.8476902842521667,2.6440582275390625,-119.779052734375,-266.0863342285156
1699734371,4.5779301452636725,4.291126556396485,4.343966674804688,0.485436201095581,0.6282364726066589,-0.1655551344156265,2.137908935546875,-120.23184204101562,-266.1846923828125
1699734371,3.720513153076172,5.021457824707031,4.054618377685547,0.3546465039253235,1.2266772985458374,0.2722810506820678,2.3279571533203125,-120.05677795410156,-266.4147644042969
1699734371,3.514990539550781,5.973029022216797,3.468137969970704,0.1193434372544288,1.6884609460830688,0.4396886825561523,1.8263397216796875,-120.1150360107422,-266.5364990234375
1699734371,3.6441719055175774,7.1612580871582034,3.0217662048339844,-0.1596572995185852,2.00496506690979,0.3985604345798492,2.025604248046875,-120.01641845703124,-266.6547241210937
1699734371,3.693269805908203,8.330177307128906,3.0003607177734377,-0.331744372844696,2.0767951011657715,0.2422089129686355,2.2246551513671875,-120.43499755859376,-267.1617431640625
1699734371,3.398383026123047,9.38069274902344,3.2552806091308595,-0.288479208946228,1.9112061262130733,0.0699894726276397,2.1125030517578125,-120.10928344726562,-266.7107849121094
1699734371,2.7330166625976564,10.34259246826172,3.5847454833984376,-0.0823982059955596,1.590260028839111,-0.1224806383252143,1.9582672119140625,-120.23141479492188,-267.4985046386719
1699734371,2.1041743469238283,11.08130630493164,3.607947235107422,0.1369277536869049,1.2657301425933838,-0.3184165954589844,1.7318267822265625,-119.96102905273438,-266.95819091796875
1699734371,1.6372952270507812,11.322454833984375,3.2260913085937504,0.3286910653114319,1.1159169673919678,-0.39386847615242,1.8447723388671875,-120.07247924804688,-267.34722900390625
1699734371,0.9541159057617188,11.142678680419923,2.8601023864746096,0.4889430701732635,1.1976035833358765,-0.3158895075321197,1.405029296875,-120.39851379394533,-267.8099365234375
1699734371,0.1823208618164062,10.775043182373048,2.7128086853027344,0.6350831985473633,1.4392979145050049,-0.1741358488798141,0.7906036376953125,-120.30265808105467,-267.2255859375
1699734371,-0.4266128540039062,10.371632080078124,2.96308822631836,0.742766797542572,1.7150315046310425,-0.0705553889274597,1.3317718505859375,-120.29495239257812,-268.1161499023437
1699734371,-0.8687933349609376,9.995164947509766,3.2178584289550782,0.7691909670829773,1.9350157976150515,-0.0129440277814865,1.0812835693359375,-120.2809600830078,-268.35369873046875
1699734371,-1.2126283264160156,9.491761779785156,3.378025360107422,0.7200266122817993,2.053399085998535,-0.0081612570211291,0.971954345703125,-120.50949096679688,-268.43170166015625
1699734371,-1.5405963134765626,9.084907836914065,3.625909881591797,0.6238049864768982,2.018871068954468,-0.0344967246055603,0.9726409912109376,-120.55300903320312,-268.7447509765625
1699734371,-1.7591418457031252,8.873846740722657,3.877686309814453,0.5557319521903992,1.7366398572921753,-0.066366508603096,0.870330810546875,-120.3013153076172,-269.3853454589844
1699734371,-1.8994001770019533,8.756939849853516,4.050277404785157,0.5856818556785583,1.1598803997039795,-0.1311289966106414,1.002288818359375,-120.66351318359376,-270.1509704589844
1699734371,-1.588796081542969,8.731193389892578,4.248165893554687,0.6879667043685913,0.4163737893104553,-0.2301911264657974,0.5231170654296875,-120.92881774902344,-270.2041931152344
1699734371,-0.7455995178222656,8.723708953857422,4.326153717041016,0.7632476091384888,-0.2410893142223358,-0.2793472111225128,0.6795806884765625,-120.52555847167967,-269.9796142578125
1699734371,-0.0999920654296875,8.745713195800782,4.053121490478516,0.7854554057121277,-0.6599134802818298,-0.2848269343376159,0.6064453125,-120.7263641357422,-270.36212158203125
1699734371,0.592767333984375,9.041348419189452,3.722908172607422,0.7918022871017456,-0.8420475721359253,-0.29801145195961,0.2125244140625,-120.88418579101562,-270.50836181640625
1699734371,1.467099151611328,9.91148895263672,3.532354431152344,0.7834961414337158,-0.8331171870231628,-0.3501233756542206,-0.2072296142578125,-120.8936004638672,-270.6959228515625
1699734371,2.3559507751464843,11.348949737548828,3.453767852783203,0.7519533634185791,-0.7155258655548096,-0.4453372657299042,-0.412811279296875,-121.1274871826172,-270.73321533203125
1699734371,2.97700927734375,12.80078063964844,3.3365615844726566,0.6831258535385132,-0.5816852450370789,-0.5700014233589172,-0.4952392578125,-121.43463134765624,-271.0404357910156
1699734371,3.004402313232422,13.688135375976564,3.06322998046875,0.5144630670547485,-0.5770811438560486,-0.7347134351730347,-1.1097412109375,-121.5968017578125,-271.04345703125
1699734371,2.5274940490722657,14.053226165771486,2.537373504638672,0.2005919516086578,-0.4596187174320221,-0.882264256477356,-1.065765380859375,-121.55363464355467,-271.2786865234375
1699734371,2.331252136230469,14.01520523071289,2.1787193298339846,-0.1304602771997451,-0.0680094137787818,-0.8716837763786316,-1.7391204833984375,-121.62490844726562,-272.02325439453125
1699734371,2.44576400756836,13.384416961669922,2.435585174560547,-0.2776238918304443,0.4531554877758026,-0.7215789556503296,-2.456771850585937,-121.76025390625,-271.6628723144531
1699734371,2.5818310546875,12.215797119140626,2.908302154541016,-0.1723736375570297,0.8486303687095642,-0.5622617602348328,-2.631561279296875,-121.5328369140625,-271.5380554199219
1699734371,2.846031646728516,10.7153173828125,2.904709625244141,0.0966975167393684,1.0098704099655151,-0.4348348081111908,-2.899765014648437,-122.09181213378906,-271.27264404296875
1699734371,2.99661849975586,9.163494415283202,2.4730073547363283,0.412022978067398,0.9553043842315674,-0.315119057893753,-3.1306915283203125,-121.5693359375,-271.3877868652344
1699734371,2.725232849121094,7.717351684570313,1.6908837890625,0.6352941393852234,0.7067009210586548,-0.2189366072416305,-3.474105834960937,-121.2015380859375,-272.3034973144531
1699734371,2.381547546386719,6.74048309326172,0.4900808715820313,0.6774261593818665,0.3484711647033691,-0.1418221145868301,-3.3280487060546875,-121.78956604003906,-272.0683288574219
1699734371,2.046095123291016,6.430178375244141,-0.8659492492675782,0.5778090357780457,0.0231463313102722,-0.0488018952310085,-3.425933837890625,-121.82571411132812,-272.66357421875
1699734371,1.6672329711914062,6.495891723632813,-1.682351531982422,0.4255233407020569,-0.1836036443710327,0.0537505783140659,-4.02972412109375,-121.6879425048828,-272.93267822265625
1699734371,1.4437477111816408,6.735842742919922,-1.8706599426269528,0.2784396111965179,-0.2621634304523468,0.1414583325386047,-3.81842041015625,-121.73593139648438,-272.6752014160156
1699734371,1.3539344787597658,7.228917388916016,-1.7872833251953126,0.1672600954771042,-0.2643600106239319,0.1862106174230575,-3.823410034179688,-121.61801147460938,-272.5028991699219
1699734371,1.3093272399902345,8.135581970214844,-1.6350498962402344,0.123503029346466,-0.2134544849395752,0.1853695958852768,-3.6829986572265625,-121.76242065429688,-272.87188720703125
1699734371,1.2210108947753906,9.345964965820311,-1.3281880187988282,0.1675013750791549,-0.1239429861307144,0.1566236913204193,-3.697311401367188,-121.66696166992188,-272.8969116210937
1699734371,1.0112969970703125,10.553204498291016,-0.9199868774414064,0.2911490201950073,-0.0254057571291923,0.1318533718585968,-3.737823486328125,-121.77987670898438,-272.4466247558594
1699734371,0.6752458190917969,11.41795623779297,-0.5646258544921875,0.4980161786079407,0.0995723977684974,0.1122333332896232,-3.81622314453125,-121.22564697265624,-272.9718017578125
1699734371,0.3206332397460937,11.819720764160158,-0.2174977111816406,0.729165256023407,0.2457788735628128,0.0945097282528877,-3.60772705078125,-121.52464294433594,-273.3487548828125
1699734371,-0.104183349609375,11.558963012695314,-0.14130615234375,0.9183673858642578,0.3427413702011108,0.0500370673835277,-3.5068359375,-121.64239501953124,-273.7681579589844
1699734371,-0.3996688842773437,10.89629104614258,-0.6044430541992187,1.0154294967651367,0.3050922751426697,-0.0226919967681169,-3.72607421875,-121.51443481445312,-274.0575561523437
1699734371,-0.5574407958984375,10.168354797363282,-1.4509327697753909,1.0450356006622314,0.17371666431427,-0.106922723352909,-3.7535400390625,-121.89682006835938,-274.5714111328125
1699734371,-0.6858737182617188,9.492659912109376,-1.9389179992675785,1.0553526878356934,0.0625312849879264,-0.1812566071748733,-4.11846923828125,-122.048095703125,-274.86474609375
1699734371,-0.8267308044433594,8.951984252929687,-1.6959732055664063,1.0875918865203855,0.1074716001749038,-0.2246815711259842,-4.21160888671875,-122.16908264160156,-275.65478515625
1699734371,-1.0557545471191407,8.73613311767578,-0.827479248046875,1.1280146837234497,0.3956831395626068,-0.2158899456262588,-4.7703399658203125,-121.81617736816406,-275.97491455078125
1699734371,-1.277742919921875,8.920100555419923,0.4240681457519532,1.1367790699005127,0.8569183945655823,-0.2275767028331756,-4.436676025390625,-122.38346862792967,-276.73028564453125
1699734371,-0.9825567626953126,9.468560028076173,1.4248869323730469,1.0784423351287842,1.233298659324646,-0.3436742722988128,-4.2357025146484375,-122.116943359375,-277.1630249023437
1699734371,0.2408491516113281,9.966724090576172,1.5858023071289062,0.9583083987236024,1.425918459892273,-0.4556010663509369,-4.560394287109375,-122.46298217773438,-277.5867919921875
1699734371,1.0698252868652345,10.026150512695311,1.3145663452148435,0.798433780670166,1.4222209453582764,-0.4756171405315399,-4.538726806640625,-123.00358581542967,-278.03668212890625
1699734371,1.1490106201171877,9.981842651367188,0.9162446594238282,0.6260982751846313,1.2580524682998655,-0.4076750874519348,-4.70404052734375,-122.79457092285156,-278.532958984375
1699734371,1.035845947265625,10.074799346923829,0.561482391357422,0.4455199539661407,1.0097249746322632,-0.2807320654392242,-4.571197509765625,-123.14485168457033,-279.2875671386719
1699734371,0.925675048828125,10.168504486083984,0.2460882568359375,0.2656095623970032,0.7475565075874329,-0.1123169511556625,-4.6958770751953125,-123.060546875,-279.4345092773437
1699734371,0.8050259399414063,10.06087829589844,-0.0697549438476562,0.0919773280620575,0.5090898871421814,0.0493318624794483,-4.63958740234375,-123.09349060058594,-279.3859558105469
1699734371,0.6354286193847657,9.844578094482422,-0.4165837097167969,-0.0417860634624958,0.3158114850521087,0.16043122112751,-4.6345062255859375,-123.13851928710938,-279.6822814941406
1699734371,0.5415737915039063,9.623338165283204,-0.6141728210449219,-0.0985462814569473,0.1816622018814087,0.207577958703041,-4.807464599609375,-123.03797912597656,-279.6838073730469
1699734371,0.417930908203125,9.486822052001951,-0.6090834045410156,-0.0840387120842933,0.111585646867752,0.2171179354190826,-4.4682464599609375,-122.6483154296875,-279.9765014648437
1699734371,0.2272274780273437,9.439370727539062,-0.4947212219238281,0.0013789847726002,0.1083629578351974,0.2132518291473388,-4.310577392578125,-122.62767028808594,-279.8975524902344
1699734371,-0.0020956420898437,9.4410173034668,-0.3411405944824219,0.1364491879940033,0.154564544558525,0.1891286373138427,-4.332611083984375,-123.14817810058594,-279.8912048339844
1699734371,-0.2092648315429687,9.495054931640626,-0.2249821472167968,0.2772257328033447,0.2325637340545654,0.1525178998708725,-4.432373046875,-122.94816589355467,-280.0894470214844
1699734371,-0.4141886901855469,9.57289306640625,-0.1996847534179687,0.4010962843894958,0.3075594305992126,0.104223608970642,-4.3956451416015625,-123.06692504882812,-280.5919494628906
1699734371,-0.6271957397460938,9.634415130615237,-0.2987786865234375,0.5007779002189636,0.3444098532199859,0.0483560822904109,-4.4318389892578125,-122.91270446777344,-280.80426025390625
1699734371,-0.8045768737792969,9.664352874755862,-0.4465214538574219,0.5706541538238525,0.3345215320587158,-0.0014021543320268,-4.3715362548828125,-123.11692810058594,-280.9213562011719
1699734371,-0.9163943481445312,9.711205444335938,-0.6177653503417969,0.6229740977287292,0.3002490401268005,-0.0369470976293087,-4.1622314453125,-123.1140594482422,-281.51739501953125
1699734371,-0.9684860229492188,9.778116302490236,-0.6544390869140625,0.6677615642547607,0.2653278112411499,-0.0768053010106086,-4.184616088867188,-123.22306823730467,-281.22998046875
1699734371,-0.8881031799316407,9.893526306152344,-0.4644841003417969,0.7009746432304382,0.2840985655784607,-0.1141409501433372,-4.3126983642578125,-123.10133361816406,-281.80438232421875
1699734372,-0.7926017761230469,10.072554016113282,-0.1541793823242187,0.7133505940437317,0.3743807971477508,-0.1559587121009826,-3.958572387695313,-123.30680847167967,-281.8321533203125
1699734372,-0.6240522766113281,10.31579818725586,0.1910028076171875,0.6962347030639648,0.4870862960815429,-0.2085236459970474,-3.788055419921875,-123.55914306640624,-282.18756103515625
1699734372,-0.3923341369628906,10.487790527343751,0.3731739807128906,0.6653249859809875,0.5774630904197693,-0.247069701552391,-4.09832763671875,-123.94436645507812,-283.046875
1699734372,-0.1359173583984375,10.460247802734376,0.4213737487792969,0.6002370715141296,0.5726621747016907,-0.2663360834121704,-4.2068634033203125,-123.42823791503906,-282.7890014648437
1699734372,0.044307861328125,10.28032196044922,0.1475930786132812,0.5224195122718811,0.5072464346885681,-0.2738075852394104,-4.0245208740234375,-123.67512512207033,-283.9735412597656
1699734372,0.2848576354980469,10.020462341308594,-0.0416134643554687,0.4624475240707397,0.4401710033416748,-0.2640396356582641,-3.94818115234375,-123.857177734375,-283.61212158203125
1699734372,0.5066963195800781,9.799521789550782,0.0621208190917968,0.4376220703125,0.402914434671402,-0.2353017330169677,-4.02142333984375,-123.99147033691406,-283.72772216796875
1699734372,0.6222560119628907,9.696386260986328,0.1981878662109375,0.4301042556762695,0.3947071135044098,-0.2055515646934509,-4.297149658203125,-124.14802551269533,-284.0007019042969
1699734372,0.6677613830566407,9.762848052978516,0.2495310974121093,0.4067927896976471,0.4528154134750366,-0.1700140684843063,-4.266525268554688,-124.32823181152344,-284.87359619140625
1699734372,0.6316864013671876,9.770033111572266,0.2755769348144531,0.3528025150299072,0.5984282493591309,-0.1376489400863647,-4.1060943603515625,-124.23167419433594,-284.25927734375
1699734372,0.5504054260253907,9.699978790283202,0.3972738647460938,0.2959195375442505,0.7511962652206421,-0.1162349954247474,-4.371246337890625,-124.0947265625,-284.47576904296875
1699734372,0.3445834350585938,9.649533691406251,0.4400848388671875,0.2496495097875595,0.8829377889633179,-0.0782460719347,-4.513931274414063,-124.0910186767578,-284.972900390625
1699734372,0.1318757629394531,9.537716217041014,0.4869374084472656,0.2168396413326263,0.945111095905304,-0.0443751886487007,-4.3847198486328125,-124.29800415039062,-285.3569641113281
1699734372,-0.0333805847167968,9.46556625366211,0.3993695068359375,0.1581720560789108,0.8997335433959961,-0.0011036139912903,-4.246841430664063,-124.3730010986328,-285.62860107421875
1699734372,-0.3150947570800781,9.559570770263674,-0.0582289123535156,0.0954445004463195,0.7833267450332642,0.0350432060658931,-3.740188598632813,-124.14300537109376,-285.7909240722656
1699734372,-0.602347412109375,9.52828582763672,-0.3040177917480469,0.0511729046702384,0.6307518482208252,0.075557604432106,-3.981597900390625,-124.11833190917967,-285.8880615234375
1699734372,-0.8619076538085938,9.578431549072263,-0.4198768615722656,0.0389101132750511,0.5016205310821533,0.0992650687694549,-3.832107543945313,-124.25115966796876,-285.7738342285156
1699734372,-1.0235714721679687,9.59295135498047,-0.3031196594238281,0.063704676926136,0.4293873310089111,0.115698367357254,-3.549667358398437,-124.22634887695312,-286.0203857421875
1699734372,-1.145867156982422,9.51975357055664,-0.1095721435546875,0.1036177352070808,0.4075262248516083,0.1437233388423919,-3.873138427734375,-124.47279357910156,-286.5423583984375
1699734372,-1.1952644348144532,9.382938079833986,-0.0297880554199218,0.1560892015695572,0.3620263934135437,0.1476086378097534,-3.2428741455078125,-124.11404418945312,-286.19195556640625
1699734372,-1.2314891052246095,9.339528350830076,-0.1468446350097656,0.2282656580209732,0.2468484044075012,0.1261012107133865,-3.0967559814453125,-123.99212646484376,-286.38995361328125
1699734372,-1.3103750610351563,9.429940338134765,-0.3454815673828125,0.2674157321453094,0.1652835011482238,0.1058598533272743,-3.00030517578125,-124.36349487304688,-286.400146484375
1699734372,-1.252445526123047,9.481283569335938,-0.3525169372558594,0.2936846017837524,0.0992083400487899,0.0784934759140014,-3.1034088134765625,-124.37010192871094,-286.91131591796875
1699734372,-1.169967041015625,9.488019561767578,-0.3122506713867187,0.3233357071876526,0.0515193827450275,0.0614124946296215,-3.104522705078125,-124.13160705566406,-287.4385986328125
1699734372,-1.1928694152832031,9.478738861083986,-0.2296224975585937,0.3651406764984131,0.0300388596951961,0.0516030080616474,-3.144027709960937,-124.62069702148438,-287.1982421875
1699734372,-1.152902526855469,9.54415283203125,-0.1037342834472656,0.4008033573627472,0.0435690470039844,0.0269724950194358,-3.384857177734375,-123.9360809326172,-287.808349609375
1699734372,-1.051263885498047,9.75057357788086,0.0031434631347656,0.4236202538013458,0.0715966895222663,-0.0039366846904158,-3.2447052001953125,-124.09788513183594,-287.8179626464844
1699734372,-0.9741741943359375,9.93738510131836,-0.0101788330078125,0.417552500963211,0.104587398469448,-0.0377729460597038,-3.0366668701171875,-124.12802124023438,-287.8607788085937
1699734372,-0.9383985900878908,10.000104675292969,-0.1131646728515625,0.3986781537532806,0.1272152066230774,-0.0523628070950508,-2.87042236328125,-124.41871643066406,-288.38629150390625
1699734372,-0.963845672607422,9.934391326904295,-0.228724365234375,0.3697082698345184,0.140800267457962,-0.0513702481985092,-3.3730926513671875,-124.43038940429688,-288.1186828613281
1699734372,-0.9696835327148438,9.833052062988282,-0.3330574035644531,0.3396355807781219,0.1533192545175552,-0.0379556380212307,-3.43023681640625,-124.46572875976562,-288.4285888671875
1699734372,-0.9092092895507812,9.713301086425782,-0.38559814453125,0.30783212184906,0.1554907858371734,-0.0144575024023652,-3.2334136962890625,-124.46087646484376,-288.3107604980469
1699734372,-0.7261399841308595,9.574090576171876,-0.4064048767089844,0.2817603051662445,0.1415736377239227,0.0012865731259807,-3.2061309814453125,-124.79588317871094,-288.7391357421875
1699734372,-0.2996768188476563,9.50433563232422,-0.4215234375,0.2611109614372253,0.1253904104232788,0.0327395722270011,-3.089385986328125,-124.66371154785156,-289.1695556640625
1699734372,0.1061293029785156,9.453890533447264,-0.4384382629394531,0.2462619692087173,0.1339772492647171,0.1077078208327293,-2.795166015625,-124.58860778808594,-288.9915466308594
1699734372,0.276624755859375,9.394613800048829,-0.4276606750488281,0.2400410920381546,0.1653327643871307,0.199623093008995,-3.2207794189453125,-124.24658203125,-289.196044921875
1699734372,0.4082011413574219,9.478589172363282,-0.4843927001953125,0.2520167827606201,0.1868516355752945,0.2800543010234833,-3.16619873046875,-124.471435546875,-289.1991577148437
1699734372,0.5442681884765626,9.720186767578124,-0.6029461669921875,0.2501086294651031,0.1804832220077514,0.342541366815567,-2.550933837890625,-124.33892822265624,-289.54229736328125
1699734372,0.5662724304199219,10.032587127685549,-0.8737330627441406,0.2358559370040893,0.1489937454462051,0.4027005732059479,-2.438583374023437,-124.62991333007812,-290.23211669921875
1699734372,0.4517605590820313,10.433303833007812,-1.3121713256835938,0.2146736830472946,0.1183106675744056,0.4317806959152221,-2.543914794921875,-124.451904296875,-290.2270812988281
1699734372,0.3685336303710937,10.919193420410156,-1.671573944091797,0.1928365677595138,0.08775594830513,0.4271872937679291,-2.49920654296875,-124.6352081298828,-290.0503234863281
1699734372,0.3261717224121094,11.56929153442383,-1.996398468017578,0.176033616065979,0.0786412805318832,0.402504026889801,-2.197967529296875,-124.61517333984376,-290.4548645019531
1699734372,0.2685415649414062,12.339440002441409,-2.1885987854003908,0.1871709525585174,0.0797672644257545,0.3856454193592071,-2.1402587890625,-124.43896484375,-290.4049377441406
1699734372,0.147293701171875,13.033546600341795,-2.230811004638672,0.2071398645639419,0.0777374058961868,0.3844600617885589,-2.1506805419921875,-123.85383605957033,-290.3177490234375
1699734372,0.0034428405761718,13.597573699951171,-2.1986279296875,0.2510905563831329,0.0683289915323257,0.3869125545024872,-1.945709228515625,-124.3028564453125,-290.486572265625
1699734372,-0.2240840148925781,14.05442367553711,-1.8823356628417969,0.3298905491828918,0.0659025833010673,0.36801877617836,-1.530975341796875,-124.11872863769533,-290.7919921875
1699734372,-0.5381309509277344,14.503040771484375,-1.257534942626953,0.460331916809082,0.058081679046154,0.2942244410514831,-1.4832305908203125,-124.26034545898438,-290.9649963378906
1699734372,-0.822689208984375,15.158078613281251,-0.5397775268554688,0.6370542049407959,0.0596627965569496,0.1461995542049408,-1.2528533935546875,-124.16969299316406,-291.5882873535156
1699734372,-1.0650352478027345,16.098572845458985,0.0950523376464843,0.7985376715660095,0.0554715134203434,-0.0615856014192104,-1.4166259765625,-124.12721252441406,-291.9261474609375
1699734372,-1.3440550231933597,17.039815521240236,0.2787203979492187,0.832358717918396,0.016358733177185,-0.3135784268379211,-1.5377349853515625,-124.14686584472656,-291.94793701171875
1699734372,-1.6146922302246094,17.819693756103515,-0.1764830017089843,0.6954879760742188,0.0074414047412574,-0.5355904698371887,-1.8162384033203125,-123.54098510742188,-292.0382080078125
1699734372,-1.966011657714844,18.029856719970702,-0.6177653503417969,0.3433845341205597,0.1550899893045425,-0.6124865412712097,-1.57867431640625,-123.39596557617188,-292.7932434082031
1699734372,-2.402054901123047,17.132622528076173,-0.7050338745117188,-0.2363731265068054,0.411767840385437,-0.4619316756725311,-2.1755828857421875,-123.36013793945312,-292.778564453125
1699734372,-2.672692108154297,15.115117950439451,-0.7813751220703126,-0.9952802658081056,0.6190531253814697,-0.1813612729310989,-1.86016845703125,-123.42945861816406,-293.18231201171875
1699734372,-2.245929565429688,12.743599548339844,-0.8473878479003907,-1.7585272789001465,0.7264248728752136,0.0306652337312698,-1.94873046875,-123.3083038330078,-293.3431396484375
1699734372,-0.9086105346679688,10.88476501464844,-0.5248086547851563,-2.353601455688477,0.7854234576225281,0.0789179876446724,-1.7755889892578125,-121.8452606201172,-292.18865966796875
1699734372,0.5815406799316406,9.974507904052734,0.2176473999023437,-2.704118728637696,0.781392514705658,-0.0099383844062685,-1.3914337158203125,-120.76374816894533,-291.287109375
1699734372,1.673819274902344,9.674831085205078,0.9340576171875,-2.818511247634888,0.7104533314704895,-0.1795697659254074,-1.293853759765625,-119.60623168945312,-290.2193603515625
1699734372,2.356549530029297,9.566306762695312,1.5796650695800782,-2.750027894973755,0.607520580291748,-0.3942993581295013,-1.582550048828125,-119.05259704589844,-289.671875
1699734372,2.6349705505371097,9.935289459228516,2.001637573242188,-2.62412977218628,0.5545284748077393,-0.5926545262336731,-2.053680419921875,-117.70724487304688,-288.13037109375
1699734372,2.212848358154297,10.63673080444336,2.058519287109375,-2.595531940460205,0.6249403357505798,-0.7256778478622437,-1.903289794921875,-117.22828674316406,-286.80621337890625
1699734372,1.2028985595703126,10.858419799804688,1.7763560485839844,-2.713911771774292,0.7955901026725769,-0.8485054969787598,-2.4110565185546875,-116.22901916503906,-286.490478515625
1699734372,0.4439767456054688,10.863060150146485,1.2936099243164063,-2.8290672302246094,0.9444029927253724,-1.0103684663772583,-2.5506591796875,-114.764892578125,-285.1620788574219
1699734372,0.0823287963867187,10.885962524414063,0.6559359741210938,-2.794196128845215,1.0059564113616943,-1.1605517864227295,-3.2464752197265625,-114.21104431152344,-283.7565612792969
1699734372,-0.1230441284179687,10.62565383911133,0.0462538146972656,-2.592132806777954,0.9982254505157472,-1.281636118888855,-3.9176177978515625,-113.36721801757812,-282.67022705078125
1699734372,-0.1595681762695312,10.350076904296875,-0.3577560424804687,-2.3146092891693115,0.9446381330490112,-1.367684245109558,-4.18768310546875,-112.5377960205078,-280.6099548339844
1699734372,-0.0365240478515625,10.475965118408205,-0.7261399841308595,-2.0664186477661133,0.8788388967514038,-1.4207926988601685,-4.7745361328125,-111.71417236328124,-279.61981201171875
1699734372,0.3399430847167969,10.949580230712892,-1.0556048583984377,-1.8686463832855225,0.8276596069335938,-1.441084623336792,-5.5577545166015625,-111.35343933105467,-278.2491455078125
1699734372,0.7946974182128906,11.422147521972656,-1.2867242431640626,-1.7285345792770386,0.8100659251213074,-1.4042181968688965,-6.51275634765625,-110.99588012695312,-277.7835998535156
1699734372,1.1654763793945313,11.758947143554687,-1.2602293395996094,-1.6498013734817505,0.8744441270828247,-1.3362256288528442,-7.1715850830078125,-110.16000366210938,-276.7825927734375
1699734372,1.4747332763671877,12.171788635253908,-0.8189469909667969,-1.6701921224594116,1.0180423259735107,-1.2497974634170532,-7.935897827148437,-110.05189514160156,-275.2911376953125
1699734372,1.6926800537109377,12.462933197021483,0.0067359924316406,-1.8344758749008176,1.2372305393218994,-1.146075963973999,-8.750701904296875,-110.01303100585938,-274.6224670410156
1699734372,1.675166473388672,12.3439306640625,1.0258168029785155,-2.059324026107788,1.2313636541366575,-1.1260790824890137,-9.352615356445312,-109.4085693359375,-273.40594482421875
1699734372,1.324146423339844,11.990515594482424,1.6985179138183597,-2.2897722721099854,0.8705074787139893,-1.251368761062622,-9.814056396484377,-109.05184936523438,-272.14031982421875
1699734372,0.7098239135742188,11.466156005859377,1.9688557434082032,-2.4379875659942627,0.3054203689098358,-1.481885313987732,-10.815109252929688,-108.72438049316406,-270.7840576171875
1699734372,-0.2176473999023437,10.8206982421875,2.288590850830078,-2.5185084342956543,-0.2673318386077881,-1.7679884433746338,-11.94635009765625,-108.23556518554688,-269.0001220703125
1699734372,-1.2522958374023438,10.433752899169924,2.535277862548828,-2.56652569770813,-0.711617648601532,-2.070666790008545,-12.645416259765623,-108.4407958984375,-267.0211181640625
1699734372,-2.0336709594726563,10.428513793945314,2.80456787109375,-2.527167558670044,-0.8437772989273071,-2.300769090652466,-13.707687377929688,-108.41896057128906,-265.2962951660156
1699734372,-2.391726379394532,10.382559356689454,3.340004425048828,-2.3722169399261475,-0.7586578726768494,-2.393104314804077,-15.54638671875,-108.5327606201172,-263.39752197265625
1699734372,-2.485431518554688,9.970765686035156,3.508553924560548,-2.116523504257202,-0.530339241027832,-2.2532076835632324,-16.607711791992188,-109.09442138671876,-260.6177978515625
1699734372,-2.4563919067382813,9.190588073730469,3.344046020507813,-1.8546298742294312,-0.3195236623287201,-1.946630954742432,-17.950546264648438,-109.63224792480467,-259.19146728515625
1699734372,-2.1908441162109376,8.079598388671876,2.8458819580078125,-1.6149046421051023,-0.2409473657608032,-1.611377239227295,-19.101547241210938,-109.76559448242188,-257.2085266113281
1699734372,-1.7275575256347655,7.262747039794922,2.105970611572266,-1.420291781425476,-0.1745084226131439,-1.2434120178222656,-19.887527465820312,-109.86921691894533,-255.7206878662109
1699734372,-1.1261082458496094,6.612349548339844,1.6438815307617187,-1.295293927192688,-0.1396569609642028,-0.918201744556427,-20.215652465820312,-110.55500793457033,-254.6585693359375
1699734372,-0.3332070922851562,6.343358917236328,1.2305909729003908,-1.3141053915023804,-0.2774640917778015,-0.6609076261520386,-21.20225524902344,-110.71322631835938,-253.0596160888672
1699734372,0.3088078308105469,6.248456268310547,0.4186793518066406,-1.4329612255096436,-0.4443026185035705,-0.4637689888477325,-21.322265625,-111.13182067871094,-251.6951141357422
1699734372,0.8535250854492188,6.043532409667969,0.0761915588378906,-1.5352452993392944,-0.5090293884277344,-0.3641814291477203,-21.2923583984375,-111.11436462402344,-250.21778869628903
1699734372,1.3227992248535156,5.894592132568359,0.4662803649902344,-1.584762454032898,-0.4815615713596344,-0.3786133527755737,-21.77084350585937,-111.33038330078124,-248.49270629882807
1699734372,1.7431251525878908,5.82753158569336,1.0246192932128906,-1.5868405103683472,-0.4049583971500397,-0.468998372554779,-21.732589721679688,-111.63491821289062,-247.49612426757807
1699734372,2.0546273803710937,5.7471487426757815,1.5895445251464844,-1.517813801765442,-0.3187614679336548,-0.6075506806373596,-22.233642578125,-111.7377471923828,-246.0242614746093
1699734372,2.2013223266601565,5.543272705078126,2.275567932128906,-1.3856959342956543,-0.3272300660610199,-0.7528945207595825,-22.094940185546875,-112.25318908691406,-244.989501953125
1699734372,2.048939208984375,5.119953002929687,2.917732543945313,-1.1629388332366943,-0.5071985125541687,-0.8657974004745483,-22.054946899414062,-112.4945068359375,-243.87245178222656
1699734372,1.440604248046875,4.634662170410157,3.4012271118164064,-0.8554286360740662,-0.6722963452339172,-0.9177274107933044,-22.35333251953125,-113.3753662109375,-242.33856201171875
1699734372,0.4558021545410156,4.328099670410157,3.8372703552246095,-0.5195723176002502,-0.7397832870483398,-0.9335950613021852,-22.748046875,-113.84339904785156,-241.98472595214844
1699734372,-0.3879931640625,4.164789276123047,3.694617004394531,-0.1968539357185363,-0.7380269169807434,-0.924548864364624,-23.20223999023437,-114.14346313476562,-241.09722900390625
1699734372,-0.9602531433105468,3.93501708984375,3.253634033203125,0.0885738059878349,-0.713323712348938,-0.924476146697998,-23.318084716796875,-114.2525634765625,-240.1629943847656
1699734372,-1.432071990966797,3.588787078857422,2.9485684204101563,0.3353766798973083,-0.6675194501876831,-0.9409469962120056,-23.698959350585938,-114.65901184082033,-240.656982421875
1699734372,-1.8621276855468751,3.216361541748047,2.9618907165527344,0.5374789237976074,-0.5804452896118164,-0.947721540927887,-24.33050537109375,-114.79571533203124,-240.0726013183593
1699734372,-2.3802003479003906,2.9033624267578126,3.3391062927246096,0.6874335408210754,-0.4591449499130249,-0.9181042909622192,-24.747726440429688,-114.86419677734376,-239.5079345703125
1699734372,-2.9702732849121096,2.671943664550781,3.978875885009766,0.7910890579223633,-0.3078435659408569,-0.851104199886322,-24.616455078125,-115.04020690917967,-239.56671142578125
1699734373,-3.550017700195313,2.519560546875,4.727169799804687,0.874796986579895,-0.1416729837656021,-0.7523635029792786,-25.5091552734375,-114.8041534423828,-240.0933380126953
1699734373,-4.002975769042969,2.478396148681641,5.284460906982422,0.9846894145011902,0.0073724286630749,-0.6305529475212097,-25.95037841796875,-114.9207000732422,-240.10208129882807
1699734373,-4.276157684326172,2.512076110839844,5.533692626953125,1.1687968969345093,0.0804421082139015,-0.4905153810977936,-26.2318115234375,-114.8747100830078,-241.35073852539065
1699734373,-4.40444091796875,2.640059967041016,5.602250061035156,1.4123883247375488,0.0719506219029426,-0.3439967930316925,-26.791671752929688,-114.726806640625,-242.0080108642578
1699734373,-4.439617767333985,2.9291088867187502,5.752238159179687,1.6315858364105225,0.1523847430944442,-0.1992816776037216,-27.039947509765625,-114.34799194335938,-242.4547119140625
1699734373,-4.476141815185547,3.351829833984376,6.119574279785157,1.7505756616592407,0.5773584246635437,-0.0864496678113937,-27.653549194335938,-114.13825988769533,-243.4219207763672
1699734373,-4.496349792480469,3.935765533447266,6.540349273681641,1.6707212924957275,1.378706455230713,-0.0373457744717597,-27.84828186035156,-113.353515625,-244.5245819091797
1699734373,-4.466262359619141,4.861590270996094,6.812483367919922,1.432112216949463,2.276753664016724,-0.0001587244041729,-28.331344604492188,-113.488525390625,-246.3131256103516
1699734373,-4.328548736572266,6.702611846923828,7.0099227905273445,1.1394590139389038,2.7257444858551025,0.1790653616189956,-29.139816284179688,-112.82681274414062,-247.80479431152344
1699734373,-3.722908172607422,10.296039276123048,7.232659606933594,0.932481586933136,2.400540828704834,0.5247892141342163,-29.636260986328125,-112.25230407714844,-249.7408142089844
1699734373,-3.100502471923828,15.57331512451172,8.841064910888674,1.1804101467132568,1.369099736213684,0.8571831583976746,-29.813461303710938,-112.34292602539062,-251.14669799804688
1699734373,-3.779041442871094,19.82477416992188,9.16663787841797,1.7189141511917114,-0.0459629632532596,0.9712260961532592,-29.69760131835937,-111.7103271484375,-252.5600128173828
1699734373,-4.189936981201172,20.29195266723633,2.8024722290039064,1.9573570489883425,-0.9479591250419616,0.8448630571365356,-29.5155029296875,-111.02392578125,-253.589111328125
1699734373,-3.750301208496094,17.843494262695312,-1.0112969970703125,1.6300657987594604,-0.9410569667816162,0.6928442716598511,-28.9725341796875,-110.6265869140625,-254.11688232421875
1699734373,-3.469036102294922,14.479240264892578,-0.2845582580566406,1.0900118350982666,-0.3579232692718506,0.6861879229545593,-28.409744262695312,-109.8544464111328,-254.9547119140625
1699734373,-3.6550991821289065,11.203751678466798,1.1817924499511718,0.7697254419326782,0.3015340268611908,0.8355973958969116,-28.157196044921875,-109.43855285644533,-254.6843414306641
1699734373,-3.3940420532226563,8.650062103271484,2.137105865478516,0.6707488298416138,0.8040874004364014,1.040424108505249,-27.73130798339844,-109.25677490234376,-255.3861694335937
1699734373,-2.7195446777343752,7.359445953369141,2.905308380126953,0.7589255571365356,1.0288240909576416,1.182782530784607,-27.234527587890625,-108.1961669921875,-255.6808624267578
1699734373,-1.7714163208007814,7.248077545166016,3.765868835449219,1.0129778385162354,0.9228737354278564,1.2519820928573608,-26.623809814453125,-107.80902099609376,-256.32818603515625
1699734373,-0.9521699523925782,7.806566162109376,4.296215972900391,1.2887310981750488,0.4936640560626983,1.2681001424789429,-25.79327392578125,-107.22624206542967,-256.7474365234375
1699734373,-0.3969744873046875,8.893006896972656,3.5709741210937502,1.4647293090820312,-0.0698592439293861,1.2142539024353027,-25.69688415527344,-106.4876708984375,-257.7572021484375
1699734373,-0.1517843627929687,9.926008758544922,2.0773800659179686,1.4716955423355105,-0.5691148638725281,1.068544626235962,-25.617095947265625,-106.24649047851562,-258.1559753417969
1699734373,-0.3126997375488281,10.445727996826172,0.8602610778808594,1.3573883771896362,-0.8708677887916565,0.8708193302154541,-24.68133544921875,-105.16946411132812,-258.90008544921875
1699734373,-0.8562194824218751,10.36609359741211,0.2944377136230469,1.206912398338318,-0.9586301445961,0.6784061789512634,-24.02890014648437,-104.87559509277344,-259.7377319335937
1699734373,-1.555565185546875,10.165510711669922,0.1416055297851562,1.1026920080184937,-0.8891953825950623,0.528783917427063,-23.4521484375,-104.42198181152344,-259.9864807128906
1699734373,-2.2610481262207034,10.18062927246094,0.2942880249023438,1.0920206308364868,-0.689189076423645,0.4713377058506012,-23.32769775390625,-104.4207000732422,-260.00555419921875
1699734373,-2.8900401306152346,10.524464263916016,0.8523275756835937,1.1728734970092771,-0.3934908509254455,0.5194905996322632,-22.657028198242188,-104.54502868652344,-260.1412048339844
1699734373,-3.277434539794922,10.99358871459961,1.671573944091797,1.320117473602295,-0.1060100570321083,0.6158179044723511,-22.683609008789062,-103.98245239257812,-260.6180419921875
1699734373,-3.3664993286132816,11.419004058837892,2.2135968017578125,1.4842147827148438,0.0887205451726913,0.6949018239974976,-22.12950134277344,-103.57159423828124,-261.1825256347656
1699734373,-3.187920684814453,11.520792388916016,2.288141784667969,1.601044774055481,0.1506984382867813,0.736184298992157,-21.723052978515625,-103.547607421875,-262.0897827148437
1699734373,-2.788700866699219,11.137888641357424,1.895508270263672,1.6061646938323977,0.0742369443178176,0.7312081456184387,-21.082916259765625,-103.15077209472656,-263.0058898925781
1699734373,-2.042502593994141,10.312804412841798,1.3651611328125002,1.5116102695465088,-0.1340914964675903,0.6851360201835632,-20.647933959960938,-102.929931640625,-263.6059265136719
1699734373,-1.084644470214844,9.370962982177735,0.8256829833984375,1.3617000579833984,-0.4141471087932586,0.639348566532135,-20.226104736328125,-102.63177490234376,-264.3708190917969
1699734373,-0.5456153869628907,8.525820465087891,0.4796026611328125,1.2273542881011963,-0.7177024483680725,0.619185745716095,-19.363571166992188,-102.08918762207033,-265.0205078125
1699734373,-0.4821473693847656,7.845335540771485,0.3543132019042969,1.135808348655701,-0.9774112701416016,0.6422479152679443,-19.28842163085937,-102.29464721679688,-265.65875244140625
1699734373,-0.6494993591308594,7.481442260742188,0.4559518432617188,1.1051995754241943,-1.1508128643035889,0.6988363862037659,-18.889175415039062,-101.84326171875,-266.15234375
1699734373,-0.8340655517578125,7.500602416992188,0.6902146911621094,1.1449925899505615,-1.258698344230652,0.7559270858764648,-18.64434814453125,-101.37646484375,-266.42657470703125
1699734373,-1.080004119873047,7.884553985595703,0.7963439941406251,1.2374029159545898,-1.3018999099731443,0.7825717329978943,-18.112380981445312,-101.60807800292967,-266.74566650390625
1699734373,-1.201102294921875,8.449778594970704,0.829874267578125,1.347379446029663,-1.3080211877822876,0.761825442314148,-17.586822509765625,-101.39665222167967,-266.8555908203125
1699734373,-1.282383270263672,9.019942932128906,0.6110293579101563,1.4406473636627195,-1.2814403772354126,0.7073390483856201,-17.272415161132812,-100.8168487548828,-266.84991455078125
1699734373,-1.3844709777832032,9.438023529052735,0.2739303588867187,1.5141732692718506,-1.2442635297775269,0.6506049036979675,-16.406234741210938,-100.5137176513672,-267.4730224609375
1699734373,-1.542392578125,9.47080535888672,-0.0788859558105468,1.5616602897644043,-1.1986557245254517,0.6154615879058838,-15.980606079101562,-100.9738311767578,-268.19976806640625
1699734373,-1.6985179138183597,9.126820678710938,-0.3047662353515625,1.6047992706298828,-1.133752465248108,0.6170142292976379,-15.879318237304688,-100.23030090332033,-268.9093933105469
1699734373,-1.8612295532226564,8.459059295654297,-0.2499801635742187,1.6390187740325928,-1.082133412361145,0.6468578577041626,-15.42242431640625,-100.42381286621094,-269.560546875
1699734373,-1.9224522399902344,7.707023162841797,-0.1389111328125,1.6256572008132937,-1.015649437904358,0.6904974579811096,-14.89080810546875,-100.21231079101562,-269.9512939453125
1699734373,-1.7896783447265625,7.089108123779297,0.0628692626953125,1.5498106479644775,-0.9805333018302916,0.7072016000747681,-14.848358154296877,-100.26454162597656,-270.7427978515625
1699734373,-1.4699432373046877,6.871460723876954,0.22273681640625,1.4161300659179688,-0.92104971408844,0.6744884252548218,-14.063644409179688,-100.25579833984376,-271.3822021484375
1699734373,-0.951870574951172,6.941365356445313,0.5131329345703125,1.2684329748153689,-0.8840373754501343,0.5893990993499756,-13.84210205078125,-100.32225036621094,-272.2644958496094
1699734373,-0.6083349609375001,7.370073852539063,0.6414161682128906,1.156317114830017,-0.8831098079681396,0.4810467958450317,-13.427200317382812,-100.19703674316406,-272.90362548828125
1699734373,-0.6173162841796875,7.819140014648438,0.6957531738281251,1.1123077869415283,-0.8920087814331055,0.3767198324203491,-12.832382202148438,-100.16461181640624,-273.719970703125
1699734373,-0.7429051208496094,8.291258239746094,0.8643026733398438,1.115019679069519,-0.8842781186103821,0.279850035905838,-12.76763916015625,-100.20819091796876,-273.4155578613281
1699734373,-0.8704399108886719,8.773255920410156,1.04183349609375,1.1553040742874146,-0.8627060055732727,0.1842707693576812,-12.5638427734375,-100.08038330078124,-273.9629821777344
1699734373,-1.0255174255371091,9.10975616455078,1.105151824951172,1.1768263578414917,-0.8163906931877136,0.1382859647274017,-12.545440673828123,-100.07400512695312,-275.0698547363281
1699734373,-1.3900094604492188,9.114845581054688,1.020128631591797,1.1259994506835938,-0.6679732799530029,0.1430040299892425,-12.587646484375,-100.19679260253906,-275.3760681152344
1699734373,-1.6561560058593752,9.001830596923828,0.9572593688964844,0.9872159361839294,-0.4219493865966797,0.1422532796859741,-12.73565673828125,-100.3862762451172,-275.33917236328125
1699734373,-1.7947677612304689,9.09239227294922,0.7840695190429688,0.7838655114173889,-0.1288408041000366,0.1137872859835624,-12.855392456054688,-100.61007690429688,-276.2364501953125
1699734373,-1.8781443786621093,9.329948272705078,0.4698728942871094,0.5500141382217407,0.1089491173624992,0.0697090402245521,-12.615127563476562,-101.17903137207033,-276.4451904296875
1699734373,-1.946851501464844,9.533225555419923,0.0684077453613281,0.3462104201316833,0.2347707003355026,0.0220278035849332,-12.475631713867188,-100.82943725585938,-276.61083984375
1699734373,-1.9784358215332032,9.818083190917967,-0.1636097717285156,0.2071894109249115,0.2615192234516144,-0.0193657092750072,-12.563796997070312,-100.71142578125,-276.9664001464844
1699734373,-1.9669097900390624,10.117161254882811,-0.0844244384765625,0.1220002099871635,0.2744046449661255,-0.0358469486236572,-12.590957641601562,-100.75491333007812,-277.2470397949219
1699734373,-1.974543914794922,10.32343231201172,0.2128573608398437,0.0784801617264747,0.2765740752220154,-0.0271184369921684,-12.559646606445312,-101.13723754882812,-277.2506103515625
1699734373,-1.968107299804688,10.652897186279295,0.4595443725585937,0.0461453907191753,0.2527046799659729,-0.0164775103330612,-12.860870361328123,-100.9259796142578,-277.481201171875
1699734373,-1.9824774169921875,11.065738677978516,0.580642547607422,0.0456676185131073,0.2083585262298584,-0.0002905508736148,-12.66815185546875,-101.12492370605467,-277.80938720703125
1699734373,-2.16509765625,11.497440948486329,0.7390132141113281,0.0807100236415863,0.1878892034292221,0.0243761800229549,-12.344802856445312,-101.16293334960938,-277.92822265625
1699734373,-2.5918601989746093,11.883787536621094,1.0806028747558594,0.1075919717550277,0.173529177904129,0.0572518371045589,-12.589340209960938,-101.16946411132812,-277.427001953125
1699734373,-3.138373718261719,12.170740814208983,1.0786569213867188,0.0354892835021019,0.0737344101071357,0.0723871141672134,-12.630783081054688,-101.24821472167967,-277.6321105957031
1699734373,-3.538641357421876,12.416080627441406,0.2863545227050781,-0.1388750672340393,-0.1437925845384597,0.0551583282649517,-12.210830688476562,-101.00135803222656,-277.8738708496094
1699734373,-3.610941009521485,12.719349975585938,-0.8497828674316407,-0.3697429001331329,-0.435298204421997,0.0186964552849531,-12.249114990234377,-100.7647705078125,-277.82940673828125
1699734373,-3.463796997070313,13.064083099365234,-1.7054035949707032,-0.5807310342788696,-0.7151274681091309,-0.0247908346354961,-12.678619384765623,-100.72673034667967,-277.41265869140625
1699734373,-3.187621307373047,13.475876770019532,-1.945504302978516,-0.712139368057251,-0.9072689414024352,-0.0814487859606742,-12.30328369140625,-100.60081481933594,-277.0098876953125
1699734373,-2.6665548706054687,13.87479721069336,-1.7483642578125,-0.7568120360374451,-0.9898141622543336,-0.1372966021299362,-12.306884765625,-100.40097045898438,-276.0242004394531
1699734373,-2.09564208984375,14.12822021484375,-1.405577087402344,-0.7472963333129883,-0.9864279627799988,-0.1704883873462677,-12.63043212890625,-100.55305480957033,-275.4349365234375
1699734373,-1.7982106018066406,14.43478271484375,-1.209335174560547,-0.6974038481712341,-0.9031437039375304,-0.185015395283699,-12.631362915039062,-100.37947082519533,-274.2872314453125
1699734373,-1.6555572509765626,14.784305877685547,-0.967587890625,-0.6176578998565674,-0.7608485817909241,-0.1753928512334823,-12.902069091796877,-100.47244262695312,-274.4257202148437
1699734373,-1.5102095031738283,15.14655258178711,-0.6547384643554688,-0.5345784425735474,-0.6008871793746948,-0.1475028991699218,-12.941482543945312,-100.39137268066406,-273.1838073730469
1699734373,-1.3224998474121097,15.50670364379883,-0.4219725036621094,-0.4663618505001068,-0.4540015757083893,-0.1038875132799148,-12.57794189453125,-99.94175720214844,-272.4791564941406
1699734373,-1.101559295654297,15.707286529541015,-0.2128573608398437,-0.4452690780162811,-0.309252381324768,-0.0290162060409784,-12.789474487304688,-100.3019561767578,-271.4144287109375
1699734373,-0.8345146179199219,15.331268463134766,0.0940045166015625,-0.5214051008224487,-0.1430572867393493,0.070223294198513,-12.250991821289062,-99.71620178222656,-270.42413330078125
1699734373,-0.6173162841796875,14.19138885498047,0.5586383056640625,-0.704879641532898,0.0718419626355171,0.1423470228910446,-12.09814453125,-99.88478088378906,-269.8802490234375
1699734373,-0.3327580261230469,12.83925064086914,1.2253518676757813,-1.014889121055603,0.3177883625030517,0.1470488309860229,-12.001251220703123,-99.91183471679688,-269.31573486328125
1699734373,0.0968486022949218,11.505224761962891,1.975591735839844,-1.4237405061721802,0.5305253863334656,0.0761075541377067,-11.220138549804688,-99.3408203125,-268.2123718261719
1699734373,0.4608915710449219,10.27702880859375,2.6340724182128907,-1.829262971878052,0.6861221790313721,-0.0671891570091247,-11.034286499023438,-99.44528198242188,-267.45867919921875
1699734373,0.705333251953125,9.425449676513674,3.157234497070313,-2.151460886001587,0.8019446730613708,-0.2518865764141083,-10.82177734375,-98.97584533691406,-265.734375
1699734373,0.8196954345703126,9.171278228759766,3.5750157165527345,-2.367927074432373,0.9765875339508056,-0.4311814904212951,-10.667327880859377,-99.00422668457033,-264.1542053222656
1699734373,0.6750961303710938,9.66869384765625,4.120780792236328,-2.515221118927002,1.3153061866760254,-0.5709604024887085,-10.3294677734375,-98.68270874023438,-262.9450378417969
1699734373,-0.0996926879882812,10.651699676513672,4.7065127563476565,-2.6445114612579346,1.7108216285705566,-0.6928825974464417,-10.548126220703123,-98.95413208007812,-260.6717529296875
1699734373,-0.9723779296875,11.370355224609376,4.6367578125,-2.7491977214813232,1.952138066291809,-0.8305565714836121,-10.91302490234375,-98.93107604980467,-259.1609802246094
1699734373,-1.510059814453125,11.63111297607422,3.7027001953125,-2.7808914184570312,1.9593040943145752,-1.0397710800170898,-11.503677368164062,-99.13282775878906,-257.662353515625
1699734373,-1.945803680419922,11.736942901611329,2.458038482666016,-2.7089619636535645,1.7333601713180542,-1.2508659362792969,-12.251861572265623,-99.41012573242188,-255.2765655517578
1699734373,-2.4327410888671874,11.73275161743164,1.275347900390625,-2.516482353210449,1.192862033843994,-1.3986914157867432,-12.810089111328123,-99.79118347167967,-253.26905822753903
1699734373,-2.913541259765625,11.676768035888673,0.0431103515625,-2.1862871646881104,0.5297248363494873,-1.482385516166687,-13.2100830078125,-100.26739501953124,-252.0235137939453
1699734373,-3.1298414611816407,11.646381225585936,-0.7873626708984376,-1.769848108291626,0.0188099071383476,-1.5153322219848633,-14.422958374023438,-100.73480224609376,-250.2361297607422
1699734373,-3.009192352294922,11.39640106201172,-1.172362060546875,-1.3911408185958862,-0.2734405994415283,-1.4636424779891968,-15.033462524414062,-101.67538452148438,-248.1970367431641
1699734373,-2.6265879821777345,11.023376770019532,-1.436862030029297,-1.1328117847442627,-0.33159339427948,-1.3431943655014038,-15.8939208984375,-102.58763122558594,-246.44346618652344
1699734373,-1.9203565979003907,10.510992279052736,-1.4650035095214844,-0.9729923009872437,-0.2220208197832107,-1.2134515047073364,-15.988174438476562,-102.70669555664062,-245.48092651367188
1699734373,-1.1832893371582032,10.200986938476564,-1.2397219848632812,-0.954439103603363,-0.0288241915404796,-1.1134077310562134,-16.583831787109375,-103.46017456054688,-244.0448760986328
1699734373,-0.5372328186035157,10.159074096679689,-0.7487429809570313,-1.1502506732940674,0.1391887813806533,-1.040400147438049,-17.346817016601562,-103.94979858398438,-243.08804321289065
1699734373,-0.0342787170410156,9.93064910888672,-0.2197430419921875,-1.539570450782776,0.2432273030281067,-1.0097215175628662,-17.100448608398438,-104.66926574707033,-242.1975250244141
1699734373,0.3477268981933594,9.450896759033204,0.4980143737792969,-2.0108766555786133,0.2274110466241836,-1.0268712043762207,-17.120269775390625,-104.95933532714844,-241.2115631103516
1699734374,0.5031037902832032,9.089398498535155,1.31486572265625,-2.4209959506988525,0.0338418520987033,-1.056881546974182,-17.926361083984375,-106.06187438964844,-239.04058837890625
1699734374,0.473016357421875,8.863667907714845,2.351759490966797,-2.62637996673584,-0.3406132459640503,-1.14640212059021,-18.2373046875,-107.02557373046876,-237.98101806640625
1699734374,0.5249583435058593,8.654403076171876,4.003275146484375,-2.5237929821014404,-0.8625960350036621,-1.287988305091858,-18.425033569335938,-108.11279296875,-236.19940185546875
1699734374,0.4707710266113281,8.437055053710939,5.833968200683594,-2.225958824157715,-1.2782227993011477,-1.3920414447784424,-18.404525756835938,-109.13070678710938,-233.7185821533203
1699734374,-0.0058378601074218,7.99981430053711,6.668033752441406,-1.8767818212509155,-1.3833651542663574,-1.3651113510131836,-18.85072326660156,-110.25045776367188,-232.2082977294922
1699734374,-0.702938232421875,7.337591400146485,6.347849578857423,-1.524916172027588,-1.2004491090774536,-1.2888740301132202,-18.543182373046875,-111.74659729003906,-229.7854766845703
1699734374,-0.9196875,6.5855552673339846,5.426365814208984,-1.2267124652862549,-0.8324918746948242,-1.2147969007492063,-18.62850952148437,-112.87979125976562,-228.3473052978516
1699734374,-0.9250762939453124,6.151757354736328,4.0571630859375,-1.0288249254226685,-0.4310885369777679,-1.1465600728988647,-18.47518920898437,-113.5297393798828,-226.78309631347656
1699734374,-1.0294093322753908,5.837710418701172,2.412982177734375,-0.931870698928833,-0.0734438598155975,-1.122793197631836,-18.70880126953125,-114.7061004638672,-225.9790802001953
1699734374,-1.1165281677246095,5.626799011230469,1.1127859497070314,-0.9334155917167664,0.1822808533906936,-1.1143368482589722,-19.24522399902344,-115.46418762207033,-225.3846435546875
1699734374,-1.2156221008300785,5.438041534423828,0.3011737060546875,-1.024654984474182,0.3216406106948852,-1.082409381866455,-19.29794311523437,-116.2672119140625,-224.72964477539065
1699734374,-1.2798385620117188,5.211412811279297,-0.1172062683105468,-1.159687638282776,0.3597544431686401,-1.031342625617981,-19.510772705078125,-116.98495483398438,-223.89764404296875
1699734374,-1.261127471923828,5.074896697998047,-0.2180964660644531,-1.304882287979126,0.3148290514945984,-0.9827152490615844,-19.762924194335938,-117.86268615722656,-223.33546447753903
1699734374,-1.2731025695800782,5.0814830017089845,0.0152682495117187,-1.435024619102478,0.2431149184703827,-0.9688491821289062,-20.337417602539062,-118.56982421875,-223.0586395263672
1699734374,-1.2280462646484376,5.032834167480469,0.6339317321777344,-1.519401788711548,0.1219828948378562,-0.9894943237304688,-20.690933227539062,-119.69813537597656,-222.074447631836
1699734374,-1.1886781311035155,4.8315028381347656,1.4518309020996094,-1.4442932605743408,-0.1533996760845184,-1.0036481618881226,-20.885406494140625,-120.52157592773438,-220.88043212890625
1699734374,-1.214125213623047,4.332290954589844,2.6432034301757814,-1.110222101211548,-0.5670503973960876,-0.964680552482605,-21.46406555175781,-121.36622619628906,-220.3509826660156
1699734374,-1.3608201599121097,3.617078247070313,4.339026947021485,-0.6759235858917236,-0.8463253974914551,-0.8431307077407837,-21.62884521484375,-122.67379760742188,-219.416244506836
1699734374,-1.6958235168457032,3.0481114196777344,5.27188705444336,-0.2784819602966308,-0.9106719493865968,-0.6693349480628967,-21.4622802734375,-123.49142456054688,-219.0066375732422
1699734374,-1.996248779296875,2.8407925415039066,5.224435729980469,0.0381604358553886,-0.8779376745223999,-0.4786776304244995,-21.13755798339844,-123.77439880371094,-218.46194458007807
1699734374,-2.174677734375,2.7463389587402345,4.884342956542969,0.2405204623937606,-0.8387167453765869,-0.2884102165699005,-21.069091796875,-124.04869079589844,-218.2734375
1699734374,-2.3248155212402346,2.7524761962890625,4.426594848632813,0.3346376419067383,-0.7806736826896667,-0.1254750937223434,-20.962310791015625,-123.76315307617188,-218.01075744628903
1699734374,-2.526595916748047,2.848576354980469,4.083208923339844,0.3480581045150757,-0.6479902267456055,0.0353414788842201,-20.37733459472656,-124.01608276367188,-217.9008331298828
1699734374,-2.753524017333985,2.8888426208496094,4.022884368896484,0.3636210858821869,-0.4313143789768219,0.1652784347534179,-19.802001953125,-123.65553283691406,-217.5853576660156
1699734374,-2.71879623413086,2.89557861328125,4.315974884033204,0.4152038693428039,-0.1724370121955871,0.2574581801891327,-19.87005615234375,-123.32557678222656,-217.0504150390625
1699734374,-2.549797668457032,2.724334716796875,4.7611491394042975,0.4995222091674804,0.1107243821024894,0.3097847402095794,-19.31121826171875,-122.6383056640625,-217.50401306152344
1699734374,-2.423610076904297,2.53153564453125,5.128335571289063,0.6047492623329163,0.4510025978088379,0.3162391781806946,-19.18125915527344,-122.6615753173828,-217.5379638671875
1699734374,-2.470911712646485,2.6327252197265625,5.45869857788086,0.7524929642677307,0.8324127793312073,0.2978479266166687,-19.47569274902344,-122.14718627929688,-217.9093170166016
1699734374,-2.806962890625,3.203188934326172,5.945037231445313,0.9709717631340028,1.2359755039215088,0.2791890203952789,-19.73237609863281,-121.55538940429688,-217.9026641845703
1699734374,-3.3961376953125,4.12227767944336,6.719826049804688,1.2347373962402344,1.7131478786468506,0.2641408443450928,-20.109130859375,-120.8726806640625,-218.6536865234375
1699734374,-4.117188262939453,5.343438262939453,7.849676513671875,1.4831570386886597,2.316936016082764,0.267267644405365,-20.473602294921875,-120.21034240722656,-219.7782592773437
1699734374,-4.866829376220704,6.67057846069336,8.945847015380862,1.7466269731521606,2.897022724151612,0.3402571678161621,-21.697906494140625,-119.65269470214844,-220.3928985595703
1699734374,-5.2834130859375,7.839048614501953,8.343349914550782,2.018033742904663,3.165349245071411,0.5528671741485596,-22.315719604492188,-118.62355041503906,-222.2438507080078
1699734374,-5.285808105468751,8.713679809570312,5.425767059326172,2.02341890335083,2.901642322540283,0.9095938801765442,-23.722427368164062,-117.53245544433594,-223.84881591796875
1699734374,-5.24075180053711,9.866881713867189,3.5110986328125,1.5027618408203125,2.053760528564453,1.2944360971450806,-24.34173583984375,-116.4663543701172,-226.0282592773437
1699734374,-5.004393310546876,12.504696350097657,5.151387634277344,0.996577262878418,0.7818366885185242,1.5125840902328491,-25.226089477539062,-115.22286987304688,-228.00401306152344
1699734374,-4.562362518310547,16.386873321533205,7.264393615722657,1.09746253490448,-0.0600827783346176,1.2893636226654053,-24.77021789550781,-114.1192626953125,-228.9713134765625
1699734374,-4.4691064453125,18.566939849853515,4.787045288085937,1.598055124282837,-0.2458976507186889,0.73724764585495,-24.387115478515625,-113.2395477294922,-229.60302734375
1699734374,-5.131329345703125,18.306930541992188,2.9318032836914063,1.8162071704864504,0.2586534023284912,0.2304390668869018,-23.626510620117188,-112.21836853027344,-229.5877227783203
1699734374,-6.021827545166016,16.794026641845704,3.8227505493164062,1.577362895011902,0.9663404822349548,0.0769725441932678,-23.46371459960937,-111.31410217285156,-231.21047973632807
1699734374,-6.927743682861329,14.053824920654298,3.742816772460938,1.1729437112808228,1.3682736158370972,0.2582166492938995,-23.29168701171875,-110.95173645019533,-231.25213623046875
1699734374,-7.288643188476563,11.390114135742188,2.724334716796875,0.9108572602272034,1.3753505945205688,0.6394811868667603,-23.703277587890625,-110.11654663085938,-232.8071746826172
1699734374,-7.109765167236328,9.643396453857424,2.276615753173828,0.9079328775405884,1.203453779220581,0.9668291807174684,-23.474136352539062,-110.25486755371094,-233.4362030029297
1699734374,-5.869893493652344,8.58898910522461,3.195405120849609,1.1071183681488037,0.7979605793952942,1.120023250579834,-23.518814086914062,-109.3385009765625,-234.3009033203125
1699734374,-3.849395141601563,7.9658349609375,3.1235545349121097,1.3433072566986084,0.2682602107524872,1.204456090927124,-22.955108642578125,-108.83233642578124,-234.7357177734375
1699734374,-2.4146287536621096,7.353308715820312,2.1874012756347656,1.475070595741272,-0.2403018176555633,1.277209758758545,-22.9588623046875,-107.8656005859375,-235.72413635253903
1699734374,-1.602118377685547,6.853348388671876,1.3355227661132814,1.4619723558425903,-0.6604463458061218,1.336390256881714,-21.874099731445312,-107.47618103027344,-236.66864013671875
1699734374,-1.0066566467285156,6.605014801025391,0.8204438781738281,1.3285576105117798,-0.9714343547821044,1.3589458465576172,-21.227996826171875,-106.2995147705078,-237.3351593017578
1699734374,-0.4806504821777344,6.788383483886719,0.6550378417968751,1.1542012691497805,-1.097080111503601,1.3290374279022217,-20.07630920410156,-105.76165771484376,-237.91549682617188
1699734374,-0.0666114807128906,7.574698333740235,0.7487429809570313,1.0221680402755735,-0.9984688758850098,1.2426669597625732,-18.74888610839844,-104.6896514892578,-238.0382232666016
1699734374,0.0785865783691406,8.88986343383789,0.9569599914550782,0.9747182726860046,-0.6899818778038025,1.1063724756240845,-17.949859619140625,-104.16221618652344,-237.8939666748047
1699734374,-0.2412982177734375,10.588531036376954,1.161434783935547,1.0043643712997437,-0.2409622818231582,0.909913182258606,-16.925796508789062,-103.8705596923828,-238.5780334472656
1699734374,-1.1093431091308594,12.267140350341798,1.4226416015625,1.0514367818832395,0.3336051404476166,0.7131655216217041,-15.8958740234375,-103.25660705566406,-239.1716461181641
1699734374,-2.342478790283203,13.368250579833983,2.0082238769531253,1.0972729921340942,0.9272119998931884,0.576221764087677,-15.355697631835938,-103.12608337402344,-239.5242462158203
1699734374,-3.4935850524902348,13.810281372070314,2.635718994140625,1.1689146757125854,1.3534139394760132,0.518544614315033,-15.01531982421875,-102.57893371582033,-239.8520050048828
1699734374,-4.286635894775391,13.267959136962892,2.706821136474609,1.262415051460266,1.501574158668518,0.543420135974884,-15.156814575195312,-102.0984344482422,-240.7891540527344
1699734374,-4.523144073486328,11.71404052734375,2.202819213867188,1.3430811166763306,1.3697673082351685,0.6233347058296204,-14.922653198242188,-101.69026184082033,-241.90684509277344
1699734374,-4.153113555908203,9.61794937133789,1.4653028869628908,1.3796929121017456,1.0323277711868286,0.7101172804832458,-14.773101806640623,-101.43023681640624,-243.26622009277344
1699734374,-3.4217344665527345,7.838449859619141,0.8494834899902344,1.379069447517395,0.6058060526847839,0.7925519347190857,-14.48736572265625,-101.12327575683594,-244.31378173828125
1699734374,-2.766846313476562,6.698121185302735,0.4796026611328125,1.3291064500808716,0.1788387298583984,0.866726279258728,-14.166336059570312,-100.74710083007812,-244.678955078125
1699734374,-2.3873854064941407,6.177354125976563,0.1978884887695312,1.259661316871643,-0.2453090995550155,0.9204326868057252,-13.73638916015625,-100.34506225585938,-246.5305633544922
1699734374,-2.2748194885253907,6.227350158691406,-0.1830693054199219,1.2074170112609863,-0.6482347249984741,0.9368374943733216,-13.230499267578123,-100.248291015625,-247.4385528564453
1699734374,-2.348466339111328,6.715934143066407,-0.4812492370605469,1.1764370203018188,-0.9428932666778564,0.9238359332084656,-12.49359130859375,-99.91677856445312,-247.87164306640625
1699734374,-2.3320005798339847,7.530689849853516,-0.4073030090332031,1.1732654571533203,-1.0911120176315308,0.8794881701469421,-11.892868041992188,-99.34031677246094,-247.7530059814453
1699734374,-2.266736297607422,8.397537231445312,-0.1028361511230468,1.192874550819397,-1.1126532554626465,0.8139850497245789,-10.835235595703123,-99.05012512207033,-248.4214324951172
1699734374,-2.195334777832032,9.07188491821289,0.2148033142089843,1.2139170169830322,-1.068891167640686,0.7556943297386169,-10.240951538085938,-98.7922821044922,-249.192611694336
1699734374,-2.193987579345704,9.45838119506836,0.2338137817382812,1.2331660985946655,-1.032509684562683,0.6998891234397888,-9.33966064453125,-98.42196655273438,-249.4921875
1699734374,-2.2995181274414063,9.517059173583986,-0.01916015625,1.237412452697754,-1.0153908729553225,0.6561693549156189,-8.684890747070312,-98.09596252441406,-250.21511840820312
1699734374,-2.424657897949219,9.179361419677736,-0.1868115234375,1.2343895435333252,-0.967891812324524,0.6262950301170349,-8.22021484375,-97.9190673828125,-250.42860412597656
1699734374,-2.4604335021972656,8.568481750488282,-0.0291893005371093,1.219765067100525,-0.8759331107139587,0.6048741936683655,-7.1963653564453125,-97.21221923828124,-251.7425537109375
1699734374,-2.403102722167969,7.974067840576172,0.2930905151367187,1.1890838146209717,-0.766143262386322,0.5685441493988037,-6.9598541259765625,-97.44645690917967,-251.71902465820312
1699734374,-2.180365905761719,7.490273895263672,0.5763015747070312,1.1126481294631958,-0.6200160980224609,0.5221428275108337,-6.553390502929688,-96.9246063232422,-252.51573181152344
1699734374,-1.8134788513183595,7.281009063720703,0.9104067993164064,1.0183563232421875,-0.5647875070571899,0.4677048921585083,-5.68096923828125,-97.00192260742188,-253.1706085205078
1699734374,-1.739981689453125,7.2546638488769535,0.8164022827148438,0.9254575371742249,-0.5807999968528748,0.4197807610034942,-5.526336669921875,-96.83612060546876,-254.1352996826172
1699734374,-1.7509089660644532,7.215595092773438,0.6979985046386719,0.8596641421318054,-0.6333702802658081,0.3756409883499145,-5.1638031005859375,-96.11036682128906,-254.21929931640625
1699734374,-1.7287550354003909,7.165299682617188,0.6173162841796875,0.8200528025627136,-0.6614745855331421,0.3221423625946045,-4.81036376953125,-95.87013244628906,-255.3329467773437
1699734374,-1.6346008300781252,7.261848907470703,0.6162684631347657,0.7937546372413635,-0.6556718349456787,0.2493581622838974,-4.262985229492188,-95.7659912109375,-255.1822662353516
1699734374,-1.531614990234375,7.549700317382813,0.5691165161132813,0.7784640789031982,-0.6342571377754211,0.1745094805955886,-4.0180511474609375,-96.00544738769533,-255.6795959472656
1699734374,-1.5335609436035158,7.90401351928711,0.4667294311523438,0.7537427544593811,-0.575843870639801,0.1091336756944656,-4.258316040039063,-95.98875427246094,-255.8055877685547
1699734374,-1.5916401672363285,8.296647033691407,0.4224215698242187,0.7194433808326721,-0.4589590728282928,0.07013700902462,-3.8867034912109375,-95.58343505859376,-256.7503356933594
1699734374,-1.6778608703613282,8.577163696289062,0.4745132446289062,0.6502560377120972,-0.2995702028274536,0.0563900396227836,-3.5959930419921875,-95.73471069335938,-257.67926025390625
1699734374,-1.7413288879394533,8.826994171142578,0.3707789611816406,0.5429136157035828,-0.1067573353648185,0.0603901073336601,-3.456695556640625,-95.88723754882812,-257.5341796875
1699734374,-1.7405804443359376,9.07906997680664,0.19878662109375,0.4204340279102325,0.044297955930233,0.0614162236452102,-3.312652587890625,-95.50382995605467,-258.1519775390625
1699734374,-1.919608154296875,9.27680877685547,-0.152083740234375,0.3090393245220184,0.1257118582725525,0.0686288625001907,-2.989532470703125,-95.71939086914062,-258.9031677246094
1699734374,-2.1800665283203124,9.425150299072264,-0.4364923095703125,0.2349677681922912,0.1649548709392547,0.0834091380238533,-3.34228515625,-95.51539611816406,-259.12017822265625
1699734374,-2.398761749267578,9.503736877441408,-0.4441264343261719,0.2055222690105438,0.158098816871643,0.1179878860712051,-3.222152709960937,-95.55337524414062,-258.894775390625
1699734374,-2.645897827148437,9.504635009765623,-0.4122427368164063,0.2071252167224884,0.1060276329517364,0.160004049539566,-3.1319122314453125,-95.27972412109376,-259.48419189453125
1699734374,-2.991229705810547,9.563163299560548,-0.4231700134277344,0.2158257663249969,0.0336309298872947,0.1944744139909744,-2.7220458984375,-95.05305480957033,-259.70684814453125
1699734374,-3.273542633056641,9.704319763183594,-0.40954833984375,0.2174257934093475,-0.0570949763059616,0.2037142515182495,-2.533843994140625,-95.10554504394533,-260.1357421875
1699734374,-3.420686645507813,9.90535171508789,-0.4746629333496094,0.2280185222625732,-0.1479836106300354,0.1854569464921951,-2.45062255859375,-94.93374633789062,-260.06414794921875
1699734374,-3.460503845214844,10.080936584472656,-0.5013075256347657,0.2476489394903183,-0.2420461922883987,0.138279840350151,-2.0829315185546875,-94.8124542236328,-260.40484619140625
1699734374,-3.369493103027344,10.396929473876954,-0.5318440246582031,0.2786087393760681,-0.3358677625656128,0.0645334497094154,-2.0591278076171875,-94.78981018066406,-260.6024169921875
1699734374,-3.184926910400391,10.902727661132811,-0.5477110290527344,0.2971110343933105,-0.4089531600475311,-0.0027510453946888,-2.135345458984375,-94.77117919921876,-260.99041748046875
1699734374,-2.96308822631836,11.513008575439454,-0.6301895141601562,0.3049769401550293,-0.4462030529975891,-0.0588207058608531,-2.016586303710937,-94.54582214355467,-260.99920654296875
1699734374,-2.71834716796875,12.040062561035157,-0.6252497863769532,0.3171683549880981,-0.4177407920360565,-0.0918361768126487,-1.934417724609375,-94.26515197753906,-261.444580078125
1699734374,-2.5680596923828127,12.537627868652343,-0.4569996643066406,0.3262374997138977,-0.3231362402439117,-0.097149983048439,-1.9080352783203125,-94.14340209960938,-261.10333251953125
1699734374,-2.552791442871094,13.0241162109375,-0.2115101623535156,0.3405732810497284,-0.1592583656311035,-0.0901336222887039,-2.0206756591796875,-94.36495971679688,-261.35906982421875
1699734374,-2.6542803955078127,13.455818481445313,-0.0182620239257812,0.3262673318386078,0.0379082337021827,-0.0801670104265213,-1.9089813232421875,-94.38238525390624,-262.1214294433594
1699734374,-2.7764263916015626,13.906231842041016,-0.0462538146972656,0.2512215673923492,0.2386855483055114,-0.0709189176559448,-1.784027099609375,-94.00006103515624,-262.7221984863281
1699734374,-2.882106628417969,14.334790649414064,-0.2695893859863281,0.1228343099355697,0.4066183567047119,-0.0629874840378761,-1.5074310302734375,-94.20278930664062,-261.9447021484375
1699734375,-2.90081771850586,14.666949920654298,-0.5406756591796875,-0.064645305275917,0.5039310455322266,-0.0479872338473796,-1.6397552490234375,-94.28515625,-262.6288146972656
1699734375,-2.8770172119140627,14.926959228515626,-0.8940907287597657,-0.2883641421794891,0.4843834638595581,-0.0226195584982633,-1.781585693359375,-94.3019561767578,-262.7757568359375
1699734375,-2.823428649902344,14.997312927246094,-1.256038055419922,-0.5254600644111633,0.3135935962200165,0.0240637902170419,-1.497650146484375,-94.02937316894533,-262.65679931640625
1699734375,-2.753074951171876,14.832056579589844,-1.5564633178710938,-0.6992965340614319,0.0152186341583728,0.0571341253817081,-1.508514404296875,-94.55633544921876,-262.1383056640625
1699734375,-2.492167510986328,14.387481079101564,-1.5281721496582032,-0.7708578109741211,-0.3231557011604309,0.0556747131049633,-1.1126861572265625,-94.24105834960938,-262.5196533203125
1699734375,-2.207010498046875,14.128070526123048,-1.1323951721191408,-0.7739266157150269,-0.6436953544616699,0.0289408378303051,-1.027679443359375,-94.60194396972656,-261.99658203125
1699734375,-1.920206909179688,14.03676040649414,-0.6417155456542969,-0.7985264658927917,-0.8696315288543701,-0.0062789348885416,-0.477203369140625,-94.57893371582033,-260.5585021972656
1699734375,-1.625170440673828,13.731694793701172,-0.1392105102539062,-0.9266958832740784,-0.944201111793518,-0.0369367115199565,-0.1905517578125,-94.49395751953124,-259.94097900390625
1699734375,-1.3142669677734375,13.135634307861327,0.4546046447753906,-1.1872907876968384,-0.8707026839256287,-0.0788258388638496,-0.0395050048828125,-94.86293029785156,-259.0619506835937
1699734375,-0.9352551269531252,12.3343505859375,1.0822494506835938,-1.5506012439727783,-0.6671950817108154,-0.1336257010698318,0.376373291015625,-94.76402282714844,-258.01837158203125
1699734375,-0.5774990844726563,11.343411254882811,1.7103433227539064,-1.92358148097992,-0.367118626832962,-0.2082035392522812,0.499755859375,-94.56333923339844,-256.94354248046875
1699734375,-0.3020718383789063,10.430160369873049,2.384092254638672,-2.2269949913024902,0.0120777022093534,-0.2986836433410644,0.3780670166015625,-94.91854858398438,-255.46340942382807
1699734375,-0.1411564636230468,10.0782421875,3.0400282287597657,-2.43869948387146,0.4503679573535919,-0.4092844426631927,1.0186767578125,-95.23146057128906,-253.5708923339844
1699734375,-0.0892144775390625,10.504405975341797,3.504811706542969,-2.603046417236328,0.96056467294693,-0.5234522819519043,0.625091552734375,-95.548828125,-251.9068603515625
1699734375,-0.3435356140136719,11.347901916503908,3.643722839355469,-2.7773404121398926,1.5475975275039673,-0.6209889650344849,0.755157470703125,-95.48298645019533,-250.049545288086
1699734375,-1.0958711242675785,11.906240844726565,3.397484893798828,-2.999732732772827,2.078608989715576,-0.7344601154327393,0.416412353515625,-96.31703186035156,-248.28170776367188
1699734375,-1.8276992797851563,12.053983612060549,2.6900559997558595,-3.2118916511535645,2.393504858016968,-0.9269166588783264,-0.0877838134765625,-96.58224487304688,-246.24822998046875
1699734375,-2.1643492126464845,11.851903839111328,1.7080979919433594,-3.3070764541625977,2.497885227203369,-1.1735621690750122,-0.6411285400390625,-97.35183715820312,-243.90760803222656
1699734375,-2.2529649353027343,11.438463592529295,1.0159373474121094,-3.2135372161865234,2.34928297996521,-1.3728805780410769,-1.2687530517578125,-98.39353942871094,-241.41653442382807
1699734375,-2.3905288696289064,11.123817901611329,0.628692626953125,-2.901618480682373,1.9319672584533687,-1.464526891708374,-2.6371307373046875,-99.40055847167967,-239.48716735839844
1699734375,-2.535876617431641,10.897937622070312,0.3483256530761719,-2.451808452606201,1.4193503856658936,-1.4542877674102783,-4.05401611328125,-100.45867919921876,-236.94248962402344
1699734375,-2.3810984802246096,10.778935089111329,0.2332150268554687,-2.0024800300598145,0.9675290584564208,-1.3342807292938232,-5.064361572265625,-101.90957641601562,-235.3351287841797
1699734375,-1.9725979614257807,10.568323059082031,0.1824705505371094,-1.7003450393676758,0.6454522609710693,-1.1161284446716309,-5.7802734375,-102.60418701171876,-233.5625457763672
1699734375,-1.3832734680175782,10.214458923339844,0.0799337768554687,-1.5743329524993896,0.4021029770374298,-0.875916063785553,-6.6495361328125,-103.39901733398438,-232.2588348388672
1699734375,-0.830922088623047,9.779014434814451,-0.1306782531738281,-1.626354098320007,0.1950384676456451,-0.6932418942451477,-7.3914794921875,-104.43389892578124,-230.7992248535156
1699734375,-0.3737727355957031,9.441616058349611,-0.2432441711425781,-1.8084546327590945,0.0280223134905099,-0.6038792133331299,-7.8374176025390625,-105.21682739257812,-229.7521514892578
1699734375,-0.0556842041015625,9.15331558227539,-0.1612147521972656,-2.015564441680908,-0.1335285007953643,-0.6356241106987,-7.529983520507812,-106.11007690429688,-228.6976318359375
1699734375,0.0161663818359375,8.868158569335938,0.0727487182617187,-2.174560070037842,-0.2813525795936584,-0.7475647330284119,-7.6921234130859375,-107.33604431152344,-227.34246826171875
1699734375,-0.1733395385742187,8.64078140258789,0.5313949584960938,-2.3180153369903564,-0.3816227316856384,-0.884056568145752,-7.660003662109375,-108.4103546142578,-225.9658966064453
1699734375,-0.6120771789550782,8.343200225830078,1.270408172607422,-2.442211866378784,-0.4378023743629455,-1.0266720056533811,-7.8988037109375,-109.59080505371094,-224.5151824951172
1699734375,-1.2479548645019531,7.97586410522461,2.354453887939453,-2.509992837905884,-0.4946227669715881,-1.1528947353363037,-7.930816650390625,-111.05902099609376,-223.26747131347656
1699734375,-2.035616912841797,7.777676239013672,3.643872528076172,-2.4561824798583984,-0.4939466118812561,-1.2382346391677856,-7.789688110351562,-112.5611572265625,-220.8616180419922
1699734375,-2.6957441711425782,7.503745880126954,4.938679962158203,-2.2845304012298584,-0.4275630414485931,-1.2704695463180542,-7.932586669921875,-113.97346496582033,-219.54800415039065
1699734375,-3.103496246337891,7.18550765991211,5.5570440673828125,-2.0290770530700684,-0.3631742000579834,-1.288666605949402,-7.966995239257812,-115.97068786621094,-217.39093017578125
1699734375,-3.1353799438476564,6.942263488769532,5.119204559326172,-1.743976593017578,-0.3181715905666351,-1.3120042085647583,-7.514007568359375,-117.46722412109376,-216.65440368652344
1699734375,-2.8517198181152343,6.780599670410156,4.097429351806641,-1.483275294303894,-0.3114486932754516,-1.3278523683547974,-7.9274749755859375,-119.14035034179688,-215.43927001953125
1699734375,-2.3809487915039065,6.429878997802735,2.9424311828613283,-1.2708005905151367,-0.2972721457481384,-1.2935476303100586,-8.299362182617188,-120.2346649169922,-214.65701293945312
1699734375,-2.062411193847656,5.987099761962891,1.9684066772460933,-1.1294082403182983,-0.2993052303791046,-1.2036463022232056,-7.829971313476562,-121.4169921875,-214.23391723632807
1699734375,-1.900747375488281,5.509443054199219,1.2338841247558594,-1.071589708328247,-0.3339601457118988,-1.0875213146209717,-7.8437347412109375,-122.59649658203124,-212.971923828125
1699734375,-1.7821939086914065,5.1536329650878905,0.8434959411621095,-1.1135389804840088,-0.4322164058685303,-0.9779353737831116,-7.80609130859375,-123.66500854492188,-212.7953948974609
1699734375,-1.6278648376464844,4.92416015625,0.5801934814453126,-1.215706706047058,-0.5535252690315247,-0.8844184875488281,-8.105316162109375,-124.87461853027344,-212.10337829589844
1699734375,-1.4482383728027344,4.7222300720214845,0.5367837524414063,-1.3075095415115356,-0.6126447319984436,-0.8180921673774719,-7.80950927734375,-125.95957946777344,-211.43310546875
1699734375,-1.2612771606445312,4.523144073486328,0.9819580078125,-1.3430556058883667,-0.6372222900390625,-0.7800108194351196,-7.5437469482421875,-126.81698608398438,-210.6734161376953
1699734375,-1.088536376953125,4.251608734130859,1.5666421508789063,-1.282383680343628,-0.6974536776542664,-0.7467343807220459,-7.113922119140625,-127.8591766357422,-209.873046875
1699734375,-1.0303074645996095,3.8679565429687504,2.2495220947265624,-1.0865100622177124,-0.8167288899421692,-0.6811263561248779,-6.296173095703125,-128.82101440429688,-209.4514312744141
1699734375,-1.2070898437500002,3.313060455322266,3.2988400268554687,-0.7476305365562439,-0.9568727016448976,-0.5729191899299622,-6.2533721923828125,-129.69186401367188,-208.9608154296875
1699734375,-1.562600555419922,2.7364595031738284,4.431085510253906,-0.3803529441356659,-1.0162700414657593,-0.4380095601081848,-5.6332855224609375,-130.89065551757812,-208.6593017578125
1699734375,-1.9974462890625,2.416275329589844,4.9002099609375005,-0.0596212521195411,-0.9592085480690002,-0.2800534963607788,-5.429595947265625,-131.33538818359375,-207.7205352783203
1699734375,-2.3080503845214846,2.339485015869141,4.898114318847656,0.1932858377695083,-0.818687379360199,-0.1338558048009872,-4.414474487304688,-131.658447265625,-208.06417846679688
1699734375,-2.292183380126953,2.509830780029297,4.89586898803711,0.4028627574443817,-0.6266385912895203,-0.0360751785337924,-3.680923461914064,-131.6437530517578,-207.18853759765625
1699734375,-2.111060028076172,2.980901184082031,5.077142028808594,0.5640111565589905,-0.4059816002845764,0.0325174629688262,-3.097900390625,-131.79991149902344,-207.4179229736328
1699734375,-2.2230271911621093,3.494183807373047,5.250780944824219,0.6586271524429321,-0.1657152026891708,0.0833337754011154,-2.5298004150390625,-131.36358642578125,-207.36300659179688
1699734375,-2.639910278320313,3.8483473205566407,5.200635223388672,0.7075569033622742,0.1088290140032768,0.1128562465310096,-2.2649383544921875,-130.8651123046875,-207.1229553222656
1699734375,-2.981649627685547,4.0848554992675785,5.033881988525391,0.7582477331161499,0.457824558019638,0.130269855260849,-1.871002197265625,-130.38803100585938,-207.2190704345703
1699734375,-3.203937377929688,4.166735229492188,5.044659576416016,0.8445139527320862,0.8877375721931458,0.1450112462043762,-1.668914794921875,-129.9986114501953,-206.8542938232422
1699734375,-3.336860961914063,4.1288639831542975,5.294939117431641,0.9853736162185668,1.3172301054000854,0.1372393518686294,-1.76788330078125,-129.18133544921875,-207.1659393310547
1699734375,-3.4084121704101564,4.205654296875,5.6326368713378905,1.2097550630569458,1.6970165967941284,0.108830340206623,-2.23516845703125,-128.37005615234375,-207.2659149169922
1699734375,-3.507356414794922,4.544399871826172,6.02197723388672,1.4626080989837646,2.0478343963623047,0.088108018040657,-2.8785858154296875,-127.88055419921876,-207.2142944335937
1699734375,-3.8862185668945313,5.087919616699219,6.785240020751954,1.6691631078720093,2.5510246753692627,0.0817483887076377,-3.79815673828125,-126.94761657714844,-208.2470092773437
1699734375,-4.556225280761719,5.849535827636719,8.127349090576173,1.854094624519348,3.299694538116455,0.067228302359581,-4.8908233642578125,-125.62039184570312,-208.59060668945312
1699734375,-5.076692962646485,6.845564575195313,8.786428527832031,2.003637313842773,3.834073543548584,0.1116940379142761,-5.940200805664063,-124.75982666015624,-210.1735382080078
1699734375,-5.165757751464844,7.936346282958985,7.62813720703125,1.9276481866836548,3.516953229904175,0.3281179666519165,-8.432540893554688,-123.23573303222656,-210.9800720214844
1699734375,-5.251379699707032,9.494306488037113,5.9745259094238286,1.568789839744568,2.504932641983032,0.6048973798751831,-10.17529296875,-122.25230407714844,-212.708740234375
1699734375,-6.46460678100586,11.522588653564451,5.03238510131836,1.318756937980652,1.3180111646652222,0.6239914298057556,-11.548583984375,-120.6956024169922,-213.62454223632807
1699734375,-8.081244964599609,13.0432763671875,2.9449758911132813,1.3086291551589966,0.2468553185462951,0.3175055384635925,-12.088775634765623,-119.36834716796876,-214.74221801757807
1699734375,-8.870852966308593,14.109808502197266,0.2116598510742187,0.9868420362472534,-0.2488787919282913,-0.0935296863317489,-12.772171020507812,-118.50033569335938,-214.7053985595703
1699734375,-9.610914001464844,15.725398864746095,1.1765533447265626,0.4863078594207763,-0.1857315152883529,-0.1803969442844391,-12.666778564453123,-117.7025146484375,-215.7416839599609
1699734375,-10.53988220214844,16.367264099121094,3.440595245361328,0.421854555606842,0.0555109307169914,0.2364101409912109,-12.1126708984375,-117.66348266601562,-215.90269470214844
1699734375,-11.085347900390625,13.968951416015626,5.216801605224609,0.6842025518417358,0.2288568764925003,0.7691249251365662,-11.646270751953123,-117.2060546875,-215.65054321289065
1699734375,-9.935289459228516,10.237510986328124,6.503825225830078,0.9904258847236632,0.1788302063941955,1.0907769203186035,-11.447601318359377,-116.72607421875,-215.9904937744141
1699734375,-6.304589538574219,7.822133789062501,5.933660888671875,1.1918601989746094,-0.0083082634955644,1.2752439975738523,-10.55401611328125,-116.50238037109376,-215.97984313964844
1699734375,-3.3235386657714847,6.709796905517578,4.266278228759766,1.2326995134353638,-0.1778794527053833,1.4398308992385864,-10.091400146484377,-115.98405456542967,-216.7516021728516
1699734375,-1.955832824707032,5.861959991455079,2.8292665100097656,1.174708604812622,-0.2850019037723541,1.6065503358840942,-9.32659912109375,-115.16055297851562,-217.3823699951172
1699734375,-1.239422607421875,5.225483551025391,1.7188755798339843,1.047366976737976,-0.3288332819938659,1.7568751573562622,-7.991561889648437,-114.74224853515624,-217.63755798339844
1699734375,-0.7903564453125,4.866979064941407,1.0761122131347656,0.8995324373245239,-0.3478487730026245,1.8512929677963257,-6.7708282470703125,-114.2636260986328,-218.2096099853516
1699734375,-0.4737648010253906,4.960684204101563,0.6929090881347657,0.7719781994819641,-0.3834267556667328,1.838492512702942,-5.80810546875,-113.41407775878906,-218.99972534179688
1699734375,-0.2098635864257812,5.681585083007813,0.4808001708984375,0.7286270260810852,-0.421856164932251,1.6900838613510132,-4.1496429443359375,-112.99276733398438,-219.1616973876953
1699734375,-0.1074765014648437,7.05138656616211,0.6002517700195312,0.7866005897521973,-0.3972485661506653,1.42902672290802,-3.009796142578125,-112.12852478027344,-219.10452270507807
1699734375,-0.4673281860351563,9.0578141784668,1.0594967651367189,0.9406404495239258,-0.1931473612785339,1.1018378734588623,-1.615570068359375,-112.0522003173828,-219.44325256347656
1699734375,-1.366208953857422,11.286679229736327,1.9260447692871088,1.138550043106079,0.1991852670907974,0.7511387467384338,-0.4306793212890625,-111.07981872558594,-219.4569396972656
1699734375,-2.6035359191894534,13.30717758178711,2.7488836669921874,1.2833293676376345,0.6027598977088928,0.4616869390010834,0.24609375,-110.9403076171875,-219.58973693847656
1699734375,-3.943249969482422,14.585519256591798,2.7101142883300784,1.3264265060424805,0.7975927591323853,0.3348046243190765,0.888641357421875,-110.20475769042967,-220.8820953369141
1699734375,-5.131179656982422,14.61575637817383,1.657353515625,1.274295687675476,0.7269430756568909,0.3732982277870178,0.8197784423828125,-110.1060791015625,-221.4478454589844
1699734375,-5.89219711303711,13.497731323242188,0.4722679138183594,1.2278897762298584,0.5568062663078308,0.4650896489620209,0.851959228515625,-109.10920715332033,-222.3350067138672
1699734375,-5.864355010986328,11.575279083251951,0.302969970703125,1.2439508438110352,0.4508145749568939,0.5080466866493225,1.1925506591796875,-109.07943725585938,-222.8182983398437
1699734375,-5.236859893798829,9.590855712890626,0.939895477294922,1.2652875185012815,0.3454332947731018,0.523913562297821,1.0394287109375,-108.45144653320312,-223.5165863037109
1699734375,-4.549339599609375,8.095166015625,1.2183164978027343,1.2410277128219604,0.1263760477304458,0.5429498553276062,1.5096282958984375,-108.06678771972656,-224.5176239013672
1699734375,-3.880829772949219,7.2473291015625,0.871787109375,1.1682448387145996,-0.2297772765159607,0.5954002737998962,1.69384765625,-108.0270538330078,-225.65646362304688
1699734375,-3.2430061340332035,6.988966369628907,0.3373983764648438,1.095493197441101,-0.603796660900116,0.6733344793319702,2.4600372314453125,-107.15048217773438,-226.6169586181641
1699734375,-2.6931994628906253,7.199877777099609,0.1440005493164062,1.0578136444091797,-0.877258837223053,0.7538125514984131,2.8678741455078125,-106.99603271484376,-227.6314849853516
1699734375,-2.1701870727539063,7.780819702148438,0.3240760803222656,1.086254358291626,-1.0508357286453247,0.8038280606269836,3.494140625,-106.57945251464844,-228.32962036132807
1699734375,-1.716929626464844,8.637039184570312,0.5164260864257812,1.157740354537964,-1.1268662214279177,0.815316379070282,4.3734283447265625,-106.44580078125,-229.03868103027344
1699734375,-1.394949188232422,9.46362030029297,0.7664062500000001,1.2420040369033811,-1.1171913146972656,0.8246023058891296,5.7486419677734375,-106.16903686523438,-229.31802368164065
1699734375,-1.3555810546875,9.952803039550782,0.9154962158203126,1.3122183084487915,-1.0618078708648682,0.8360309600830078,6.5687255859375,-105.9449462890625,-230.78570556640625
1699734375,-1.5670912170410156,10.027497711181642,0.737666015625,1.3562408685684204,-0.9975993633270264,0.8554616570472717,7.594131469726562,-105.8792724609375,-231.30911254882807
1699734375,-1.8761984252929689,9.723779296875,0.3501219177246094,1.364865779876709,-0.9544260501861572,0.8660328388214111,8.750289916992188,-105.50032043457033,-232.1720733642578
1699734375,-2.1538710021972656,9.327702941894533,-0.0128732299804687,1.349482536315918,-0.9406412839889526,0.8698315620422363,9.510910034179688,-104.81723022460938,-232.8934936523437
1699734375,-2.330204315185547,8.870104522705077,-0.1851649475097656,1.348204493522644,-0.9294823408126832,0.8702179789543152,10.519546508789062,-104.54035949707033,-234.24560546875
1699734375,-2.4264541625976563,8.260721740722657,-0.0073347473144531,1.3497145175933838,-0.8921070098876953,0.8710384964942932,11.078033447265623,-104.06901550292967,-235.68087768554688
