timestamp,acc-x,acc-y,acc-z,gyr-x,gyr-y,gyr-z,mag-x,mag-y,mag-z
1700075385,0.6528167724609375,0.1279296875,0.11248779296875,0.0205010138452053,1.5658044815063477,-3.1716020107269287,96.81573486328124,-56.96275329589844,255.0975646972656
1700075385,0.6949310302734375,0.2108612060546875,0.1981201171875,0.139498233795166,1.3892475366592407,-3.4562432765960693,96.82164001464844,-57.077972412109375,255.2321319580078
1700075385,0.7512664794921875,0.2585296630859375,0.2823486328125,0.348404049873352,1.2129652500152588,-3.7111289501190186,97.02291870117188,-56.78659057617188,255.0783233642578
1700075385,0.813323974609375,0.25921630859375,0.333526611328125,0.5651710033416748,1.0434603691101074,-3.908818483352661,96.57981872558594,-56.59078979492188,255.2657623291016
1700075385,0.86962890625,0.25567626953125,0.3684539794921875,0.7276709675788879,0.8808937668800354,-4.027052879333496,96.78787231445312,-56.188385009765625,255.03472900390625
1700075385,0.9177703857421876,0.26983642578125,0.387054443359375,0.8320626020431519,0.6922309398651123,-4.091963291168213,96.63467407226562,-56.1405029296875,255.6649169921875
1700075385,0.97760009765625,0.286529541015625,0.403778076171875,0.8692184686660767,0.483797550201416,-4.112075805664063,95.80625915527344,-55.35111999511719,254.638412475586
1700075385,1.034149169921875,0.313751220703125,0.417022705078125,0.8571599721908569,0.2803381681442261,-4.100863933563232,96.16525268554688,-54.954498291015625,254.96011352539065
1700075385,1.064727783203125,0.3600311279296875,0.4143829345703125,0.855653703212738,0.0811249464750289,-4.123315334320068,95.99252319335938,-54.897003173828125,254.5267944335937
1700075385,1.0996246337890625,0.3830108642578125,0.4077911376953125,0.865746021270752,-0.1173604503273963,-4.1979498863220215,95.55258178710938,-54.23550415039063,254.234375
1700075385,1.15545654296875,0.385589599609375,0.3653564453125,0.8579450845718384,-0.3043050467967987,-4.303294658660889,94.88125610351562,-53.74365234375,254.54800415039065
1700075385,1.2061309814453125,0.378692626953125,0.3076171875,0.8297645449638367,-0.4636190533638,-4.427594661712647,94.56655883789062,-53.150421142578125,253.9794464111328
1700075385,1.2485198974609375,0.3592529296875,0.2640380859375,0.8325981497764587,-0.5938583016395569,-4.532637596130371,94.2703857421875,-52.60250854492188,253.6065826416016
1700075385,1.27703857421875,0.333251953125,0.2444305419921875,0.9186835289001464,-0.6788375973701477,-4.577678680419922,93.93196105957033,-51.93746948242188,253.02017211914065
1700075385,1.3109283447265625,0.3177642822265625,0.2094573974609375,1.1065304279327393,-0.7556077837944031,-4.580249309539795,93.73347473144533,-51.59439086914063,253.30279541015625
1700075385,1.3621826171875,0.317291259765625,0.1667633056640625,1.2684096097946167,-0.8335608839988708,-4.581601619720459,93.12937927246094,-50.67262268066406,253.5725860595703
1700075385,1.4115753173828125,0.3251953125,0.1130523681640625,1.3444372415542605,-0.8628444671630859,-4.577854156494141,92.56381225585938,-49.889190673828125,253.1222381591797
1700075385,1.4076385498046875,0.3450927734375,0.040191650390625,1.4560564756393433,-0.8417983055114746,-4.543871879577637,91.72911071777344,-49.47628784179688,252.8420562744141
1700075385,1.3838043212890625,0.3852691650390625,0.004150390625,1.693172574043274,-0.8182216286659241,-4.484095096588135,91.43376159667967,-48.88737487792969,252.7019958496093
1700075385,1.3910369873046875,0.45025634765625,-0.00262451171875,2.088778495788574,-0.7768709659576416,-4.42056131362915,91.23255920410156,-48.26397705078125,252.06134033203125
1700075385,1.423065185546875,0.5369720458984375,-0.0339508056640625,2.4655890464782715,-0.7375653982162476,-4.430871963500977,90.2686767578125,-47.43975830078125,252.1001892089844
1700075385,1.49578857421875,0.5855712890625,-0.123138427734375,2.6190185546875,-0.7250967621803284,-4.485845565795898,89.59574890136719,-46.71376037597656,252.12408447265625
1700075385,1.5535888671875,0.6125640869140625,-0.2083587646484375,2.668332815170288,-0.792686939239502,-4.482106685638428,88.8558349609375,-45.71485900878906,252.0121307373047
1700075385,1.5306396484375,0.6069793701171875,-0.1909637451171875,2.719531297683716,-0.85916668176651,-4.322726726531982,87.86610412597656,-45.16743469238281,252.714599609375
1700075385,1.439971923828125,0.555084228515625,-0.092041015625,2.8643198013305664,-0.9238481521606444,-3.989220380783081,87.67645263671875,-44.604736328125,251.76773071289065
1700075385,1.3106536865234375,0.5092010498046875,-0.0010986328125,2.9796297550201416,-0.9983549118041992,-3.635845184326172,86.35281372070312,-44.09751892089844,251.2481384277344
1700075385,1.2129669189453125,0.4706268310546875,0.0341949462890625,2.8837153911590576,-1.0257165431976318,-3.353501796722412,85.56636047363281,-43.177642822265625,251.1434783935547
1700075385,1.1709747314453125,0.4527435302734375,-0.0290985107421875,2.638802051544189,-1.0308020114898682,-3.070810317993164,85.01396179199219,-42.64710998535156,251.6746368408203
1700075385,1.1450958251953125,0.4672698974609375,-0.0890350341796875,2.307839870452881,-1.0010052919387815,-2.7360026836395264,84.30801391601562,-41.62106323242188,251.8074188232422
1700075385,1.0900421142578125,0.454742431640625,-0.1352691650390625,1.9807579517364504,-0.9232921004295348,-2.340690851211548,83.23405456542969,-40.78007507324219,251.8485870361328
1700075385,0.9700927734375,0.4282073974609375,-0.19329833984375,1.667628288269043,-0.8015995025634766,-1.9033186435699463,82.42926025390625,-40.292510986328125,252.2932586669922
1700075385,0.850128173828125,0.4242706298828125,-0.227325439453125,1.2850769758224487,-0.724079966545105,-1.448451280593872,81.68853759765625,-39.39155578613281,252.003646850586
1700075385,0.77825927734375,0.429840087890625,-0.265472412109375,0.8892446756362915,-0.6249752044677734,-1.0024535655975342,80.9453125,-38.913665771484375,251.60606384277344
1700075385,0.7409820556640625,0.4233245849609375,-0.2979736328125,0.4718383848667145,-0.5058543682098389,-0.5310660004615784,79.89128112792969,-38.18116760253906,251.9111175537109
1700075385,0.707794189453125,0.4581146240234375,-0.3692474365234375,0.1460600048303604,-0.382663756608963,-0.0832642614841461,79.09477233886719,-37.8431396484375,251.9158172607422
1700075385,0.722900390625,0.51995849609375,-0.413299560546875,-0.0117634488269686,-0.2753919064998626,0.3015252351760864,78.486572265625,-37.60040283203125,252.5310516357422
1700075385,0.745391845703125,0.589080810546875,-0.41400146484375,-0.0307025182992219,-0.0358964800834655,0.5252075791358948,78.13877868652344,-36.83856201171875,252.649658203125
1700075385,0.75372314453125,0.572021484375,-0.459136962890625,-0.0091998903080821,0.1480786800384521,1.0289777517318726,77.876953125,-36.45620727539063,252.49107360839844
1700075385,0.6329345703125,0.7116546630859375,-0.478912353515625,0.1304895728826522,0.0583149716258049,1.3753008842468262,77.31890869140625,-36.67985534667969,252.5836944580078
1700075385,0.7424163818359375,0.733856201171875,-0.3100128173828125,0.393759548664093,-0.4051336348056793,0.5786428451538086,77.08125305175781,-36.38716125488281,251.7337341308593
1700075385,1.5200653076171875,-0.2237701416015625,0.3617095947265625,0.4772177040576935,-0.24583800137043,-1.1212395429611206,76.90176391601562,-36.68809509277344,251.3531494140625
1700075385,2.1435546875,-1.540069580078125,0.7346649169921875,-0.3489377498626709,0.4306744337081909,-0.8464599251747131,77.33673095703125,-36.81948852539063,251.79042053222656
1700075385,1.5117645263671875,-1.2606048583984375,0.0783233642578125,-1.479776382446289,0.8462798595428467,1.767048954963684,77.88154602050781,-37.195404052734375,251.8758850097656
1700075385,1.147369384765625,0.117706298828125,-0.7336883544921875,-0.7726594805717468,0.8091048002243042,2.583514451980591,78.64839172363281,-37.63494873046875,252.40625
1700075385,1.87652587890625,-0.3544464111328125,-0.4701080322265625,-0.8998752236366272,0.3963215053081512,2.334975242614746,79.34945678710938,-38.14253234863281,251.8631286621093
1700075385,1.6034088134765625,-0.67413330078125,-0.5048828125,-1.436824917793274,0.113764651119709,2.096346616744995,80.62673950195312,-39.00755310058594,252.0390167236328
1700075385,0.651275634765625,-0.2051849365234375,-0.5258636474609375,-1.6507459878921509,0.1913217604160308,1.51227867603302,81.73556518554688,-40.212005615234375,252.01258850097656
1700075386,0.3371734619140625,-0.1694183349609375,-0.400299072265625,-1.2348417043685913,0.4781945347785949,1.2103246450424194,82.94822692871094,-41.42991638183594,251.8085021972656
1700075386,0.32513427734375,-0.055908203125,-0.344146728515625,-0.6266769766807556,0.4712737798690796,1.2038893699645996,84.0430908203125,-42.648956298828125,251.1347045898437
1700075386,0.7270355224609375,0.0597076416015625,-0.3511810302734375,0.1474863886833191,0.2301277369260788,1.1952458620071411,85.23487854003906,-43.92254638671875,251.045150756836
1700075386,1.1122283935546875,0.1048583984375,-0.367584228515625,0.7961557507514954,0.083737775683403,1.1183228492736816,86.33639526367188,-45.69999694824219,250.5849456787109
1700075386,1.2117767333984375,0.1640625,-0.37005615234375,1.1036988496780396,0.0325872376561164,0.9990074038505554,87.3646240234375,-47.21089172363281,250.5392608642578
1700075386,1.194061279296875,0.2342376708984375,-0.2828369140625,1.063075065612793,0.0283493492752313,0.8034229874610901,88.5914306640625,-49.01422119140625,250.5799560546875
1700075386,1.1570281982421875,0.2525482177734375,-0.233734130859375,0.8118556141853333,0.0694179534912109,0.5375058054924011,89.71234130859375,-50.35670471191406,250.599365234375
1700075386,1.0794677734375,0.1784210205078125,-0.2718353271484375,0.6128969788551331,0.1129185631871223,0.3570007383823395,90.59185791015624,-52.07069396972656,251.1634826660156
1700075386,0.9932403564453124,0.0233001708984375,-0.2484588623046875,0.4400796294212341,0.1369487941265106,0.3215495347976684,91.7361297607422,-53.60299682617188,251.51885986328125
1700075386,0.9418792724609376,-0.1312255859375,-0.2177734375,0.22349514067173,0.1380390971899032,0.3893152773380279,92.4646453857422,-55.230987548828125,252.39859008789065
1700075386,0.933868408203125,-0.233123779296875,-0.23809814453125,0.0799813866615295,0.1241552382707595,0.5062046051025391,92.82752990722656,-56.64579772949219,252.7039489746093
1700075386,0.9354705810546876,-0.2954254150390625,-0.2823028564453125,0.0717775151133537,0.0862203687429428,0.5949112772941589,93.68495178222656,-58.26896667480469,252.96609497070312
1700075386,0.927734375,-0.3134613037109375,-0.3407135009765625,0.1377125978469848,0.0322881639003753,0.6677919030189514,94.38778686523438,-59.45524597167969,253.36227416992188
1700075386,0.9095306396484376,-0.2376556396484375,-0.4179229736328125,0.2661818861961365,-0.0649331957101821,0.6606079936027527,95.03115844726562,-61.05946350097656,254.1373748779297
1700075386,0.9410858154296876,-0.1177520751953125,-0.422576904296875,0.3467755317687988,-0.143079400062561,0.5922276377677917,95.27236938476562,-62.22254943847656,254.400390625
1700075386,0.9981689453125,-0.0222930908203125,-0.3592071533203125,0.384686678647995,-0.1406013220548629,0.4826002120971679,95.48939514160156,-64.07034301757812,254.84912109375
1700075386,1.0245819091796875,0.01953125,-0.271514892578125,0.4063552320003509,-0.0700728297233581,0.3903722763061523,95.71649169921876,-65.38453674316406,255.0449676513672
1700075386,1.0036163330078125,-0.000335693359375,-0.225433349609375,0.4367847740650177,-0.0225870683789253,0.3587251305580139,96.102783203125,-67.01896667480469,255.0374298095703
1700075386,0.9565277099609376,-0.0427398681640625,-0.2384033203125,0.4529578983783722,-0.0245460886508226,0.3430700004100799,96.241943359375,-68.25039672851562,256.2891845703125
1700075386,0.95172119140625,-0.0887603759765625,-0.2753753662109375,0.4150280952453613,-0.0320809707045555,0.3571085929870605,96.1602783203125,-69.42259216308594,255.84112548828125
1700075386,0.9515533447265624,-0.111846923828125,-0.301239013671875,0.3391557037830353,-0.0532874576747417,0.3678129017353058,96.51492309570312,-70.69424438476562,256.6143493652344
1700075386,0.9551239013671876,-0.1357421875,-0.3153228759765625,0.2772246897220611,-0.079047679901123,0.3853607475757599,96.65510559082033,-71.60006713867188,256.4725952148437
1700075386,0.953704833984375,-0.1475677490234375,-0.3209991455078125,0.2604331970214844,-0.1042025685310363,0.409342497587204,96.6210479736328,-72.96548461914062,256.69403076171875
1700075386,0.942840576171875,-0.1196746826171875,-0.3213653564453125,0.3144966959953308,-0.1228870376944542,0.4153870940208435,96.51144409179688,-73.79762268066406,257.01861572265625
1700075386,0.956817626953125,-0.077545166015625,-0.3014068603515625,0.3945561051368713,-0.1250505894422531,0.3888795673847198,96.05702209472656,-74.42518615722656,257.4552001953125
1700075386,0.969482421875,-0.0424041748046875,-0.27130126953125,0.4693842828273773,-0.1045602336525917,0.3604654967784881,96.31999206542967,-75.03944396972656,257.1678466796875
1700075386,0.971923828125,-0.025634765625,-0.2484283447265625,0.4986116588115692,-0.0612854622304439,0.3455581963062286,95.6072235107422,-75.87989807128906,257.4381103515625
1700075386,0.9633026123046876,-0.0409393310546875,-0.2399749755859375,0.521973729133606,-0.0205406956374645,0.3738950192928314,95.7190399169922,-76.6767578125,256.8981628417969
1700075386,0.94012451171875,-0.0711669921875,-0.2467498779296875,0.510318398475647,0.0277818292379379,0.4230425953865051,95.29988098144533,-76.66152954101562,256.940673828125
1700075386,0.9329986572265624,-0.108184814453125,-0.277313232421875,0.4662627875804901,0.0493699461221694,0.4818566441535949,95.33059692382812,-77.05148315429688,256.73321533203125
1700075386,0.9308319091796876,-0.1461639404296875,-0.28558349609375,0.3707245290279388,0.0746998041868209,0.562780499458313,95.30499267578124,-77.07936096191406,256.667236328125
1700075386,0.9116363525390624,-0.180023193359375,-0.2779388427734375,0.2852674126625061,0.0974024534225463,0.6585786938667297,94.720947265625,-77.36015319824219,255.8060760498047
1700075386,0.8886260986328125,-0.218841552734375,-0.274139404296875,0.2306691706180572,0.1203458532691001,0.7769354581832886,94.30197143554688,-77.24809265136719,256.49920654296875
1700075386,0.8680419921875,-0.2461700439453125,-0.2719879150390625,0.1801442056894302,0.1652853637933731,0.9035344123840332,94.92765808105467,-77.15431213378906,255.53976440429688
1700075386,0.8692626953125,-0.242645263671875,-0.28582763671875,0.1944269984960556,0.1885824352502823,1.0287538766860962,94.51823425292967,-77.31608581542969,255.72174072265625
1700075386,0.8910675048828125,-0.2046051025390625,-0.2620391845703125,0.2151322811841964,0.2273482084274292,1.1611590385437012,94.61000061035156,-76.90678405761719,255.9891967773437
1700075386,0.9038238525390624,-0.119140625,-0.232940673828125,0.2406650781631469,0.2890355288982391,1.2386226654052734,94.30996704101562,-76.95463562011719,255.6229705810547
1700075386,0.9131927490234376,-0.0612335205078125,-0.19732666015625,0.2621706426143646,0.3832682967185974,1.288721203804016,93.83612060546876,-76.51606750488281,255.8335876464844
1700075386,0.919158935546875,-0.0475921630859375,-0.184722900390625,0.2969714999198913,0.4889664947986603,1.3734089136123655,93.79623413085938,-76.1673583984375,255.149642944336
1700075386,0.9040985107421876,-0.0569610595703125,-0.1680755615234375,0.3653164505958557,0.539603054523468,1.4501460790634155,93.51324462890624,-75.78121948242188,255.2682647705078
1700075386,0.89947509765625,-0.1051483154296875,-0.1379241943359375,0.3319225609302521,0.617687463760376,1.5383864641189575,93.71221923828124,-75.40167236328125,255.0688934326172
1700075386,0.8815765380859375,-0.126800537109375,-0.2354736328125,0.4039434790611267,0.6355996131896973,1.6139882802963257,93.38134765625,-75.09819030761719,255.3661499023437
1700075386,0.8624725341796875,-0.0746612548828125,-0.3099822998046875,0.5457914471626282,0.617015540599823,1.6175137758255005,93.06051635742188,-74.484375,255.3030700683593
1700075386,0.8777008056640625,0.050537109375,-0.351654052734375,0.6181042194366455,0.6257371306419373,1.5540860891342163,92.6913604736328,-73.9442138671875,255.2314300537109
1700075386,0.8979949951171875,0.220794677734375,-0.352386474609375,0.646905779838562,0.6525218486785889,1.4620267152786257,92.4340362548828,-73.35874938964844,254.2778778076172
1700075386,0.9201812744140624,0.37603759765625,-0.2973480224609375,0.565608024597168,0.763245701789856,1.3995252847671509,92.17822265625,-72.7901611328125,253.9097900390625
1700075386,0.9303131103515624,0.472686767578125,-0.28448486328125,0.736943781375885,0.8045353889465332,1.3732315301895142,91.03250122070312,-70.92721557617188,252.55079650878903
1700075386,0.9090423583984376,0.3985443115234375,-0.178009033203125,0.8901306986808777,0.9447638392448424,1.4393597841262815,91.39407348632812,-70.63432312011719,254.04644775390625
1700075386,0.91375732421875,0.1946563720703125,-0.1224517822265625,0.901241421699524,1.0844740867614746,1.5548309087753296,91.5939483642578,-70.7708740234375,254.2127685546875
1700075386,0.916839599609375,-0.095947265625,-0.109161376953125,0.7416141629219055,1.1493641138076782,1.751597285270691,91.12939453125,-70.12387084960938,254.4537048339844
1700075386,0.8494110107421875,-0.303619384765625,-0.2316131591796875,0.6651092767715454,1.1739842891693115,2.0393781661987305,90.62896728515624,-69.933837890625,254.0192413330078
1700075386,0.7772674560546875,-0.28875732421875,-0.549774169921875,0.7761311531066895,1.1026735305786133,2.1650707721710205,90.5142059326172,-69.954833984375,253.69940185546875
1700075386,0.8466949462890625,-0.1334228515625,-0.5883026123046875,0.6329572200775146,1.1369082927703855,2.226591110229492,90.36994934082033,-69.13455200195312,253.8140869140625
1700075386,0.929962158203125,0.2949676513671875,-0.4934539794921875,0.5727167725563049,1.2385892868041992,2.170140266418457,90.29058837890624,-69.12635803222656,253.6188507080078
1700075386,1.022613525390625,0.48846435546875,-0.3074951171875,0.9294378757476808,1.2954508066177368,2.081620693206787,89.77755737304688,-68.32554626464844,253.0451812744141
1700075386,0.97357177734375,0.404144287109375,-0.29327392578125,1.3059496879577637,1.3121415376663208,2.026306629180908,89.23175048828125,-68.24858093261719,252.25494384765625
1700075386,0.938690185546875,0.3003082275390625,-0.465179443359375,1.4554691314697266,1.2641512155532837,2.02930212020874,89.20271301269531,-68.13792419433594,251.97125244140625
1700075386,0.965850830078125,0.260833740234375,-0.5334930419921875,1.4740124940872192,1.2292405366897583,2.020286798477173,89.21269226074219,-68.02775573730469,252.39700317382807
1700075386,0.90423583984375,0.2085113525390625,-0.5247039794921875,1.473276138305664,1.1897565126419067,1.977777361869812,88.79269409179688,-67.82577514648438,252.7511138916016
1700075386,0.80303955078125,0.254150390625,-0.486541748046875,1.5539462566375732,1.147748947143555,1.8774787187576287,89.03884887695312,-67.00332641601562,252.6900634765625
1700075386,0.6334075927734375,0.375091552734375,-0.4773712158203125,1.5571616888046265,1.1145437955856323,1.896481156349182,89.0726318359375,-66.52890014648438,252.21861267089844
1700075386,0.5379638671875,0.6131591796875,-0.50115966796875,1.2869601249694824,0.9057410955429076,1.896554946899414,88.73696899414062,-65.85029602050781,252.00439453125
1700075386,0.695587158203125,0.8530731201171875,-0.412506103515625,0.9871438145637512,0.9607281684875488,2.0061166286468506,88.71165466308594,-65.80775451660156,251.9576568603516
1700075386,1.07867431640625,0.9568328857421876,-0.3203887939453125,0.7120914459228516,0.9708399176597596,2.1094717979431152,88.82112121582031,-65.54539489746094,251.75244140625
1700075386,1.3252410888671875,0.673126220703125,-0.3514862060546875,0.6352893710136414,1.015190839767456,2.323848485946656,88.65339660644531,-65.13224792480469,251.9393615722656
1700075386,1.807952880859375,0.336639404296875,-0.5373077392578125,0.8452638983726501,1.0002169609069824,2.7550764083862305,88.49919128417969,-65.30009460449219,251.78761291503903
1700075386,2.3029327392578125,0.04791259765625,-0.5694732666015625,1.095880389213562,0.9171399474143982,3.187597751617432,88.07749938964844,-65.00932312011719,251.78369140625
1700075386,2.28314208984375,-0.2382354736328125,-0.5977630615234375,1.3198152780532837,0.7772533893585205,3.457307815551758,88.34263610839844,-64.97897338867188,251.4640350341797
1700075386,2.122711181640625,-0.1453704833984375,-0.636749267578125,1.5929114818572998,0.6185532212257385,3.484949827194214,88.4080810546875,-64.94978332519531,251.9665069580078
1700075386,1.9058380126953125,0.0098876953125,-0.524749755859375,1.505990743637085,0.4316070675849914,3.2006618976593018,88.26292419433594,-64.87237548828125,251.6527862548828
1700075386,1.684814453125,0.057220458984375,-0.3690185546875,1.1993242502212524,0.201026052236557,2.8028724193573,88.24014282226562,-64.47384643554688,251.3744506835937
1700075386,1.3859100341796875,0.180206298828125,-0.2577972412109375,0.7487320303916931,0.0450950413942337,2.4264438152313232,88.53044128417969,-64.32862854003906,251.8462677001953
1700075386,0.990203857421875,0.33026123046875,-0.183746337890625,0.4031178951263428,-0.0088595375418663,2.0602169036865234,88.54742431640625,-64.34574890136719,251.0136108398437
1700075386,0.53314208984375,0.45733642578125,-0.1516876220703125,0.4105513095855713,-0.0555178523063659,1.6328774690628052,88.42559814453125,-64.17941284179688,251.9114532470703
1700075386,0.117401123046875,0.4518280029296875,-0.1810760498046875,0.6364994645118713,-0.0953587442636489,1.109605312347412,88.29716491699219,-64.41665649414062,251.7709808349609
1700075386,-0.1940765380859375,0.3012237548828125,-0.239898681640625,0.9097858667373656,-0.1390758603811264,0.6099749207496643,88.37599182128906,-64.34561157226562,252.4417266845703
1700075386,-0.3722381591796875,0.0762176513671875,-0.127899169921875,1.080120325088501,-0.2708426713943481,0.0276012681424617,88.42485046386719,-64.37956237792969,251.970703125
1700075386,-0.3928680419921875,-0.2399749755859375,0.0873565673828125,0.9390864968299866,-0.4038558602333069,-0.7146941423416138,88.03315734863281,-64.24217224121094,251.6374969482422
1700075386,-0.3421478271484375,-0.55352783203125,0.0714569091796875,0.459140419960022,-0.5170961022377014,-1.523268222808838,88.0257568359375,-64.0556640625,251.29611206054688
1700075386,-0.2732391357421875,-0.6800689697265625,-0.1668243408203125,-0.006336192600429,-0.6581187844276428,-2.2713429927825928,88.29855346679688,-64.09588623046875,252.26199340820312
1700075386,-0.1294708251953125,-0.6581268310546875,-0.3968658447265625,-0.2167437672615051,-0.7986668348312378,-2.7541251182556152,88.04643249511719,-63.935394287109375,251.76600646972656
1700075386,0.0471954345703125,-0.5241546630859375,-0.348419189453125,-0.3676342070102691,-0.7928001284599304,-3.0698401927948,88.13873291015625,-64.1287841796875,251.67459106445312
1700075386,0.266632080078125,-0.3353271484375,-0.2292633056640625,-0.6564921140670776,-0.7530916333198547,-3.39772891998291,88.16896057128906,-63.75946044921875,251.2281036376953
1700075386,0.50640869140625,-0.2393798828125,-0.186981201171875,-1.0121426582336426,-0.8016610145568848,-3.729711771011353,88.40122985839844,-63.62564086914063,251.6650238037109
1700075386,0.7156982421875,-0.1833953857421875,-0.136871337890625,-1.2467588186264038,-0.8505837917327881,-3.970940828323364,88.20851135253906,-63.99040222167969,251.6453399658203
1700075386,0.877044677734375,-0.09185791015625,-0.1542816162109375,-1.314645528793335,-0.8729466199874878,-4.082053184509277,88.0133056640625,-63.27488708496094,251.5532684326172
1700075386,0.98516845703125,0.048370361328125,-0.24090576171875,-1.133592128753662,-0.927998423576355,-4.134880065917969,88.22576904296875,-63.2232666015625,251.58819580078125
1700075386,1.0640869140625,0.1892852783203125,-0.3154144287109375,-0.6728718876838684,-0.9414932131767272,-4.248196601867676,87.71640014648438,-63.46142578125,252.1031646728516
1700075386,1.1359405517578125,0.3341522216796875,-0.3535308837890625,-0.061783205717802,-0.9532111287117004,-4.428248405456543,88.20292663574219,-63.052032470703125,251.58352661132807
1700075386,1.19744873046875,0.5283966064453125,-0.361083984375,0.6500871777534485,-1.0341321229934692,-4.69310998916626,88.4234619140625,-63.251251220703125,251.4031677246093
1700075386,1.249969482421875,0.7434844970703125,-0.322601318359375,1.4390259981155396,-1.1239687204360962,-5.001303672790527,87.98789978027344,-62.845794677734375,251.6405487060547
1700075386,1.276123046875,0.97576904296875,-0.2124786376953125,2.064645290374756,-1.1424044370651243,-5.1714043617248535,88.08944702148438,-62.83978271484375,251.7535858154297
1700075386,1.2666168212890625,1.2391510009765625,-0.0406036376953125,2.6068384647369385,-1.1237722635269165,-5.197052478790283,87.89845275878906,-62.39698791503906,251.46511840820312
1700075386,1.275634765625,1.39251708984375,0.11041259765625,3.247225522994995,-1.0820660591125488,-5.414263248443604,87.60957336425781,-62.33210754394531,251.32716369628903
1700075386,1.3616943359375,1.1705169677734375,0.1712646484375,3.46101713180542,-1.1606290340423584,-5.426834583282471,87.9757080078125,-62.00601196289063,251.5240478515625
1700075386,1.3241424560546875,0.984588623046875,0.11236572265625,3.049429655075073,-1.2161394357681274,-5.059170722961426,87.6607666015625,-61.6961669921875,251.610595703125
1700075386,1.2323150634765625,0.9433135986328124,-0.0947265625,2.144975423812866,-1.161169409751892,-4.48708963394165,87.89120483398438,-61.47145080566406,252.00198364257807
1700075386,1.3056793212890625,0.911376953125,-0.3756103515625,0.932249903678894,-1.189151167869568,-4.06678581237793,87.5035400390625,-61.34403991699219,251.91815185546875
1700075386,1.467926025390625,0.7982025146484375,-0.588958740234375,-0.3318037688732147,-1.2192726135253906,-3.7594385147094727,87.70860290527344,-60.87626647949219,251.6102294921875
1700075387,1.4959259033203125,0.645538330078125,-0.72906494140625,-1.234484076499939,-1.1983343362808228,-3.349727392196656,87.35089111328125,-60.09938049316406,251.64210510253903
1700075387,1.3043212890625,0.55145263671875,-0.76953125,-1.740979552268982,-1.096570372581482,-2.8840208053588867,87.74467468261719,-60.390899658203125,252.069564819336
1700075387,1.0422821044921875,0.5175933837890625,-0.822357177734375,-2.0157928466796875,-1.088945746421814,-2.455760955810547,87.22164916992188,-59.949981689453125,251.43516540527344
1700075387,0.911468505859375,0.5424957275390625,-0.7116241455078125,-2.121245145797729,-1.1313252449035645,-2.0481979846954346,86.937744140625,-59.32557678222656,251.22848510742188
1700075387,0.91705322265625,0.654571533203125,-0.4979095458984375,-1.9694515466690063,-1.1408041715621948,-1.689427614212036,86.64714050292969,-58.31657409667969,251.34410095214844
1700075387,0.9588775634765624,0.80560302734375,-0.282958984375,-1.434314846992493,-1.057551622390747,-1.4880971908569336,86.613525390625,-58.02778625488281,251.51905822753903
1700075387,1.0224151611328125,0.943389892578125,-0.1003265380859375,-0.3902329802513122,-0.8894262909889221,-1.446770191192627,86.24037170410156,-57.41082763671875,251.1977081298828
1700075387,1.0568389892578125,1.0385284423828125,0.0317230224609375,0.956534743309021,-0.7092719674110413,-1.4783481359481812,86.13322448730469,-56.91802978515625,250.9124450683593
1700075387,0.9893341064453124,1.0777740478515625,0.055877685546875,1.9520610570907595,-0.5089910626411438,-1.3930041790008545,85.66204833984375,-56.21514892578125,250.7311553955078
1700075387,0.79656982421875,1.0749053955078125,-0.084930419921875,2.363173484802246,-0.2739559113979339,-1.0973278284072876,85.35610961914062,-55.449951171875,250.27459716796875
1700075387,0.59942626953125,0.9714202880859376,-0.3265533447265625,2.4032700061798096,-0.0144681548699736,-0.7731894254684448,85.53666687011719,-54.49369812011719,250.64833068847656
1700075387,0.560821533203125,0.7465667724609375,-0.518585205078125,2.232194423675537,0.226317822933197,-0.5025131702423096,85.18515014648438,-53.53007507324219,250.3489990234375
1700075387,0.630096435546875,0.490509033203125,-0.6004791259765625,1.905151605606079,0.3922351598739624,-0.2688125669956207,84.95773315429688,-52.62971496582031,250.4071807861328
1700075387,0.707275390625,0.29620361328125,-0.611358642578125,1.5265822410583496,0.4841291308403015,-0.043215911835432,85.05429077148438,-51.73616027832031,250.46353149414065
1700075387,0.74810791015625,0.173095703125,-0.5977020263671875,1.1787889003753662,0.4871406257152557,0.1409219652414322,84.70149230957031,-50.98393249511719,250.51123046875
1700075387,0.7401275634765625,0.07220458984375,-0.547210693359375,0.923734724521637,0.4479197263717651,0.2975866794586181,84.83647155761719,-50.04994201660156,250.9395904541016
1700075387,0.71417236328125,-0.0318756103515625,-0.437286376953125,0.7144326567649841,0.4478528797626495,0.4398298263549804,84.68031311035156,-49.0904541015625,250.909912109375
1700075387,0.695953369140625,-0.1299591064453125,-0.331939697265625,0.5236520171165466,0.4705797731876373,0.5556192994117737,84.38705444335938,-47.73236083984375,251.5676727294922
1700075387,0.6928863525390625,-0.209259033203125,-0.2601776123046875,0.3000620901584625,0.4895688891410827,0.6680912375450134,84.51553344726562,-46.9783935546875,251.4197998046875
1700075387,0.690826416015625,-0.2435302734375,-0.2548675537109375,0.125786691904068,0.4937711060047149,0.7527973651885986,84.56402587890625,-46.27333068847656,252.3248291015625
1700075387,0.7317352294921875,-0.2656097412109375,-0.260986328125,-0.0702246278524398,0.4936419427394867,0.8554019927978516,84.45906066894531,-45.54656982421875,252.2444610595703
1700075387,0.8209686279296875,-0.2181396484375,-0.2745513916015625,-0.3216768205165863,0.7359040975570679,0.967964768409729,84.75398254394531,-45.2279052734375,251.7865447998047
1700075387,0.8827362060546875,-0.0251312255859375,-0.4827423095703125,-0.167066216468811,0.7685502171516418,0.9167159795761108,84.74259948730469,-44.75102233886719,252.50308227539065
1700075387,0.70672607421875,0.1365203857421875,-0.5778656005859375,0.8431873917579651,0.1411723047494888,0.7122341990470886,85.5157470703125,-44.63548278808594,252.04278564453125
1700075387,1.0669708251953125,0.271759033203125,0.072601318359375,1.142185091972351,0.5528256297111511,0.5269466042518616,86.22651672363281,-44.327056884765625,252.693359375
1700075387,1.2483673095703125,0.4234619140625,-0.079742431640625,2.104757785797119,3.74409532546997,0.8669068813323975,86.51115417480469,-44.307403564453125,252.74514770507807
1700075387,0.184967041015625,0.690185546875,-2.2660675048828125,1.777527093887329,1.0004132986068726,2.84460711479187,87.30796813964844,-44.32023620605469,252.69705200195312
1700075387,0.3665618896484375,1.761749267578125,-0.7306365966796875,-0.68740314245224,-1.1572638750076294,1.9597243070602417,88.11180114746094,-44.81098937988281,252.70779418945312
1700075387,3.320297241210937,0.3129119873046875,0.7894134521484375,-1.230721354484558,1.0573838949203491,0.1755142956972122,88.44532775878906,-45.26133728027344,252.423095703125
1700075387,2.8273468017578125,-1.369842529296875,-0.104339599609375,-0.5102975964546204,2.073582172393799,-0.3162506520748138,89.1966552734375,-45.61750793457031,251.9459991455078
1700075387,1.4486236572265625,-1.297698974609375,1.0091552734375,-0.7914485931396484,1.7688316106796265,0.4748951494693756,89.63685607910156,-46.230316162109375,250.7633209228516
1700075387,0.692291259765625,-0.44366455078125,0.108551025390625,-1.151008129119873,0.9834228157997132,1.3419181108474731,90.59329223632812,-46.7225341796875,250.07925415039065
1700075387,0.3182373046875,-0.1278076171875,-1.0040130615234375,-0.4413630068302154,0.6036520600318909,0.9889971017837524,91.34446716308594,-48.389190673828125,249.5558319091797
1700075387,0.8676605224609375,-0.7464599609375,-0.7354736328125,0.5335464477539062,0.4947359561920166,0.4571033716201782,92.05775451660156,-49.295684814453125,248.594467163086
1700075387,1.5787811279296875,-0.98486328125,-0.1676788330078125,0.4706660509109497,0.3678405880928039,1.1716228723526,93.23614501953124,-50.355377197265625,248.09716796875
1700075387,1.6378631591796875,-0.1777191162109375,-0.042572021484375,-0.1887478083372116,0.1694931536912918,1.8448883295059204,94.26443481445312,-52.05140686035156,247.6502685546875
1700075387,1.666351318359375,0.29315185546875,0.136474609375,-0.9895004034042358,0.1576831042766571,1.795481562614441,95.05348205566406,-52.75764465332031,247.0718994140625
1700075387,1.5953216552734375,0.3883056640625,0.2259979248046875,-1.4385287761688232,0.2509438097476959,1.444143295288086,95.7108917236328,-54.42390441894531,246.88877868652344
1700075387,1.2450714111328125,0.4824981689453125,0.19122314453125,-1.4008724689483645,0.3607355654239654,1.2953416109085083,96.68678283691406,-56.08735656738281,246.6993103027344
1700075387,1.0019683837890625,0.421875,-0.0216064453125,-1.174053192138672,0.4361637234687805,1.0092589855194092,97.22088623046876,-57.47213745117188,246.391357421875
1700075387,1.3780059814453125,0.1735992431640625,-0.2551422119140625,-0.5641682744026184,0.4938057363033294,0.7381102442741394,97.97111511230467,-58.70378112792969,246.74790954589844
1700075387,1.940032958984375,-0.00726318359375,-0.1810150146484375,0.1285609006881714,0.4746080636978149,1.058090090751648,98.59085083007812,-60.26287841796875,246.80751037597656
1700075387,1.9360198974609373,0.2015533447265625,-0.237823486328125,0.3670829236507416,0.2580797374248504,1.3060362339019775,99.63890075683594,-61.949737548828125,246.59429931640625
1700075387,1.52667236328125,0.3925628662109375,-0.3759918212890625,0.4392223656177521,0.0079181101173162,1.0640904903411863,100.06231689453124,-63.79833984375,247.09071350097656
1700075387,1.0484771728515625,0.3919677734375,-0.480926513671875,0.2430683076381683,-0.0855228900909423,0.6917462348937988,100.731689453125,-65.61981201171875,246.5517578125
1700075387,0.7250518798828125,0.4104156494140625,-0.5128021240234375,0.109756588935852,0.0012977584265172,0.5013190507888794,101.06858825683594,-67.59141540527344,247.2978057861328
1700075387,0.550628662109375,0.3890533447265625,-0.4150543212890625,0.2539856731891632,0.0999367162585258,0.4467138350009918,101.5331573486328,-69.4825439453125,246.5287170410156
1700075387,0.6104736328125,0.162841796875,-0.31158447265625,0.4138677418231964,0.0757419019937515,0.5485286116600037,101.68138122558594,-71.23481750488281,247.2808380126953
1700075387,0.7639923095703125,0.022430419921875,-0.2474212646484375,0.4314509928226471,0.1209898069500923,0.734916090965271,102.0711669921875,-73.34738159179688,247.33029174804688
1700075387,0.8568267822265625,-0.0008544921875,-0.2256317138671875,0.3687804341316223,0.2330319136381149,0.8698712587356567,102.27951049804688,-75.10939025878906,247.2425842285156
1700075387,0.9355316162109376,-0.0623931884765625,-0.1831512451171875,0.2828482091426849,0.3867865800857544,0.9836792945861816,102.48098754882812,-76.55387878417969,247.87013244628903
1700075387,0.998077392578125,-0.1642913818359375,-0.1490631103515625,0.2660937309265136,0.4610480368137359,1.1756221055984497,102.00601196289062,-78.47933959960938,247.9348297119141
1700075387,0.9861602783203124,-0.16986083984375,-0.216827392578125,0.2989560663700104,0.4873957633972168,1.4110572338104248,101.92694091796876,-80.32008361816406,247.75387573242188
1700075387,0.9085235595703124,-0.0423736572265625,-0.4051666259765625,0.3832067847251892,0.4744200408458709,1.544163942337036,102.05451965332033,-82.05276489257812,247.99752807617188
1700075387,0.8702392578125,0.1622161865234375,-0.418060302734375,0.3854339718818664,0.5135090947151184,1.5525646209716797,102.11207580566406,-83.42701721191406,248.0425720214844
1700075387,0.8854217529296875,0.3377227783203125,-0.30560302734375,0.4719749987125397,0.5857266187667847,1.4685474634170532,101.43519592285156,-84.88279724121094,247.4823303222656
1700075387,0.8873138427734375,0.3694000244140625,-0.190765380859375,0.7519832253456116,0.6059410572052002,1.4299288988113403,101.22883605957033,-86.47317504882812,247.87315368652344
1700075387,0.8508758544921875,0.310699462890625,-0.2024688720703125,0.91925448179245,0.6659402251243591,1.5195022821426392,100.9364776611328,-87.57032775878906,247.5020751953125
1700075387,0.840606689453125,0.301116943359375,-0.3610687255859375,0.9606482982635498,0.6622826457023621,1.6082097291946411,100.51571655273438,-88.92817687988281,247.7880401611328
1700075387,0.879486083984375,0.2762298583984375,-0.3599700927734375,0.9246513843536376,0.6860236525535583,1.737480401992798,100.2781219482422,-89.80191040039062,248.8059234619141
1700075387,0.9054718017578124,0.250579833984375,-0.31781005859375,0.8214871883392334,0.6881996989250183,1.8788843154907229,99.91461181640624,-90.72567749023438,247.775146484375
1700075387,0.8883819580078125,0.22723388671875,-0.3417816162109375,0.7177333831787109,0.7189615964889526,1.983775615692139,99.87541198730467,-91.85623168945312,247.9657287597656
1700075387,0.86773681640625,0.2049102783203125,-0.4372100830078125,0.7289537787437439,0.7070689797401428,2.037776231765747,99.6251220703125,-92.54501342773438,248.2034149169922
1700075387,0.86822509765625,0.2175140380859375,-0.4588623046875,0.8027422428131104,0.687767744064331,2.1080446243286133,99.45518493652344,-92.81185913085938,248.03323364257807
1700075387,0.8192901611328125,0.307403564453125,-0.410064697265625,0.7892459034919739,0.7027051448822021,2.1139206886291504,98.98716735839844,-93.55755615234376,247.7866668701172
1700075387,0.73504638671875,0.4524688720703125,-0.386962890625,0.8029747605323792,0.6737920045852661,1.9975745677948,99.24124145507812,-94.1673583984375,247.815185546875
1700075387,0.6784820556640625,0.534820556640625,-0.3453521728515625,0.8536480665206909,0.7075281143188477,1.9537622928619385,98.96565246582033,-94.17462158203124,248.34371948242188
1700075387,0.74041748046875,0.6258087158203125,-0.3769378662109375,0.88869309425354,0.6687895059585571,1.898887157440185,98.94131469726562,-94.5780029296875,248.23193359375
1700075387,1.0489959716796875,0.5941009521484375,-0.3840179443359375,0.8448878526687622,0.6471124291419983,1.9746034145355225,99.35716247558594,-94.20343017578124,248.67823791503903
1700075387,1.1941375732421875,0.5021820068359375,-0.4622039794921875,0.8340373039245605,0.6194168925285339,2.1547439098358154,99.30618286132812,-94.46356201171876,248.19967651367188
1700075387,1.119903564453125,0.3652191162109375,-0.487884521484375,0.8925283551216125,0.6047109365463257,2.3814547061920166,99.2745361328125,-93.60336303710938,248.52835083007807
1700075387,1.045623779296875,0.3101959228515625,-0.4988861083984375,0.8718281388282776,0.6004179120063782,2.4852733612060547,99.93421936035156,-93.15513610839844,248.940673828125
1700075387,1.142059326171875,0.39495849609375,-0.516265869140625,0.8791813850402832,0.5861876010894775,2.503536462783813,100.3563995361328,-93.6929931640625,248.56832885742188
1700075387,1.2314910888671875,0.5122833251953125,-0.576324462890625,1.0501118898391724,0.4791676700115204,2.49276089668274,99.87953186035156,-93.98941040039062,248.5146331787109
1700075387,1.23175048828125,0.642242431640625,-0.6050872802734375,1.1913107633590698,0.3731855750083923,2.478644847869873,99.6248779296875,-94.03817749023438,249.1072235107422
1700075387,1.415008544921875,0.7376861572265625,-0.5492401123046875,1.2753499746322632,0.2934260070323944,2.516275405883789,100.04490661621094,-93.4405517578125,249.0061798095703
1700075387,1.622650146484375,0.6798553466796875,-0.506683349609375,1.237000823020935,0.1695546805858612,2.579310178756714,100.6433563232422,-92.99087524414062,248.3498992919922
1700075387,1.8004913330078125,0.5380401611328125,-0.5017547607421875,1.1560145616531372,0.0329307839274406,2.6362335681915283,101.15985107421876,-92.063720703125,249.0306091308593
1700075387,1.88555908203125,0.4192047119140625,-0.50860595703125,1.0072059631347656,-0.1186763197183609,2.6608264446258545,101.34521484375,-91.94625854492188,248.8949584960937
1700075387,1.9202880859375,0.3227996826171875,-0.469085693359375,0.6994177103042603,-0.3289821445941925,2.584746122360229,101.18702697753906,-92.02711486816406,248.3096618652344
1700075387,1.884185791015625,0.20953369140625,-0.3953857421875,0.3073279857635498,-0.4789934754371643,2.3575856685638428,101.60342407226562,-91.52969360351562,248.80679321289065
1700075387,1.70526123046875,0.0691986083984375,-0.369964599609375,0.2048482149839401,-0.5476511120796204,1.8845574855804443,101.95315551757812,-91.27919006347656,249.5883331298828
1700075387,1.3771820068359375,-0.1158599853515625,-0.3718109130859375,0.1759124398231506,-0.4634400904178619,1.7085517644882202,101.8786163330078,-90.74177551269533,248.45632934570312
1700075387,0.7777252197265625,-0.073089599609375,-0.5377655029296875,-0.3835668265819549,-0.3176373541355133,1.99131453037262,101.76870727539062,-90.12911987304688,248.858627319336
1700075387,0.0387420654296875,0.3751220703125,-0.830963134765625,-1.1568297147750854,-0.1966659277677536,1.5975219011306765,101.95359802246094,-89.58891296386719,247.22482299804688
1700075387,-0.150787353515625,0.3943634033203125,-0.678924560546875,-1.439444661140442,-0.1482331454753875,0.7490715980529785,102.5191650390625,-89.1201171875,247.8627471923828
1700075387,-0.234893798828125,0.29345703125,-0.18603515625,-0.9881789684295654,-0.3657659888267517,0.1896234601736068,102.37794494628906,-89.0350341796875,247.6387939453125
1700075387,-0.556365966796875,0.1346893310546875,0.2740936279296875,-0.6482621431350708,-0.625091016292572,-0.299091637134552,102.4628448486328,-88.79206848144531,247.4601593017578
1700075387,-0.5783538818359375,-0.146759033203125,0.255615234375,-0.6011217832565308,-0.835494875907898,-1.0492939949035645,102.0636749267578,-88.61251831054688,247.502197265625
1700075387,-0.1849517822265625,-0.3881988525390625,0.028228759765625,-0.8007773756980896,-0.96132230758667,-1.8130438327789309,102.74607849121094,-88.36338806152344,247.5464782714844
1700075387,0.105743408203125,-0.544464111328125,-0.112579345703125,-0.8827177882194519,-0.923740029335022,-2.354512929916382,102.5590362548828,-88.22810363769531,247.61715698242188
1700075387,0.1773223876953125,-0.6764068603515625,-0.0975494384765625,-0.7857901453971863,-0.9163036942481996,-2.588717460632324,102.5719757080078,-87.70390319824219,247.72352600097656
1700075387,0.196075439453125,-0.6219940185546875,-0.077484130859375,-0.845643937587738,-0.9923550486564636,-2.700596570968628,102.82843017578124,-87.54096984863281,247.0772857666016
1700075387,0.2521209716796875,-0.320556640625,-0.17681884765625,-0.9241483211517334,-1.0568610429763794,-2.974363088607788,102.8327178955078,-87.17915344238281,247.3240966796875
1700075387,0.3519287109375,-0.137939453125,-0.2456817626953125,-0.9368689060211182,-1.0978058576583862,-3.327418088912964,103.13597106933594,-87.0867919921875,247.62892150878903
1700075387,0.4142913818359375,-0.030731201171875,-0.228607177734375,-0.8794535398483276,-1.093355417251587,-3.654214859008789,103.38470458984376,-86.76425170898438,247.22186279296875
1700075387,0.4676971435546875,0.0784149169921875,-0.200897216796875,-0.8045907616615295,-1.0811022520065308,-3.891466617584229,103.349365234375,-86.70942687988281,247.38751220703125
1700075387,0.567779541015625,0.2090301513671875,-0.2057952880859375,-0.7250311970710754,-1.107386827468872,-4.050779342651367,103.09489440917967,-86.19725036621094,247.17108154296875
1700075387,0.709747314453125,0.3059844970703125,-0.2017364501953125,-0.6843045353889465,-1.177915096282959,-4.2237725257873535,103.11288452148438,-86.26524353027344,246.8898162841797
1700075387,0.8285064697265625,0.3346710205078125,-0.178619384765625,-0.672231137752533,-1.2101361751556396,-4.336182594299316,103.18568420410156,-85.87849426269531,247.0357666015625
1700075388,0.8980255126953125,0.375396728515625,-0.222625732421875,-0.5386520028114319,-1.2494345903396606,-4.365355491638184,103.101318359375,-85.8927001953125,247.7227783203125
1700075388,0.9420013427734376,0.4317626953125,-0.2696075439453125,-0.0973760858178138,-1.3045082092285156,-4.422827243804932,103.20947265625,-85.78428649902344,247.40057373046875
1700075388,1.01055908203125,0.473175048828125,-0.264007568359375,0.4792630076408386,-1.3765981197357178,-4.489662170410156,103.23374938964844,-85.19610595703125,247.018310546875
1700075388,1.0687713623046875,0.5692138671875,-0.2236328125,0.8055859804153442,-1.4282455444335938,-4.581597805023193,103.50184631347656,-84.92112731933594,246.98941040039065
1700075388,1.1574859619140625,0.68060302734375,-0.176025390625,0.8432031273841858,-1.3729194402694702,-4.59494686126709,103.53770446777344,-85.03024291992188,247.0769500732422
1700075388,1.2320556640625,0.826263427734375,-0.1783294677734375,0.8216736316680908,-1.232241153717041,-4.426122188568115,103.64480590820312,-84.62130737304688,247.50006103515625
1700075388,1.236114501953125,1.0077362060546875,-0.2464141845703125,0.7924062609672546,-1.1124242544174194,-4.138955593109131,103.78556823730467,-84.13037109375,246.8282470703125
1700075388,1.2490692138671875,1.151641845703125,-0.3466949462890625,0.6649649739265442,-1.0740326642990112,-3.792556762695313,104.13410949707033,-84.23208618164062,247.0842742919922
1700075388,1.31903076171875,1.2786865234375,-0.455474853515625,0.2691015005111694,-1.0554014444351196,-3.5880019664764404,104.07423400878906,-83.6888427734375,247.61648559570312
1700075388,1.40667724609375,1.2955474853515625,-0.55499267578125,-0.19263257086277,-0.9465979933738708,-3.6077377796173096,104.38706970214844,-83.6046142578125,246.6197509765625
1700075388,1.4483795166015625,1.06317138671875,-0.571624755859375,-0.7178233861923218,-0.8459587097167969,-3.503291130065918,104.3780517578125,-83.18232727050781,247.6419372558593
1700075388,1.3167877197265625,0.8526763916015625,-0.5078277587890625,-1.1637539863586426,-0.8261581063270569,-3.112865924835205,104.16586303710938,-82.90013122558594,247.51548767089844
1700075388,1.1368560791015625,0.7860870361328125,-0.4949798583984375,-1.3835910558700562,-0.8994957208633423,-2.5680010318756104,104.63998413085938,-82.44041442871094,247.2894287109375
1700075388,0.99420166015625,0.7669677734375,-0.4583892822265625,-1.3945562839508057,-0.9763790369033812,-1.990325093269348,104.63414001464844,-82.09776306152344,246.4524078369141
1700075388,0.885467529296875,0.776458740234375,-0.4329833984375,-1.2390447854995728,-0.9847448468208312,-1.527970314025879,104.4725341796875,-81.67828369140625,246.5131683349609
1700075388,0.839508056640625,0.778106689453125,-0.4282989501953125,-0.9910181760787964,-0.8918976783752441,-1.2404195070266724,104.38502502441406,-81.12370300292969,246.7462615966797
1700075388,0.8170318603515625,0.7866058349609375,-0.4421539306640625,-0.6511801481246948,-0.7395462393760681,-1.0738906860351562,104.33453369140624,-80.55120849609375,246.4778289794922
1700075388,0.805816650390625,0.7924041748046875,-0.428741455078125,-0.2430880218744278,-0.5770774483680725,-0.9779766798019408,104.49423217773438,-79.93724060058594,246.149642944336
1700075388,0.781341552734375,0.76690673828125,-0.389495849609375,0.1580319851636886,-0.4037362933158874,-0.8991361856460571,104.20579528808594,-79.52705383300781,246.1942749023437
1700075388,0.75811767578125,0.7043609619140625,-0.347869873046875,0.4884234666824341,-0.2376197427511215,-0.8072643280029297,104.38841247558594,-79.00308227539062,245.696029663086
1700075388,0.748870849609375,0.6301116943359375,-0.3123016357421875,0.7258373498916626,-0.0874153301119804,-0.7141714096069336,104.2039794921875,-78.14622497558594,245.35153198242188
1700075388,0.7705535888671875,0.5386505126953125,-0.2994232177734375,0.8678152561187744,0.0474708452820777,-0.6118005514144897,104.18325805664062,-77.49172973632812,245.11428833007807
1700075388,0.789794921875,0.4339599609375,-0.289794921875,0.972226083278656,0.1190488934516906,-0.5135767459869385,104.30044555664062,-76.62239074707031,244.7918395996093
1700075388,0.809234619140625,0.3109130859375,-0.2388916015625,0.9317535161972046,0.1636693626642227,-0.4160022735595703,104.4292449951172,-76.19252014160156,244.5879364013672
1700075388,0.832672119140625,0.1990509033203125,-0.199005126953125,0.7206170558929443,0.2709020674228668,-0.3126236796379089,104.19493103027344,-75.45872497558594,244.59580993652344
1700075388,0.7988433837890625,0.11444091796875,-0.2681884765625,0.4940829575061798,0.4584506750106811,-0.1738940328359604,104.24530029296876,-74.62483215332031,244.1561737060547
1700075388,0.7022857666015625,0.076873779296875,-0.4022369384765625,0.3660232722759247,0.5304537415504456,0.0667683780193328,104.13194274902344,-73.87971496582031,243.9700622558593
1700075388,0.59637451171875,0.08709716796875,-0.429931640625,0.2795690596103668,0.7202367186546326,0.4212154150009155,103.49249267578124,-73.10908508300781,242.9555206298828
1700075388,0.5673828125,0.1585235595703125,-0.5381011962890625,0.290944755077362,0.7606310248374939,0.6784701347351074,103.61154174804688,-72.26509094238281,242.86978149414065
1700075388,0.4752960205078125,0.2615814208984375,-0.6403350830078125,0.3425397574901581,0.463987648487091,0.9458629488945008,103.7073211669922,-71.47503662109375,241.8431854248047
1700075388,0.7019195556640625,0.38726806640625,-0.2760772705078125,0.2688658237457275,1.457575440406799,1.018489956855774,102.93727111816406,-70.40696716308594,241.943588256836
1700075388,0.8038482666015625,0.3475799560546875,-0.8315887451171875,1.6666312217712402,5.007843971252441,1.808693051338196,102.8841552734375,-69.31993103027344,241.4053955078125
1700075388,-0.2928009033203125,1.1469268798828125,-3.422836303710937,0.6443020105361938,-0.3060211837291717,3.050908088684082,102.57655334472656,-68.523193359375,240.52902221679688
1700075388,1.1949920654296875,1.8058013916015625,-0.362548828125,-1.5162312984466553,-0.8824504017829895,1.5598427057266235,102.32772827148438,-67.58799743652344,240.2147979736328
1700075388,4.20086669921875,-0.3551483154296875,0.6578521728515625,-1.1101226806640625,1.6287999153137207,0.2193073183298111,101.89108276367188,-66.34275817871094,239.5517425537109
1700075388,2.4455718994140625,-1.4828643798828125,0.3272552490234375,0.3393634259700775,2.328788995742798,0.1735941618680954,101.3833465576172,-65.69088745117188,239.3326873779297
1700075388,1.0617523193359375,-0.9438629150390624,1.221893310546875,1.119576930999756,1.579003095626831,0.2915980219841003,100.66740417480467,-64.43977355957031,239.5343170166016
1700075388,0.309478759765625,-0.204498291015625,-0.2691497802734375,-0.0349116437137126,0.6659660339355469,0.5597149729728699,100.24874877929688,-63.285064697265625,238.63804626464844
1700075388,0.3624725341796875,-0.17547607421875,-0.669158935546875,-0.4285702705383301,0.8124635815620422,0.5909120440483093,99.90737915039062,-62.11448669433594,238.1294708251953
1700075388,1.0378570556640625,-0.5900115966796875,-0.1800994873046875,-0.4823035299777984,0.9601672887802124,0.5548254251480103,99.47984313964844,-61.45469665527344,238.07501220703125
1700075388,1.616973876953125,-0.7727813720703125,0.130218505859375,-1.2234705686569214,0.8630948066711426,0.9647977352142334,99.02264404296876,-60.4073486328125,237.7334442138672
1700075388,2.040924072265625,-0.534637451171875,-0.018310546875,-1.6411930322647097,0.7945892810821533,1.5307461023330688,98.43499755859376,-59.24125671386719,237.61868286132807
1700075388,2.096221923828125,-0.230865478515625,-0.22076416015625,-1.4583070278167725,0.5157565474510193,1.843179941177368,98.01419067382812,-58.34672546386719,236.26333618164065
1700075388,2.030364990234375,-0.0674285888671875,-0.01971435546875,-1.559055209159851,0.4110240340232849,1.9355604648590088,97.07034301757812,-57.685394287109375,236.99758911132807
1700075388,2.22283935546875,0.098541259765625,-0.032135009765625,-1.140591382980347,0.6317742466926575,1.9607925415039065,96.62120056152344,-56.45895385742188,237.11441040039065
1700075388,2.3153533935546875,0.306854248046875,0.034698486328125,-0.3048256933689117,0.6557533740997314,2.029826641082764,96.0849151611328,-55.266510009765625,236.7596893310547
1700075388,1.7169189453125,0.5857086181640625,-0.04229736328125,0.3102545440196991,0.3887221813201904,1.655905842781067,95.19314575195312,-54.16941833496094,236.0759429931641
1700075388,1.0076751708984375,0.6633758544921875,-0.3562469482421875,0.4337096214294433,0.2554932832717895,0.9762203097343444,94.560302734375,-52.528594970703125,235.971923828125
1700075388,0.65374755859375,0.703155517578125,-0.4825897216796875,0.4350310862064361,0.4471484720706939,0.4978678524494171,93.76693725585938,-51.56005859375,236.5283203125
1700075388,0.478973388671875,0.7195587158203125,-0.3737945556640625,0.7244743704795837,0.5855380296707153,0.2673414349555969,92.99447631835938,-50.54206848144531,236.1975555419922
1700075388,0.680023193359375,0.2769775390625,-0.2897186279296875,0.8235852122306824,0.4123835563659668,0.4060527086257934,92.4716796875,-49.34593200683594,237.0602264404297
1700075388,0.853485107421875,0.006317138671875,-0.43597412109375,0.8828940987586975,0.2917929589748382,0.666860044002533,91.79978942871094,-49.03340148925781,236.8108062744141
1700075388,0.8767242431640625,-0.110687255859375,-0.50225830078125,0.7013943195343018,0.2888400554656982,0.8744939565658569,91.38430786132812,-48.269287109375,236.8410186767578
1700075388,0.9378814697265624,-0.200164794921875,-0.414581298828125,0.2536943256855011,0.338318407535553,1.0274171829223633,91.28929138183594,-47.80706787109375,236.93331909179688
1700075388,0.94891357421875,-0.1355743408203125,-0.4225616455078125,-0.036905288696289,0.3085514307022095,1.1365783214569092,91.45269775390624,-47.81378173828125,236.8624725341797
1700075388,0.8770599365234375,0.0651397705078125,-0.4654998779296875,-0.0645435750484466,0.233132317662239,1.1102651357650757,91.36000061035156,-47.479736328125,237.0505523681641
1700075388,0.880126953125,0.27642822265625,-0.4290771484375,-0.0443376377224922,0.2346013188362121,0.96586674451828,91.2584228515625,-47.53553771972656,237.3257751464844
1700075388,0.93377685546875,0.4179534912109375,-0.377593994140625,0.0265232194215059,0.2968910634517669,0.802028238773346,91.81764221191406,-47.6639404296875,238.2111968994141
1700075388,0.935699462890625,0.4388275146484375,-0.3128509521484375,0.1967167854309082,0.3562443852424621,0.7499592304229736,92.86956787109376,-48.60926818847656,238.55751037597656
1700075388,0.878936767578125,0.363372802734375,-0.2810821533203125,0.3750939965248108,0.4095281362533569,0.8072219491004944,93.45223999023438,-49.44386291503906,238.8788452148437
1700075388,0.840606689453125,0.236236572265625,-0.2994384765625,0.5769557356834412,0.4575230777263641,0.9465969204902648,94.59190368652344,-50.65635681152344,238.6557006835937
1700075388,0.824676513671875,0.12939453125,-0.3078460693359375,0.7187445759773254,0.5849886536598206,1.0850725173950195,95.38909912109376,-51.92233276367188,239.5542449951172
1700075388,0.8788604736328125,0.0458984375,-0.3091583251953125,0.8013930916786194,0.6833226680755615,1.2431515455245972,96.25665283203124,-53.48884582519531,239.93331909179688
1700075388,0.94268798828125,0.03118896484375,-0.290802001953125,0.7887635827064514,0.7530815005302429,1.398240566253662,97.51632690429688,-55.88752746582031,240.2737579345703
1700075388,0.973358154296875,0.088653564453125,-0.33404541015625,0.7714820504188538,0.7770222425460815,1.5220493078231812,98.21343994140624,-57.58412170410156,240.60646057128903
1700075388,0.9733123779296876,0.1932525634765625,-0.375396728515625,0.7438520193099976,0.7990812063217163,1.547244429588318,99.34251403808594,-60.06376647949219,241.0028076171875
1700075388,0.8940887451171875,0.2974090576171875,-0.3909454345703125,0.7517051696777344,0.844763994216919,1.474022626876831,99.31112670898438,-61.87294006347656,241.7396697998047
1700075388,0.735015869140625,0.4125518798828125,-0.384521484375,0.8297232985496521,0.9064084887504578,1.3420398235321045,100.00018310546876,-63.9307861328125,242.43310546875
1700075388,0.664825439453125,0.5145721435546875,-0.33465576171875,0.97252756357193,0.9574927091598512,1.2247207164764404,101.27584838867188,-65.92164611816406,242.29879760742188
1700075388,0.7796478271484375,0.553558349609375,-0.325836181640625,1.0711694955825806,0.9981868863105774,1.2478398084640503,101.24020385742188,-67.55764770507812,243.3289031982422
1700075388,1.0640869140625,0.4853973388671875,-0.3331756591796875,1.0652953386306765,1.0045562982559204,1.407509446144104,101.80763244628906,-69.43710327148438,244.3558959960937
1700075388,1.32867431640625,0.31085205078125,-0.3539581298828125,0.9876378178596495,1.0347182750701904,1.6118313074111938,102.12774658203124,-71.57333374023438,244.99563598632807
1700075388,1.35797119140625,0.1445159912109375,-0.4560394287109375,0.9203628897666932,1.032074213027954,1.9163137674331665,102.32505798339844,-73.36888122558594,245.51768493652344
1700075388,1.14141845703125,0.066864013671875,-0.5096893310546875,0.9006914496421814,1.0600563287734983,2.1516261100769043,102.51181030273438,-75.01988220214844,246.2506561279297
1700075388,0.97357177734375,0.058746337890625,-0.4639892578125,0.7851086854934692,1.050608515739441,2.293365716934204,102.27674865722656,-76.52516174316406,246.06398010253903
1700075388,0.7552337646484375,0.3023681640625,-0.49786376953125,0.6323060989379883,0.982157289981842,2.2451539039611816,102.1702880859375,-78.12509155273438,247.1085662841797
1700075388,0.5395660400390625,0.57733154296875,-0.46807861328125,0.5758545398712158,0.972152590751648,2.0022637844085693,101.84535217285156,-80.07510375976562,248.2288513183593
1700075388,0.35382080078125,0.728607177734375,-0.3542633056640625,0.624701976776123,0.9578253030776978,1.7635444402694702,102.43606567382812,-81.3192138671875,249.02296447753903
1700075388,0.2772216796875,0.8277740478515625,-0.355987548828125,0.7191839814186096,0.8867686986923218,1.6244664192199707,101.78150939941406,-83.20872497558594,249.2919921875
1700075388,0.5045013427734375,0.7634735107421875,-0.4131011962890625,0.6704577207565308,0.8031414747238159,1.6347942352294922,101.63827514648438,-84.59355163574219,249.8515472412109
1700075388,0.78009033203125,0.619293212890625,-0.5386505126953125,0.5235678553581238,0.7856431603431702,1.748273849487305,101.5944366455078,-86.26457214355469,250.6116485595703
1700075388,1.17315673828125,0.5023040771484375,-0.6510162353515625,0.4425350725650787,0.7144848108291626,1.9309720993041992,101.67770385742188,-87.53591918945312,251.838607788086
1700075388,1.6882476806640625,0.4098052978515625,-0.590789794921875,0.5121474266052246,0.5881825685501099,2.2122838497161865,101.43186950683594,-88.74868774414062,252.65841674804688
1700075388,1.885345458984375,0.3797454833984375,-0.571624755859375,0.7093161940574646,0.5294830203056335,2.543299674987793,100.94303894042967,-89.77276611328125,253.7487335205078
1700075388,1.7569732666015625,0.3016357421875,-0.5189666748046875,0.7203634977340698,0.406497985124588,2.715493679046631,100.9375457763672,-90.86776733398438,254.7477264404297
1700075388,1.7181243896484375,0.3311309814453125,-0.478057861328125,0.8106817007064819,0.2495547086000442,2.7085494995117188,100.70298767089844,-91.29296875,254.9722595214844
1700075388,1.65081787109375,0.38623046875,-0.4595794677734375,0.8301741480827332,0.1119105592370033,2.501502990722656,100.45378112792967,-91.75357055664062,255.1505279541016
1700075388,1.659881591796875,0.366973876953125,-0.402862548828125,0.7910240888595581,-0.0718704611063003,2.234321117401123,100.32638549804688,-91.99456787109376,254.6780700683593
1700075388,1.669219970703125,0.3328094482421875,-0.338958740234375,0.7552967071533203,-0.1581843048334121,2.0267772674560547,100.0699462890625,-92.47279357910156,254.71292114257807
1700075388,1.5375518798828125,0.27984619140625,-0.3657989501953125,0.6694507598876953,-0.0371542945504188,1.7824214696884155,99.9119873046875,-92.16261291503906,254.0181579589844
1700075388,1.1310882568359375,0.21795654296875,-0.500579833984375,0.6836994886398315,0.0005600627628155,1.3977835178375244,99.89154052734376,-92.085205078125,253.0178680419922
1700075388,0.7635955810546875,0.0805816650390625,-0.5113983154296875,0.2085625231266021,0.0904657170176506,1.6941299438476562,99.756591796875,-92.1064910888672,253.6600341796875
1700075388,0.056427001953125,0.48248291015625,-0.8047943115234375,-0.6774141788482666,0.3214595317840576,1.768702507019043,99.6963348388672,-91.6865234375,252.32684326171875
1700075388,-0.5128021240234375,0.8322601318359375,-1.168792724609375,-1.4518920183181765,0.5084118247032166,1.4243777990341189,99.87513732910156,-91.64451599121094,252.27322387695312
1700075388,-0.7605743408203125,1.132904052734375,-1.120361328125,-1.447365164756775,0.3110100626945495,0.891385018825531,99.88108825683594,-91.23965454101562,251.5635223388672
1700075388,-0.5183868408203125,0.9936981201171876,-0.3616485595703125,-0.7345213890075684,-0.1500773876905441,0.0863545984029769,100.1380615234375,-91.30789184570312,251.3426818847656
1700075388,0.0785980224609375,-0.01171875,0.433074951171875,0.2227436006069183,-0.6109049320220947,-1.1250110864639282,99.76576232910156,-90.93522644042967,251.1967010498047
1700075388,0.556304931640625,-1.0037841796875,0.9294586181640624,0.795592188835144,-0.962518870830536,-2.024601459503174,100.191162109375,-90.78944396972656,251.07583618164065
1700075388,0.619110107421875,-1.188018798828125,0.7347564697265625,0.8885090947151184,-1.138236403465271,-1.9869247674942017,100.14230346679688,-90.46730041503906,251.52362060546875
1700075389,0.30584716796875,-0.682647705078125,0.1297760009765625,0.8914068937301636,-1.3450665473937988,-2.2721269130706787,100.52842712402344,-89.98391723632812,250.2281036376953
1700075389,0.3980865478515625,-0.6464385986328125,-0.0066070556640625,0.4852646887302398,-1.5630345344543457,-2.678061008453369,100.50682067871094,-89.57502746582031,250.1457672119141
1700075389,0.5315093994140625,-0.4834747314453125,0.0517425537109375,-0.1968667209148407,-1.6651339530944824,-2.8943185806274414,100.2480926513672,-89.35589599609375,249.8938446044922
1700075389,0.536102294921875,-0.2379913330078125,0.02099609375,-0.5513638257980347,-1.7207053899765017,-3.0694143772125244,101.0578155517578,-88.67945861816406,250.0901641845703
1700075389,0.5532684326171875,-0.084075927734375,-0.1064910888671875,-0.5519750118255615,-1.752358078956604,-3.3420827388763428,100.57630920410156,-88.63253784179688,249.538330078125
1700075389,0.5865020751953125,0.0091552734375,-0.2135772705078125,-0.552971601486206,-1.7885738611221311,-3.667555809020996,100.30867004394533,-87.15022277832031,247.30392456054688
1700075389,0.667816162109375,0.067657470703125,-0.206756591796875,-0.6325020790100098,-1.7169082164764404,-3.9393248558044434,100.7630615234375,-85.83261108398438,247.16619873046875
1700075389,0.7406768798828125,0.073028564453125,-0.1576080322265625,-0.6800693273544312,-1.5814998149871826,-4.136155128479004,101.30686950683594,-85.88255310058594,247.2757873535156
1700075389,0.769439697265625,0.04071044921875,-0.1796417236328125,-0.7803826332092285,-1.5584957599639893,-4.284011363983154,101.36701965332033,-86.13746643066406,246.78045654296875
1700075389,0.8175048828125,0.0670623779296875,-0.30975341796875,-0.9375213980674744,-1.6182589530944824,-4.396601676940918,101.09407043457033,-85.80928039550781,246.4385681152344
1700075389,0.901092529296875,0.127349853515625,-0.4050140380859375,-0.9191231727600098,-1.7029317617416382,-4.493205547332764,100.7314453125,-85.70188903808594,246.0076141357422
1700075389,0.985076904296875,0.1675872802734375,-0.3397064208984375,-0.5629091858863831,-1.816191911697388,-4.521612644195557,100.95228576660156,-85.50042724609375,246.0694122314453
1700075389,1.065277099609375,0.26513671875,-0.211395263671875,0.0348751582205295,-1.893557071685791,-4.417185306549072,100.7930145263672,-84.86727905273438,246.0091094970703
1700075389,1.156982421875,0.4860687255859375,-0.17779541015625,0.5680930018424988,-1.875691533088684,-4.294408798217773,100.6682586669922,-84.63813781738281,245.44921875
1700075389,1.2921600341796875,0.738677978515625,-0.317230224609375,0.7383440732955933,-1.9209364652633667,-4.235135078430176,101.18376159667967,-84.05557250976562,244.95120239257807
1700075389,1.4214324951171875,0.9723052978515624,-0.463165283203125,0.4100181460380554,-1.9411767721176147,-4.276093006134033,101.1865234375,-83.79827880859375,244.7349395751953
1700075389,1.5057830810546875,1.1437835693359375,-0.5809783935546875,-0.0073055834509432,-1.7952507734298706,-4.388616561889648,101.47109985351562,-83.25578308105469,245.1708374023437
1700075389,1.50396728515625,1.1822967529296875,-0.588104248046875,-0.1695022135972976,-1.568689227104187,-4.414827823638916,101.34341430664062,-83.24533081054688,245.34364318847656
1700075389,1.4309844970703125,1.07684326171875,-0.495941162109375,-0.1803106516599655,-1.3249876499176023,-4.247311115264893,101.7494659423828,-82.94258117675781,244.9222412109375
1700075389,1.326019287109375,0.925811767578125,-0.5062408447265625,-0.4385206401348114,-1.2258533239364624,-4.017871856689453,101.7924346923828,-82.64248657226562,244.9912567138672
1700075389,1.289459228515625,0.8397674560546875,-0.5185546875,-0.6524068117141724,-1.2360849380493164,-3.6742563247680655,101.6356964111328,-82.48040771484375,244.2295837402344
1700075389,1.3039703369140625,0.8440704345703125,-0.5095977783203125,-0.7067219614982605,-1.3372032642364502,-3.271853446960449,101.45539855957033,-81.62147521972656,244.62908935546875
1700075389,1.2942047119140625,0.87213134765625,-0.500335693359375,-0.3730561435222626,-1.469745635986328,-2.81132173538208,101.63417053222656,-80.98295593261719,244.9773712158203
1700075389,1.230926513671875,0.93304443359375,-0.471221923828125,0.0042469431646168,-1.5274102687835691,-2.4566972255706787,101.7553253173828,-80.66630554199219,244.3091735839844
1700075389,1.14410400390625,0.954132080078125,-0.4850616455078125,0.1779204607009887,-1.431808352470398,-2.2483444213867188,102.0375518798828,-80.33482360839844,244.7886962890625
1700075389,1.083587646484375,0.9236602783203124,-0.4874725341796875,0.2943983376026153,-1.2325823307037354,-2.0883326530456543,101.920166015625,-80.17312622070312,244.45751953125
1700075389,1.0293731689453125,0.888519287109375,-0.4244384765625,0.4914269745349884,-1.0190484523773191,-1.8919248580932613,101.9871826171875,-79.68316650390625,244.33302307128903
1700075389,0.9451141357421876,0.8206024169921875,-0.3681182861328125,0.7195086479187012,-0.8419256210327148,-1.6644716262817385,102.02658081054688,-79.77882385253906,244.8329620361328
1700075389,0.836456298828125,0.70660400390625,-0.360809326171875,0.8487217426300049,-0.7137807011604309,-1.4099479913711548,102.2455596923828,-78.88421630859375,244.58499145507807
1700075389,0.727783203125,0.6144561767578125,-0.3541107177734375,0.908265233039856,-0.6041958928108215,-1.1324751377105713,101.7563934326172,-78.57585144042969,244.6352081298828
1700075389,0.6447906494140625,0.5485992431640625,-0.2945404052734375,0.9399771094322203,-0.4566618204116821,-0.8648263812065125,101.77586364746094,-78.142333984375,244.44064331054688
1700075389,0.6055908203125,0.4769134521484375,-0.2114410400390625,0.9257528781890868,-0.2792249917984009,-0.6462892889976501,102.07928466796876,-77.48483276367188,244.2633056640625
1700075389,0.6143951416015625,0.3846893310546875,-0.142242431640625,0.8022208213806152,-0.1096426099538803,-0.4686463177204132,102.00531005859376,-76.70571899414062,243.98638916015625
1700075389,0.6656646728515625,0.280548095703125,-0.1417999267578125,0.5603141784667969,0.0298417843878269,-0.2630875706672668,101.83853149414062,-76.29583740234375,243.6473846435547
1700075389,0.717132568359375,0.203521728515625,-0.215057373046875,0.2666963934898376,0.1217011362314224,-0.0189678315073251,101.6572265625,-75.71360778808594,243.54156494140625
1700075389,0.7525482177734375,0.1628875732421875,-0.32611083984375,-0.0204578712582588,0.1752676963806152,0.2448760569095611,101.8385009765625,-74.81983947753906,243.0487060546875
1700075389,0.7794342041015625,0.13836669921875,-0.4243927001953125,-0.2901924252510071,0.2022151499986648,0.453685998916626,101.75112915039062,-74.2991943359375,243.26901245117188
1700075389,0.7917327880859375,0.0976409912109375,-0.5096435546875,-0.6186373829841614,0.2242418974637985,0.5957776308059692,101.60690307617188,-73.4031982421875,242.7975311279297
1700075389,0.7567596435546875,0.047943115234375,-0.575042724609375,-0.9552239179611206,0.257922351360321,0.7073832750320435,101.41563415527344,-72.49327087402344,242.4674835205078
1700075389,0.6696319580078125,-0.0074920654296875,-0.551849365234375,-1.2409323453903198,0.3815787732601166,0.8176690340042114,101.20729064941406,-71.65644836425781,242.29473876953125
1700075389,0.5612945556640625,-0.0599822998046875,-0.5061492919921875,-1.4277549982070925,0.5859233736991882,1.0121279954910278,100.84634399414062,-70.760498046875,242.33059692382807
1700075389,0.439453125,-0.0324859619140625,-0.4893646240234375,-1.58294939994812,1.1096577644348145,1.241141676902771,100.8144989013672,-69.56224060058594,241.8067321777344
1700075389,0.2817230224609375,0.158721923828125,-0.79107666015625,-1.1092936992645264,1.054478883743286,1.5740070343017578,100.78445434570312,-68.3997802734375,241.4762115478516
1700075389,0.321441650390625,0.44476318359375,-0.640045166015625,-0.4082700610160827,1.7751401662826538,1.652246117591858,100.24749755859376,-67.59500122070312,241.47946166992188
1700075389,0.7007904052734375,0.524017333984375,-0.9097747802734376,1.5328435897827148,5.289453983306885,2.0966949462890625,100.2236328125,-66.32032775878906,241.28204345703125
1700075389,-0.1793060302734375,1.058502197265625,-3.731765747070313,1.1872483491897583,-0.537139356136322,3.307549476623535,99.72671508789062,-65.57807922363281,241.4782257080078
1700075389,1.918853759765625,1.721160888671875,0.2584381103515625,0.0793467536568641,-0.624639630317688,0.9276705980300904,99.75265502929688,-64.87051391601562,240.6150817871093
1700075389,4.8697052001953125,-0.7376251220703125,0.57977294921875,1.3315640687942505,1.826899170875549,-0.7315344214439392,99.4381866455078,-63.46931457519531,240.10177612304688
1700075389,2.93048095703125,-1.6424102783203125,0.2316436767578125,1.900973916053772,2.202699422836304,-0.3540169298648834,99.03907775878906,-62.5494384765625,240.3353271484375
1700075389,1.242340087890625,-0.9184417724609376,1.2581787109375,1.0897185802459717,1.6495311260223389,0.6919505000114441,98.55015563964844,-61.44755554199219,240.0613708496093
1700075389,0.561279296875,-0.4072265625,0.316009521484375,-0.374177873134613,1.051463961601257,1.3946130275726318,98.43983459472656,-60.47727966308594,239.9960327148437
1700075389,0.3800048828125,-0.44183349609375,-0.285736083984375,-1.314660668373108,1.2451114654541016,1.3518205881118774,97.89439392089844,-59.33476257324219,240.1641387939453
1700075389,0.761688232421875,-0.7621002197265625,-0.3863372802734375,-1.3458495140075684,1.3323595523834229,1.1206110715866089,97.4093017578125,-58.08248901367188,240.3957977294922
1700075389,1.4168853759765625,-0.83465576171875,-0.0849456787109375,-1.3364934921264648,1.156987190246582,1.7636302709579468,97.06427001953124,-57.03767395019531,240.2278747558593
1700075389,1.7445831298828125,-0.11309814453125,-0.17626953125,-1.0045642852783203,0.8180314898490906,2.424423933029175,96.72267150878906,-55.934661865234375,240.329330444336
1700075389,1.8499603271484373,0.4183349609375,-0.222442626953125,-0.4828766286373138,0.0558376982808113,2.310708999633789,96.08659362792967,-54.76094055175781,240.64483642578125
1700075389,1.6809234619140625,0.646148681640625,0.0080108642578125,-0.508453369140625,-0.1758929938077926,1.7353689670562744,95.50065612792967,-53.446197509765625,241.23776245117188
1700075389,1.3354034423828125,0.8782806396484375,0.0118408203125,-0.9986965656280518,0.4417100250720978,1.112550139427185,95.21646118164062,-52.33879089355469,241.313217163086
1700075389,1.3183441162109375,0.8668670654296875,0.09576416015625,-0.2423149049282074,1.1268726587295532,0.4011572897434234,94.5001983642578,-51.190673828125,241.98309326171875
1700075389,1.697113037109375,0.0634307861328125,0.23931884765625,0.4706521928310394,1.2938268184661863,0.3550513088703155,94.0521240234375,-50.13204956054688,242.3753356933593
1700075389,1.7165374755859375,0.095428466796875,-0.1428375244140625,0.4263782203197479,0.8545324802398682,0.81830894947052,93.83729553222656,-49.14012145996094,242.25997924804688
1700075389,1.3699493408203125,0.4890289306640625,-0.6143951416015625,0.2826758921146393,0.276608943939209,0.8336708545684814,93.2481689453125,-48.31939697265625,243.2811279296875
1700075389,1.11602783203125,0.3218841552734375,-0.7470703125,0.0797174647450447,-0.0477073341608047,0.5390046238899231,93.47052001953124,-48.17428588867188,243.2012176513672
1700075389,0.9318695068359376,0.2034454345703125,-0.6925201416015625,0.0790322348475456,-0.0596705190837383,0.3230949640274048,92.49246215820312,-47.83186340332031,243.93316650390625
1700075389,0.7937469482421875,0.23883056640625,-0.4144134521484375,0.1855826526880264,0.0327560827136039,0.3005563616752624,92.40591430664062,-47.7286376953125,244.0447540283203
1700075389,0.712982177734375,0.1935577392578125,-0.2421875,0.1899752616882324,0.0458172895014286,0.364202469587326,92.33456420898438,-47.88322448730469,243.9679412841797
1700075389,0.75518798828125,0.10870361328125,-0.3019866943359375,0.1790280789136886,0.0117898136377334,0.4357490837574005,92.31730651855467,-47.95838928222656,243.6542510986328
1700075389,0.8692474365234375,0.107086181640625,-0.37384033203125,0.1288163065910339,0.0119666475802659,0.503151535987854,92.54762268066406,-48.01579284667969,243.954345703125
1700075389,0.940032958984375,0.0789337158203125,-0.3519287109375,0.0505755580961704,0.0955885723233223,0.5874999761581421,93.01580810546876,-48.77919006347656,244.2958984375
1700075389,0.9831085205078124,0.039581298828125,-0.2467803955078125,0.0400624647736549,0.2191888093948364,0.6767182946205139,93.69918823242188,-49.42892456054688,244.7018280029297
1700075389,0.969573974609375,0.00927734375,-0.1888275146484375,0.1114559546113014,0.3017199039459228,0.7589481472969055,94.19200134277344,-50.27656555175781,244.3512115478516
1700075389,0.9310455322265624,-0.03253173828125,-0.2318878173828125,0.2537513077259063,0.354943186044693,0.8520120978355408,95.4084014892578,-51.46858215332031,245.061264038086
1700075389,0.860626220703125,-0.0132598876953125,-0.3737030029296875,0.3370115756988525,0.3037947714328766,0.9423730969429016,95.62246704101562,-52.49241638183594,245.55059814453125
1700075389,0.801116943359375,0.0828094482421875,-0.423736572265625,0.3003768622875213,0.2482870370149612,0.9241898655891418,96.61935424804688,-53.93202209472656,245.36561584472656
1700075389,0.832061767578125,0.18597412109375,-0.3850555419921875,0.3187257945537567,0.2776763439178467,0.8715652823448181,97.67352294921876,-55.41484069824219,246.0518951416016
1700075389,0.882476806640625,0.278045654296875,-0.3110198974609375,0.427195280790329,0.3373556733131408,0.858128011226654,98.22962951660156,-56.82609558105469,245.9210968017578
1700075389,0.9468994140625,0.2990875244140625,-0.2221832275390625,0.5734837651252747,0.4282384216785431,0.9183802008628844,99.26408386230467,-58.71711730957031,246.2237091064453
1700075389,0.984954833984375,0.2381134033203125,-0.2220306396484375,0.6917691230773926,0.5080997347831726,1.0641025304794312,100.23429870605467,-59.958984375,246.9436950683593
1700075389,0.9926910400390624,0.133544921875,-0.2493896484375,0.7133386135101318,0.5837199091911316,1.2392120361328125,100.93954467773438,-61.82679748535156,246.92214965820312
1700075389,1.010040283203125,-0.004364013671875,-0.253265380859375,0.599166214466095,0.6453952193260193,1.4467201232910156,101.59944152832033,-63.70550537109375,247.6436920166016
1700075389,0.9793853759765624,-0.113922119140625,-0.2998809814453125,0.4120200574398041,0.6961281895637512,1.700648307800293,102.2016143798828,-65.541015625,248.37551879882807
1700075389,0.8061676025390625,-0.1641845703125,-0.458160400390625,0.3900186121463775,0.7276975512504578,1.9403057098388672,102.74137878417967,-67.48054504394531,248.74855041503903
1700075389,0.6067352294921875,-0.04718017578125,-0.580352783203125,0.4463556408882141,0.67447429895401,1.917639970779419,102.80604553222656,-68.90913391113281,249.2699432373047
1700075389,0.6463165283203125,0.2630615234375,-0.4154052734375,0.4413835406303406,0.70929354429245,1.75408673286438,102.99552917480467,-71.0858154296875,249.4874420166016
1700075389,0.77606201171875,0.5982513427734375,-0.220733642578125,0.5703660249710083,0.8088446259498596,1.5968140363693235,103.52064514160156,-72.66012573242188,250.58206176757807
1700075389,0.9304656982421876,0.7861175537109375,-0.1577301025390625,0.91438889503479,0.8755062222480774,1.5901135206222534,104.06011962890624,-74.24740600585938,250.9385223388672
1700075389,1.19427490234375,0.708282470703125,-0.26812744140625,1.195392608642578,0.8188402652740479,1.7109776735305786,103.78434753417967,-76.32698059082031,250.7194366455078
1700075389,1.4669647216796875,0.3887481689453125,-0.324737548828125,1.1312147378921509,0.8124215006828308,1.9157336950302124,103.74452209472656,-77.45123291015625,251.45314025878903
1700075389,1.5435943603515625,0.0406951904296875,-0.33392333984375,0.8832141757011414,0.8696137070655823,2.251307725906372,103.55532836914062,-79.34010314941406,251.6478271484375
1700075389,1.072723388671875,-0.1851043701171875,-0.5256195068359375,0.8202935457229614,0.955935001373291,2.561246633529663,103.7463836669922,-80.58566284179688,252.13348388671875
1700075389,0.5651397705078125,-0.128997802734375,-0.6618804931640625,0.8274633288383484,0.92097806930542,2.623953104019165,103.6033172607422,-82.42051696777344,252.7261962890625
1700075389,0.5453338623046875,0.3176422119140625,-0.5852508544921875,0.8813963532447815,0.9210745096206664,2.3896703720092773,103.73703002929688,-83.92561340332031,252.8057861328125
1700075389,0.501220703125,0.71771240234375,-0.3568115234375,1.048588752746582,1.0103322267532349,2.059911727905273,103.18553161621094,-85.06866455078125,253.53163146972656
1700075389,0.56207275390625,0.9503631591796876,-0.157623291015625,1.2935068607330322,0.9895060062408448,1.9380507469177248,102.9676513671875,-85.88768005371094,253.90597534179688
1700075389,0.91119384765625,0.96246337890625,-0.157135009765625,1.2598168849945068,0.8940466046333313,2.0068624019622803,103.11587524414062,-86.80281066894531,254.8199462890625
1700075389,1.242462158203125,0.717864990234375,-0.3162689208984375,0.885993480682373,0.7948340177536011,2.172241449356079,102.8883056640625,-87.55085754394531,254.7490692138672
1700075389,1.3643341064453125,0.45281982421875,-0.4951324462890625,0.5717077255249023,0.675743818283081,2.424527168273926,102.85408020019533,-87.82325744628906,254.7518615722656
1700075389,1.33599853515625,0.2977142333984375,-0.5582733154296875,0.4616206288337707,0.5687636137008667,2.6210360527038574,102.9216766357422,-88.29292297363281,254.95196533203125
1700075389,1.2352752685546875,0.31903076171875,-0.5897369384765625,0.4202627837657928,0.485924631357193,2.6395108699798584,102.68858337402344,-88.55020141601562,254.5501403808593
1700075389,1.1965789794921875,0.4098358154296875,-0.6163787841796875,0.5123863220214844,0.442027747631073,2.583951473236084,102.85848999023438,-88.90771484375,254.9231414794922
1700075390,1.12359619140625,0.501953125,-0.62890625,0.6145883202552795,0.3549146950244903,2.4508216381073,102.35858154296876,-89.73373413085938,254.54058837890625
1700075390,1.226654052734375,0.553131103515625,-0.625640869140625,0.6721972823143005,0.1901584863662719,2.244792222976685,102.74244689941406,-89.98124694824219,254.7589111328125
1700075390,1.465972900390625,0.501007080078125,-0.558441162109375,0.7073789834976196,0.0581261552870273,2.084137201309204,102.391845703125,-89.88218688964844,253.9686584472656
1700075390,1.593414306640625,0.4148406982421875,-0.5301971435546875,0.5749732851982117,0.0070861391723155,2.032496452331543,102.74577331542967,-90.3428192138672,253.8494110107422
1700075390,1.4991302490234375,0.399169921875,-0.58441162109375,0.3745799958705902,-0.0092195970937609,1.8448675870895384,102.95059204101562,-90.12379455566406,253.5325469970703
1700075390,1.305267333984375,0.311737060546875,-0.6351165771484375,0.45958411693573,0.0306050479412078,1.3167850971221924,102.47239685058594,-90.06484985351562,252.8715209960937
1700075390,1.092071533203125,0.064697265625,-0.5335235595703125,0.3954488039016723,0.0549338236451149,1.1500909328460691,102.42742919921876,-90.03475952148438,252.15249633789065
1700075390,0.6519317626953125,0.1175537109375,-0.5216217041015625,-0.0446340478956699,0.1615694612264633,1.1407743692398071,102.2464599609375,-89.54777526855469,251.4950561523437
1700075390,0.155303955078125,0.302093505859375,-0.662109375,-0.3461281061172485,0.1892482191324234,0.6753361225128174,102.43185424804688,-89.32981872558594,251.0888671875
1700075390,-0.0218963623046875,0.20465087890625,-0.5283660888671875,-0.2341794818639755,0.0049817091785371,-0.0254105515778064,102.89010620117188,-89.22238159179688,250.6614532470703
1700075390,-0.1011199951171875,0.062896728515625,-0.11053466796875,0.2704722285270691,-0.2087689191102981,-0.6793082356452942,102.66763305664062,-88.59904479980469,250.19705200195312
1700075390,-0.2502288818359375,-0.118499755859375,0.3001556396484375,0.7298158407211304,-0.4236660599708557,-1.2718548774719238,102.01060485839844,-87.41635131835938,247.41580200195312
1700075390,-0.25927734375,-0.27447509765625,0.4303131103515625,0.460969477891922,-0.5166745781898499,-1.919196367263794,102.11061096191406,-86.10322570800781,246.999267578125
1700075390,-0.008514404296875,-0.3771514892578125,0.0263824462890625,0.0397641919553279,-0.4979751706123352,-2.4921648502349854,102.68190002441406,-85.97560119628906,247.60118103027344
1700075390,0.1444091796875,-0.4993896484375,-0.2247772216796875,-0.1246223524212837,-0.4476576745510101,-2.9294793605804443,102.6044464111328,-86.30593872070312,247.2401733398437
1700075390,0.285888671875,-0.6204376220703125,-0.16046142578125,-0.2003626525402069,-0.4968502521514892,-3.136577844619751,102.00773620605467,-85.93925476074219,245.687728881836
1700075390,0.477203369140625,-0.599090576171875,-0.0398101806640625,-0.4364708065986633,-0.617091953754425,-3.166990280151367,101.80685424804688,-85.56275939941406,245.13784790039065
1700075390,0.6076202392578125,-0.3590087890625,-0.018951416015625,-0.6796326041221619,-0.7384911179542542,-3.26320743560791,101.52084350585938,-85.28684997558594,244.2078399658203
1700075390,0.6934814453125,-0.1219482421875,-0.040924072265625,-0.8431439995765686,-0.8009893894195557,-3.4667654037475586,101.15086364746094,-85.17723083496094,243.68536376953125
1700075390,0.7217254638671875,0.043121337890625,-0.031768798828125,-0.9902713894844056,-0.8204573392868042,-3.698896169662476,100.99552917480467,-85.22352600097656,243.35240173339844
1700075390,0.7294921875,0.183258056640625,-0.0446319580078125,-1.180976629257202,-0.8891066908836365,-3.9095284938812256,101.00059509277344,-85.18428039550781,243.03839111328125
1700075390,0.7695159912109375,0.2754058837890625,-0.068359375,-1.370017409324646,-0.9944248795509338,-4.124847412109375,100.6023406982422,-84.86602783203125,242.20855712890625
1700075390,0.8375091552734375,0.2795562744140625,-0.1092376708984375,-1.4596245288848877,-1.054487705230713,-4.307857036590576,100.97804260253906,-83.94674682617188,242.8035125732422
1700075390,0.884368896484375,0.269805908203125,-0.1999359130859375,-1.3969545364379885,-1.1015150547027588,-4.4178147315979,101.2196044921875,-84.00486755371094,242.86024475097656
1700075390,0.9090118408203124,0.310211181640625,-0.279571533203125,-1.03521466255188,-1.251950979232788,-4.478300094604492,101.00244140625,-83.11930847167969,243.0448303222656
1700075390,0.942169189453125,0.3924713134765625,-0.24798583984375,-0.2379371970891952,-1.4417725801467896,-4.456936836242676,101.36979675292967,-82.88233947753906,241.9622344970703
1700075390,0.9941253662109376,0.552581787109375,-0.13128662109375,0.812548041343689,-1.5954848527908323,-4.379616737365723,101.14137268066406,-81.93301391601562,242.04849243164065
1700075390,1.0951080322265625,0.758270263671875,0.0012664794921875,1.410518765449524,-1.6885130405426023,-4.384430408477783,101.62265014648438,-81.2386474609375,242.139389038086
1700075390,1.2518157958984375,0.916473388671875,0.063873291015625,1.4702377319335938,-1.610755205154419,-4.404830932617188,101.1395263671875,-80.86376953125,242.1373443603516
1700075390,1.3625640869140625,1.0169219970703125,-0.011077880859375,1.3951365947723389,-1.3408944606781006,-4.33156156539917,101.21565246582033,-80.85702514648438,241.9683990478516
1700075390,1.3740692138671875,1.0598602294921875,-0.2266082763671875,1.163260817527771,-1.213265299797058,-4.199450492858887,101.25660705566406,-80.37104797363281,241.2617034912109
1700075390,1.373748779296875,1.0544891357421875,-0.339569091796875,0.7665427327156067,-1.1331928968429563,-4.129922866821289,101.05184936523438,-79.79763793945312,240.8560028076172
1700075390,1.3548431396484375,0.99884033203125,-0.4791107177734375,0.2752294540405273,-0.984855890274048,-4.028987407684326,101.43067932128906,-79.38270568847656,241.1137084960937
1700075390,1.2250823974609375,0.9335479736328124,-0.6467437744140625,-0.1404018551111221,-0.9549022316932678,-3.8727831840515137,101.27775573730467,-79.13572692871094,240.1274871826172
1700075390,1.126220703125,0.8285369873046875,-0.589996337890625,-0.3623467683792114,-1.0541324615478516,-3.593144178390503,101.35426330566406,-78.21365356445312,240.80226135253903
1700075390,1.1266937255859375,0.7748260498046875,-0.4185333251953125,-0.4950576722621918,-1.1201587915420532,-3.263218402862549,101.5280303955078,-77.673583984375,240.68785095214844
1700075390,1.1158599853515625,0.75091552734375,-0.341766357421875,-0.3240947127342224,-1.1185966730117798,-2.879272699356079,101.470703125,-77.52505493164062,240.34190368652344
1700075390,1.082916259765625,0.7647857666015625,-0.3079681396484375,0.1100226417183876,-1.1599448919296265,-2.4869327545166016,101.3833465576172,-77.00436401367188,240.02169799804688
1700075390,1.0691986083984375,0.7979736328125,-0.2383270263671875,0.508141279220581,-1.1897504329681396,-2.208496570587158,101.37832641601562,-76.74481201171875,239.4231109619141
1700075390,1.0974273681640625,0.80413818359375,-0.254913330078125,0.8411192297935486,-1.1429309844970703,-2.041268110275269,101.0449676513672,-76.38882446289062,239.9267578125
1700075390,1.111236572265625,0.809112548828125,-0.320465087890625,1.056886076927185,-1.011968970298767,-1.8816543817520144,101.01425170898438,-75.98138427734375,239.4489288330078
1700075390,1.0618438720703125,0.8004150390625,-0.40167236328125,1.1307648420333862,-0.8352064490318298,-1.6872656345367432,101.28474426269533,-75.15771484375,239.5701446533203
1700075390,0.9626922607421876,0.7413330078125,-0.472869873046875,1.110162615776062,-0.6161050200462341,-1.440680980682373,101.18084716796876,-74.37506103515625,239.4017944335937
1700075390,0.8357391357421875,0.6476593017578125,-0.5424652099609375,1.05158531665802,-0.3887253701686859,-1.18756103515625,100.96226501464844,-73.93115234375,238.62600708007807
1700075390,0.7298583984375,0.53570556640625,-0.6066131591796875,1.0331557989120483,-0.1887643188238144,-0.8933445811271667,100.76315307617188,-72.43583679199219,238.5909576416016
1700075390,0.654449462890625,0.45849609375,-0.6189422607421875,1.061750411987305,0.0399894937872886,-0.5501006841659546,101.06700134277344,-71.95486450195312,237.99850463867188
1700075390,0.5773773193359375,0.4223175048828125,-0.6348114013671875,1.1420217752456665,0.2280414253473281,-0.203582152724266,100.43116760253906,-71.03579711914062,237.80569458007807
1700075390,0.548583984375,0.3849334716796875,-0.6204986572265625,1.26011323928833,0.3535830974578857,0.1314951777458191,99.75666809082033,-70.48773193359375,236.86920166015625
1700075390,0.6190185546875,0.3317718505859375,-0.563507080078125,1.3971869945526123,0.4465495347976684,0.4238271713256836,99.60751342773438,-69.57209777832031,236.7887725830078
1700075390,0.7200469970703125,0.2454833984375,-0.5170745849609375,1.464249610900879,0.5288185477256775,0.7186380624771118,99.66123962402344,-68.9981689453125,236.24961853027344
1700075390,0.774322509765625,0.185760498046875,-0.5047760009765625,1.3547940254211426,0.996281623840332,0.9104498028755188,99.29727172851562,-68.09684753417969,236.29823303222656
1700075390,0.7001953125,0.1123504638671875,-0.781707763671875,1.2761238813400269,1.194438934326172,1.0635312795639038,99.07283020019533,-67.18487548828125,235.6342163085937
1700075390,0.5678863525390625,0.063385009765625,-0.84747314453125,1.4010248184204102,1.101548433303833,1.036048173904419,98.51531982421876,-65.76976013183594,235.1349639892578
1700075390,0.8489532470703125,-0.130340576171875,-0.4774932861328125,1.1829471588134766,2.492002487182617,1.476951003074646,98.31552124023438,-64.95594787597656,235.37112426757807
1700075390,0.5824432373046875,0.1509552001953125,-1.38470458984375,1.466747164726257,3.084293365478516,2.3431527614593506,98.08978271484376,-63.51457214355469,234.9644927978516
1700075390,-0.03900146484375,0.807708740234375,-2.0338287353515625,0.5993220210075378,-0.4956760704517364,2.5902466773986816,97.2346649169922,-62.61366271972656,234.5352783203125
1700075390,2.32733154296875,0.266571044921875,1.194305419921875,-0.5919679999351501,-0.0420246832072734,0.9079565405845642,96.33328247070312,-61.56050109863281,234.32432556152344
1700075390,3.649673461914064,-1.2254791259765625,0.5405731201171875,-0.3935883045196533,1.6017001867294312,0.2436123937368393,96.34788513183594,-60.45167541503906,234.0565795898437
1700075390,2.3216705322265625,-1.331573486328125,0.2838592529296875,-0.6274820566177368,1.535449504852295,1.0828425884246826,95.81201171875,-59.2042236328125,234.3094482421875
1700075390,1.2511749267578125,-0.8053741455078125,0.5645751953125,-0.9544710516929626,1.2408037185668943,2.215739250183105,95.38983154296876,-58.78849792480469,233.417221069336
1700075390,0.8325653076171875,-0.58428955078125,0.0119171142578125,-0.9485162496566772,1.1727080345153809,2.553273677825928,95.170166015625,-57.88743591308594,233.2589263916016
1700075390,0.931854248046875,-0.6204986572265625,-0.1746978759765625,-1.0769517421722412,1.1417860984802246,2.436981678009033,94.55038452148438,-56.86627197265625,233.0389709472656
1700075390,1.0871429443359375,-0.360015869140625,-0.3578643798828125,-0.8565642237663269,0.9791111946105956,2.3582780361175537,93.74429321289062,-56.2943115234375,232.9823303222656
1700075390,1.3078460693359375,0.130584716796875,-0.385833740234375,-0.4731403887271881,0.4522297978401184,2.016961574554444,93.6805419921875,-55.19113159179688,232.76141357421875
1700075390,1.4263458251953125,0.52294921875,-0.403564453125,-0.3638890087604522,0.1223666593432426,1.4313830137252808,92.79135131835938,-54.255767822265625,232.93112182617188
1700075390,1.4792633056640625,0.803253173828125,-0.4589996337890625,-0.3425128757953644,0.1698697358369827,1.0123405456542969,92.3819580078125,-52.56813049316406,233.6315460205078
1700075390,1.385009765625,1.120452880859375,-0.119659423828125,-0.3846621811389923,0.4424117803573608,0.7154883146286011,91.82546997070312,-51.4251708984375,233.30245971679688
1700075390,1.43365478515625,0.9037017822265624,0.225830078125,-0.4310294091701507,0.7203946709632874,0.4942041337490082,91.6003875732422,-50.17472839355469,233.6035614013672
1700075390,1.766693115234375,0.2979583740234375,0.0281829833984375,-0.358382910490036,0.9332403540611268,0.3245309293270111,91.60787963867188,-49.35685729980469,234.0801696777344
1700075390,1.923797607421875,-0.0835723876953125,-0.2869720458984375,-0.2390674352645874,0.7162787318229675,0.7269484400749207,90.96707153320312,-48.274017333984375,234.3673095703125
1700075390,1.5524749755859375,-0.040252685546875,-0.446929931640625,-0.077724352478981,0.3387517035007477,1.2730789184570312,90.9217529296875,-47.61491394042969,235.12823486328125
1700075390,1.1111297607421875,-0.1301727294921875,-0.5140228271484375,0.2049792408943176,0.3289632499217987,1.4863908290863037,90.51589965820312,-46.9332275390625,234.7351837158203
1700075390,0.8112640380859375,-0.313323974609375,-0.4663848876953125,0.2822628617286682,0.4298008978366852,1.453926920890808,90.05183410644531,-46.779876708984375,235.06285095214844
1700075390,0.5317230224609375,-0.0675506591796875,-0.3921051025390625,0.2491509616374969,0.3780477046966553,1.2526921033859253,89.53460693359375,-46.439697265625,234.693115234375
1700075390,0.4277801513671875,0.366912841796875,-0.4335784912109375,0.2979709804058075,0.339512825012207,0.8597499132156372,89.23709106445312,-46.61607360839844,233.90692138671875
1700075390,0.5776519775390625,0.6286773681640625,-0.403167724609375,0.4547019898891449,0.40623539686203,0.5012479424476624,89.44999694824219,-46.94683837890625,233.8641357421875
1700075390,0.85076904296875,0.70794677734375,-0.2595062255859375,0.6202518343925476,0.4290339052677154,0.3330402672290802,89.35975646972656,-47.29684448242188,234.20216369628903
1700075390,1.095794677734375,0.433502197265625,-0.221343994140625,0.6289430260658264,0.4214287400245666,0.3413765132427215,90.70895385742188,-47.44404602050781,235.1269989013672
1700075390,1.1329345703125,0.116912841796875,-0.36541748046875,0.580634355545044,0.4174883067607879,0.5228488445281982,91.54470825195312,-47.97602844238281,235.67266845703125
1700075390,1.0482330322265625,-0.0536956787109375,-0.4518585205078125,0.462017685174942,0.4091358482837677,0.7855877876281738,92.54693603515624,-48.288330078125,236.05935668945312
1700075390,0.9810333251953124,-0.1458740234375,-0.4482574462890625,0.2382663637399673,0.3916894793510437,1.0451340675354004,93.599609375,-48.69911193847656,236.6509246826172
1700075390,0.905548095703125,-0.1263885498046875,-0.4794464111328125,0.0158127844333648,0.3484575748443603,1.2048145532608032,94.98744201660156,-49.78446960449219,237.0032958984375
1700075390,0.838104248046875,0.0194244384765625,-0.50604248046875,-0.0437136590480804,0.3536041378974914,1.1971814632415771,96.03591918945312,-50.9410400390625,236.93292236328125
1700075390,0.772918701171875,0.2209320068359375,-0.432098388671875,0.0082472767680883,0.4080269038677215,1.0821235179901123,97.06312561035156,-52.139007568359375,237.7916259765625
1700075390,0.73175048828125,0.4256134033203125,-0.314788818359375,0.1959218382835388,0.4815000593662262,0.8855535387992859,98.06996154785156,-53.24850463867188,238.4193725585937
1700075390,0.7477569580078125,0.5394134521484375,-0.246673583984375,0.5328490138053894,0.5749123096466064,0.7784057855606079,99.9821319580078,-54.825225830078125,238.8118438720703
1700075390,0.8195037841796875,0.5234222412109375,-0.2606201171875,0.794389009475708,0.628816545009613,0.7951306700706482,100.91551208496094,-56.76933288574219,238.26890563964844
1700075390,0.9250946044921876,0.36627197265625,-0.287750244140625,0.8808701038360596,0.689272940158844,0.90647292137146,101.96861267089844,-58.73591613769531,238.8902130126953
1700075390,1.005279541015625,0.1303253173828125,-0.3047943115234375,0.8192961812019348,0.7617279887199402,1.0825741291046145,103.3159637451172,-60.619659423828125,238.9403533935547
1700075390,1.0152740478515625,-0.07177734375,-0.410736083984375,0.7097127437591553,0.810387909412384,1.296194076538086,104.27865600585938,-62.57734680175781,239.5130615234375
1700075390,0.9815826416015624,-0.128204345703125,-0.5713958740234375,0.6802706718444824,0.820629894733429,1.4760884046554563,105.01609802246094,-64.56947326660156,239.9628448486328
1700075390,1.000091552734375,-0.0118255615234375,-0.5746612548828125,0.6648304462432861,0.8643885850906372,1.594397783279419,105.81712341308594,-67.06768798828125,240.4593963623047
1700075390,0.994110107421875,0.2208099365234375,-0.465423583984375,0.6601816415786743,0.9057232141494752,1.6066491603851318,106.88264465332033,-68.54304504394531,240.84689331054688
1700075390,0.9351043701171876,0.4417266845703125,-0.3671722412109375,0.7609388828277588,0.9696233868598938,1.5810338258743286,107.4642333984375,-70.68081665039062,241.7227783203125
1700075390,0.951934814453125,0.5845184326171875,-0.3075408935546875,0.8774383068084717,1.034900188446045,1.6069047451019287,108.03492736816406,-72.62100219726562,242.0912933349609
1700075390,1.1256103515625,0.5325775146484375,-0.2562255859375,0.9237826466560364,1.0728845596313477,1.7300235033035278,108.52032470703124,-74.37200927734375,242.51710510253903
1700075390,1.2444305419921875,0.2990570068359375,-0.310791015625,0.9991946220397948,1.142281413078308,1.910955190658569,109.05738830566406,-76.70445251464844,243.5626220703125
1700075390,1.098785400390625,0.0798797607421875,-0.47113037109375,1.042754888534546,1.212883234024048,2.0670359134674072,108.9523468017578,-79.00994873046875,243.89166259765625
1700075390,0.90496826171875,0.0701751708984375,-0.53289794921875,1.0896445512771606,1.2746647596359253,2.119374513626098,109.40013122558594,-81.23526000976562,244.727294921875
1700075391,0.85711669921875,0.2068939208984375,-0.519073486328125,1.171470284461975,1.3136420249938965,2.0864028930664062,109.38623046875,-83.48658752441406,244.7237548828125
1700075391,0.7781982421875,0.4019012451171875,-0.54296875,1.3122949600219729,1.342756271362305,1.956844925880432,109.25202941894533,-85.20155334472656,245.57958984375
1700075391,0.7404327392578125,0.5739898681640625,-0.5035552978515625,1.4198920726776123,1.3512578010559082,1.8610204458236688,109.1591796875,-86.50807189941406,246.1168212890625
1700075391,0.835052490234375,0.673309326171875,-0.40338134765625,1.4497876167297363,1.2967525720596311,1.817968249320984,109.21348571777344,-88.00369262695312,246.6727294921875
1700075391,0.9059600830078124,0.586639404296875,-0.340850830078125,1.5064154863357544,1.2399821281433103,1.8691813945770264,109.1716766357422,-89.20346069335938,247.2567138671875
1700075391,0.6864013671875,0.5028839111328125,-0.44573974609375,1.4334919452667236,1.1952471733093262,1.9532365798950195,109.07575988769533,-90.13824462890624,248.29559326171875
1700075391,0.63079833984375,0.5871124267578125,-0.529296875,1.503734469413757,1.1859482526779177,1.984031558036804,109.41714477539062,-91.50675964355467,248.5901794433593
1700075391,0.8469390869140625,0.615966796875,-0.44232177734375,1.6246768236160278,1.1828845739364624,2.0226571559906006,108.9227294921875,-92.26008605957033,248.60885620117188
1700075391,1.0594940185546875,0.560943603515625,-0.427947998046875,1.822662591934204,1.140036702156067,2.1186418533325195,109.00698852539062,-92.96974182128906,248.4570770263672
1700075391,1.20172119140625,0.4835968017578125,-0.5055084228515625,1.9602879285812376,0.9870542883872986,2.2364189624786377,108.77467346191406,-93.6320343017578,248.2230224609375
1700075391,1.36932373046875,0.4719085693359375,-0.6078948974609375,2.046254873275757,0.7905241847038269,2.34733510017395,109.05735778808594,-93.67759704589844,248.33694458007807
1700075391,1.58184814453125,0.470977783203125,-0.5959014892578125,1.9712214469909668,0.6656387448310852,2.3876757621765137,108.9937744140625,-93.59017944335938,247.91958618164065
1700075391,1.773162841796875,0.405487060546875,-0.4321136474609375,1.8244153261184688,0.5083225965499878,2.343064785003662,108.59408569335938,-94.32276916503906,247.7998504638672
1700075391,1.88287353515625,0.2292938232421875,-0.3325958251953125,1.6312825679779053,0.2330108880996704,2.222941637039185,109.18634033203124,-94.75253295898438,247.45877075195312
1700075391,1.7858734130859375,0.039306640625,-0.337493896484375,1.4341684579849243,-0.0200687833130359,2.08455753326416,108.8640594482422,-94.6196746826172,247.7781524658203
1700075391,1.40521240234375,-0.0145416259765625,-0.3790435791015625,1.2216564416885376,0.0640833750367164,1.9935004711151123,109.39767456054688,-94.74539184570312,247.3837127685547
1700075391,0.8645782470703125,0.064178466796875,-0.596527099609375,1.1383272409439087,0.2299788743257522,1.587743878364563,109.39305114746094,-94.52645874023438,247.1699066162109
1700075391,0.4498748779296875,0.0334014892578125,-0.7979278564453125,0.9521490335464478,0.3197734653949737,1.4208414554595947,109.57313537597656,-94.493408203125,246.9559936523437
1700075391,0.0474395751953125,0.2177276611328125,-0.9204254150390624,0.2842013537883758,0.6530656814575195,1.3201662302017212,109.8634033203125,-94.35928344726562,246.40626525878903
1700075391,-0.4403076171875,0.6078033447265625,-1.38970947265625,0.0665103197097778,0.9530814290046692,0.7804681062698364,110.051513671875,-94.23001098632812,245.6985626220703
1700075391,-0.651092529296875,0.882598876953125,-1.416748046875,0.094683364033699,0.9472041130065918,-0.0954487547278404,110.4918212890625,-94.3677215576172,245.30332946777344
1700075391,-0.327972412109375,0.901153564453125,-0.6003875732421875,0.4764941036701202,0.7376021146774292,-0.8408563733100891,110.57887268066406,-94.40789794921876,245.2892608642578
1700075391,0.087921142578125,0.3499755859375,0.0930328369140625,0.6438314318656921,0.5329387187957764,-1.805180907249451,110.61582946777344,-94.14981079101562,244.54360961914065
1700075391,0.400787353515625,-0.410064697265625,0.201568603515625,0.6466158032417297,0.4302485883235931,-2.6190617084503174,110.9014892578125,-93.72714233398438,243.2305450439453
1700075391,0.4501800537109375,-0.8315887451171875,0.2374725341796875,0.3724872767925262,0.4597721099853515,-2.704627752304077,109.74952697753906,-91.95645141601562,240.7732849121093
1700075391,0.2464447021484375,-0.7117156982421875,0.1516571044921875,-0.0394869558513164,0.4466832280158996,-2.5169272422790527,109.80325317382812,-90.35386657714844,238.9237365722656
1700075391,0.20269775390625,-0.334930419921875,-0.1504974365234375,-0.3272284567356109,0.4004233181476593,-3.048764944076538,110.29513549804688,-90.20436096191406,238.9143218994141
1700075391,0.4699554443359375,-0.2063446044921875,-0.2942047119140625,-0.5648239850997925,0.5263844132423401,-3.7565393447875977,109.72103881835938,-90.0048828125,238.04888916015625
1700075391,0.608917236328125,-0.041107177734375,-0.2847900390625,-0.7322995066642761,0.7114073038101196,-4.236301898956299,108.94044494628906,-89.345947265625,235.98745727539065
1700075391,0.6589813232421875,0.245391845703125,-0.167236328125,-0.746505856513977,0.6488624215126038,-4.488648414611816,108.22604370117188,-88.82197570800781,235.25396728515625
1700075391,0.8199615478515625,0.4807586669921875,0.0558624267578125,-0.5237715840339661,0.4862937331199646,-4.739492416381836,108.20957946777344,-88.39842224121094,234.0576171875
1700075391,1.0466156005859375,0.5286102294921875,0.2816314697265625,-0.0978381484746933,0.3684794902801513,-5.0272603034973145,108.01199340820312,-88.15109252929688,232.9186553955078
1700075391,1.1744537353515625,0.454803466796875,0.3662567138671875,0.4373371303081512,0.2558085918426513,-5.2349371910095215,107.55776977539062,-87.947509765625,232.65098571777344
1700075391,1.1872711181640625,0.4770660400390625,0.328216552734375,1.053870677947998,0.1792323440313339,-5.381430625915527,107.49371337890624,-87.82475280761719,232.50344848632807
1700075391,1.18695068359375,0.5652008056640625,0.286651611328125,1.6181446313858032,0.134659007191658,-5.521636009216309,107.50743103027344,-87.54409790039062,231.6432342529297
1700075391,1.23193359375,0.614715576171875,0.309661865234375,1.9783507585525515,0.0892127007246017,-5.623020648956299,107.43426513671876,-86.59669494628906,231.8558654785156
1700075391,1.2996978759765625,0.6414337158203125,0.36474609375,2.13723373413086,0.0611254051327705,-5.581833362579346,107.63258361816406,-85.96356201171875,231.99122619628903
1700075391,1.35589599609375,0.68359375,0.3968505859375,2.209148406982422,0.0431722365319728,-5.445767402648926,107.71469116210938,-85.73902893066406,231.5192413330078
1700075391,1.427734375,0.714691162109375,0.3491668701171875,2.390779495239258,0.0102379899471998,-5.378200531005859,107.3767547607422,-85.92149353027344,231.2652587890625
1700075391,1.5170440673828125,0.7185821533203125,0.1938323974609375,2.483506917953491,-0.1124138906598091,-5.466628074645996,107.40554809570312,-85.64047241210938,230.4271240234375
1700075391,1.599212646484375,0.718109130859375,0.0934600830078125,2.2258622646331787,-0.251946747303009,-5.473918914794922,106.68238830566406,-85.30081176757812,230.31802368164065
1700075391,1.6366729736328125,0.7549896240234375,0.1402740478515625,1.7124264240264893,-0.3137139678001404,-5.325780868530273,107.251220703125,-84.61917114257812,230.437240600586
1700075391,1.583984375,0.7830963134765625,0.2115631103515625,1.3325855731964111,-0.3395024240016937,-5.166391372680664,106.87576293945312,-84.06660461425781,230.5075225830078
1700075391,1.5601959228515625,0.673553466796875,0.186614990234375,1.1473997831344604,-0.480660617351532,-5.0361738204956055,107.0908660888672,-84.03057861328125,230.24624633789065
1700075391,1.543365478515625,0.5755767822265625,0.14837646484375,1.202104091644287,-0.7360354065895081,-4.932072162628174,107.13037109375,-84.21560668945312,230.1920928955078
1700075391,1.508087158203125,0.5285491943359375,0.17169189453125,1.5301271677017212,-0.91484135389328,-4.792054653167725,107.24522399902344,-83.40803527832031,230.20724487304688
1700075391,1.437255859375,0.5444488525390625,0.2163848876953125,1.8987739086151123,-0.9123971462249756,-4.681211948394775,107.30517578125,-83.14617919921875,229.6872711181641
1700075391,1.405517578125,0.6063232421875,0.13629150390625,2.21726942062378,-0.8662099242210388,-4.692326068878174,107.5180206298828,-82.78779602050781,230.0623321533203
1700075391,1.4383544921875,0.67132568359375,0.0141143798828125,2.5206239223480225,-0.8245642185211182,-4.76216983795166,107.23251342773438,-82.57124328613281,230.239013671875
1700075391,1.4549560546875,0.719940185546875,-0.0630950927734375,2.961301326751709,-0.7536226511001587,-4.808763980865479,107.27655029296876,-82.37310791015625,230.4298248291016
1700075391,1.4553985595703125,0.7122650146484375,-0.052520751953125,3.498723268508911,-0.7432299256324768,-4.726161003112793,107.55787658691406,-82.12799072265625,230.3420562744141
1700075391,1.4286346435546875,0.7210845947265625,0.011871337890625,3.960924863815308,-0.7169735431671143,-4.545331001281738,107.12596130371094,-81.57269287109375,229.75245666503903
1700075391,1.369354248046875,0.76556396484375,-0.00335693359375,4.258560657501221,-0.6205947995185852,-4.407504558563232,106.81588745117188,-80.82553100585938,229.66470336914065
1700075391,1.311065673828125,0.7047119140625,-0.1009063720703125,4.384521007537842,-0.6036467552185059,-4.179565906524658,106.9921417236328,-80.2469482421875,229.7733917236328
1700075391,1.2242279052734375,0.6576080322265625,-0.1136322021484375,4.354085922241211,-0.6212385296821594,-3.8485665321350098,107.01380920410156,-80.10984802246094,229.74679565429688
1700075391,1.1835174560546875,0.6038360595703125,-0.0919189453125,4.18968677520752,-0.5990450382232666,-3.4315359592437744,106.771240234375,-79.05265808105469,229.4085998535156
1700075391,1.1645965576171875,0.5941162109375,-0.0852508544921875,3.9963979721069336,-0.6397810578346252,-2.9802346229553223,106.80007934570312,-78.68911743164062,229.000717163086
1700075391,1.097900390625,0.6400146484375,-0.0191802978515625,3.596916437149048,-0.602292537689209,-2.546398162841797,106.91090393066406,-77.93513488769531,229.1395263671875
1700075391,1.007171630859375,0.6762542724609375,-0.066558837890625,3.043083667755127,-0.5750278830528259,-2.119061231613159,106.5626220703125,-77.23361206054688,228.7481689453125
1700075391,0.9276275634765624,0.6634674072265625,-0.15234375,2.340659141540528,-0.5611980557441711,-1.6366198062896729,106.04490661621094,-76.25350952148438,228.6763610839844
1700075391,0.904022216796875,0.6273040771484375,-0.239715576171875,1.5304802656173706,-0.5414363741874695,-1.095499038696289,106.22842407226562,-75.41462707519531,227.90530395507807
1700075391,0.8943634033203125,0.5817108154296875,-0.2828521728515625,0.6223229765892029,-0.5006257891654968,-0.5306910276412964,105.99102783203124,-74.47262573242188,228.46310424804688
1700075391,0.8439483642578125,0.5536041259765625,-0.31939697265625,-0.1472680121660232,-0.5417106747627258,-0.0207023490220308,105.93902587890624,-73.27851867675781,228.3332977294922
1700075391,0.7673797607421875,0.537078857421875,-0.318572998046875,-0.7979089021682739,-0.4548956155776977,0.3637821972370147,105.63069152832033,-72.49261474609375,227.6591796875
1700075391,0.741607666015625,0.52972412109375,-0.388397216796875,-1.235988736152649,-0.2509576678276062,0.736047625541687,104.83283996582033,-71.30644226074219,227.429443359375
1700075391,0.735321044921875,0.545623779296875,-0.5899505615234375,-1.27851140499115,-0.0782972052693367,1.113358974456787,105.0534210205078,-70.45877075195312,227.0047302246093
1700075391,0.626373291015625,0.6855621337890625,-0.7740325927734375,-0.7478371858596802,0.1777321845293045,0.9149750471115112,104.8379364013672,-69.33871459960938,226.6746520996093
1700075391,0.7500762939453125,0.4783172607421875,-0.999237060546875,0.3850749731063843,0.2066152244806289,-0.0847116932272911,104.36669921875,-68.12005615234375,226.6204071044922
1700075391,1.2306365966796875,-0.1731414794921875,-0.723602294921875,1.9036967754364007,-0.3175697028636932,-1.2297981977462769,103.98521423339844,-66.42591857910156,226.6554107666016
1700075391,1.9462738037109373,-0.8974609375,0.3476409912109375,1.4208449125289917,-0.1512230783700943,-0.8063780069351196,103.3939208984375,-65.28678894042969,226.4975433349609
1700075391,1.719696044921875,-0.873321533203125,0.1180572509765625,-0.1715331375598907,0.3768822848796844,1.034078598022461,102.92430114746094,-64.15951538085938,225.8615875244141
1700075391,1.1404876708984375,-0.4742889404296875,-0.7003631591796875,-1.428007960319519,0.6503047943115234,2.2177717685699463,102.20301818847656,-62.51570129394531,225.80113220214844
1700075391,1.0900421142578125,-0.60638427734375,-0.7643890380859375,-1.454453945159912,0.5432579517364502,2.342749118804932,101.61952209472656,-60.84088134765625,225.81539916992188
1700075391,0.9915313720703124,-0.7219085693359375,-0.6220550537109375,-0.7450134754180908,0.1835088431835174,1.9680485725402832,101.13639831542967,-59.91436767578125,225.60903930664065
1700075391,0.8195648193359375,-0.5310821533203125,-0.5198211669921875,-0.6994310617446899,0.0209156684577465,1.402296543121338,100.34771728515624,-58.24090576171875,225.6191864013672
1700075391,0.7288970947265625,-0.2023468017578125,-0.4716033935546875,-0.977297306060791,0.1984108239412307,1.1008543968200684,99.8516845703125,-57.18553161621094,225.0688018798828
1700075391,0.7646484375,0.1395263671875,-0.1700439453125,-1.227776050567627,0.371870756149292,0.9916016459465028,98.95684814453124,-55.81449890136719,225.75132751464844
1700075391,0.8527984619140625,0.3915863037109375,-0.1691131591796875,-0.9897637963294984,0.3392062783241272,0.8627784252166748,98.5982666015625,-54.886260986328125,225.20977783203125
1700075391,1.0057830810546875,0.4882049560546875,-0.325714111328125,-0.3040325939655304,0.1882607191801071,0.5807201266288757,97.73486328125,-53.30316162109375,225.72003173828125
1700075391,1.2032318115234375,0.4359893798828125,-0.286956787109375,0.3170565068721771,0.1521101742982864,0.3563919365406036,96.889404296875,-52.07283020019531,226.17678833007807
1700075391,1.2530059814453125,0.312744140625,-0.18951416015625,0.6078217625617981,0.2174734622240066,0.2465426623821258,96.3300323486328,-51.088165283203125,226.24246215820312
1700075391,1.1163177490234375,0.1101837158203125,-0.18426513671875,0.7121982574462891,0.2627418637275696,0.2439034730195999,95.87017822265624,-49.885498046875,227.1310577392578
1700075391,0.9819183349609376,-0.0738677978515625,-0.2156524658203125,0.7063707113265991,0.2484678626060485,0.2842833995819092,94.83462524414062,-48.78031921386719,227.5725555419922
1700075391,0.934722900390625,-0.1914215087890625,-0.2731170654296875,0.6426582932472229,0.2066096365451812,0.3284836113452911,94.35115051269533,-48.2662353515625,227.92149353027344
1700075391,0.9421234130859376,-0.256866455078125,-0.3173065185546875,0.568676769733429,0.1704231351613998,0.3589648306369781,93.67271423339844,-46.99201965332031,228.857650756836
1700075391,0.95172119140625,-0.2675018310546875,-0.3021240234375,0.4206478893756866,0.1842010021209716,0.4004696607589721,93.41241455078124,-46.66143798828125,229.48162841796875
1700075391,0.9306182861328124,-0.2251434326171875,-0.2797698974609375,0.280637264251709,0.1923934072256088,0.4124698638916015,93.15988159179688,-46.12269592285156,230.3441772460937
1700075391,0.90618896484375,-0.20037841796875,-0.2841796875,0.1858257949352264,0.1770325601100921,0.4123454988002777,91.7588348388672,-45.52293395996094,230.4462432861328
1700075391,0.8950347900390625,-0.19970703125,-0.337127685546875,0.1583126783370971,0.1213535889983177,0.4204185903072357,91.33283996582033,-44.96774291992188,231.1240997314453
1700075391,0.90411376953125,-0.1872406005859375,-0.3856048583984375,0.2141615599393844,0.0606031604111194,0.4358729124069214,90.94236755371094,-45.19845581054688,232.2279510498047
1700075391,0.947998046875,-0.149810791015625,-0.371368408203125,0.2986375689506531,0.029732596129179,0.409412533044815,90.40977478027344,-45.20513916015625,231.736572265625
1700075391,0.99273681640625,-0.087371826171875,-0.34185791015625,0.4528556168079376,0.02349653840065,0.3583688139915466,91.12347412109376,-45.72401428222656,232.4859771728516
1700075391,0.9971923828125,-0.0051116943359375,-0.316558837890625,0.5662796497344971,0.0273887477815151,0.2809981107711792,91.50624084472656,-46.13302612304688,232.4098663330078
1700075391,1.004791259765625,0.043304443359375,-0.2825927734375,0.5759536027908325,0.0513425506651401,0.1967700570821762,91.6198272705078,-46.60011291503906,232.93067932128903
1700075391,1.0041046142578125,0.0246124267578125,-0.264068603515625,0.5655443668365479,0.0660013854503631,0.1756186932325363,92.14564514160156,-47.43949890136719,232.970443725586
1700075391,0.9628143310546876,-0.0370635986328125,-0.2891845703125,0.5409636497497559,0.0400470197200775,0.2059361189603805,93.14483642578124,-48.99923706054688,233.3521270751953
1700075391,0.931182861328125,-0.1035614013671875,-0.3327178955078125,0.4736394584178924,0.0110246874392032,0.2441503554582595,93.90118408203124,-49.98646545410156,234.227783203125
1700075391,0.9327392578125,-0.1482391357421875,-0.34619140625,0.3764543235301971,-4.6871635277e-05,0.2798888981342315,94.3355712890625,-51.0570068359375,234.2061767578125
1700075391,0.941253662109375,-0.1646270751953125,-0.3172607421875,0.3450737595558166,-0.0011883024126291,0.3184762597084045,95.2206573486328,-52.72724914550781,234.5033721923828
1700075391,0.9342041015625,-0.1488800048828125,-0.2830352783203125,0.3973673284053802,0.0224206205457448,0.3434247374534607,95.68267822265624,-54.29571533203125,234.09182739257807
1700075392,0.9192962646484376,-0.116729736328125,-0.2788543701171875,0.4967120289802551,0.0362874343991279,0.3449848294258117,95.81777954101562,-56.24429321289063,234.3558654785156
1700075392,0.9234161376953124,-0.102447509765625,-0.24920654296875,0.5841241478919983,0.0688986405730247,0.3333699703216553,96.91061401367188,-58.015167236328125,234.47360229492188
1700075392,0.9368133544921876,-0.1202850341796875,-0.211761474609375,0.6469505429267883,0.0979196354746818,0.3339779675006866,96.78996276855467,-60.06950378417969,234.83267211914065
1700075392,0.9494476318359376,-0.1527862548828125,-0.2143402099609375,0.6809612512588501,0.0985995456576347,0.356549322605133,97.5733642578125,-62.22296142578125,235.1029510498047
1700075392,0.9481048583984376,-0.1574859619140625,-0.300506591796875,0.7253167033195496,0.0823558568954467,0.384237676858902,97.61875915527344,-64.63291931152344,235.5579071044922
1700075392,0.9404754638671876,-0.12445068359375,-0.387664794921875,0.702782392501831,0.0410547591745853,0.3867815434932709,97.74191284179688,-66.0968017578125,236.37440490722656
1700075392,0.943939208984375,-0.072357177734375,-0.4286346435546875,0.6061264276504517,0.0123243108391761,0.3767733871936798,98.30157470703124,-68.06936645507812,237.10910034179688
1700075392,0.94708251953125,-0.0063934326171875,-0.4104156494140625,0.488687664270401,0.006376673001796,0.3435206115245819,98.21395874023438,-68.91616821289062,238.0114898681641
1700075392,0.9604644775390624,0.0306396484375,-0.3594818115234375,0.4630400836467743,0.0214038249105215,0.3166021704673767,98.24021911621094,-69.9827880859375,238.24400329589844
1700075392,0.9635162353515624,0.015228271484375,-0.29364013671875,0.5147885084152222,0.0491558276116848,0.3071173429489136,98.06005859375,-71.26913452148438,239.8236389160156
1700075392,0.9592742919921876,-0.0616607666015625,-0.2101287841796875,0.5146747827529907,0.0931994542479515,0.3505423069000244,98.26976013183594,-72.35737609863281,240.38026428222656
1700075392,0.942108154296875,-0.126983642578125,-0.2376556396484375,0.4607273936271667,0.1029242500662803,0.4263113737106323,98.16897583007812,-73.8475341796875,240.5163726806641
1700075392,0.9377899169921876,-0.14923095703125,-0.3041229248046875,0.3848669826984405,0.1071565449237823,0.4919995665550232,97.58816528320312,-74.65315246582031,241.4941864013672
1700075392,0.9524688720703124,-0.1453399658203125,-0.355133056640625,0.3864947259426117,0.0881466343998909,0.5309981107711792,97.38336181640624,-75.90602111816406,241.6308135986328
1700075392,0.9504852294921876,-0.0913543701171875,-0.3763580322265625,0.4805122911930084,0.0698528513312339,0.5431652665138245,97.50282287597656,-77.74671936035156,242.0921173095703
1700075392,0.954315185546875,-0.0300445556640625,-0.3453521728515625,0.6137957572937012,0.0868539363145828,0.5408262014389038,96.87771606445312,-78.94155883789062,242.5753936767578
1700075392,0.9442138671875,0.0160064697265625,-0.291259765625,0.739770233631134,0.1254210323095321,0.5342546105384827,96.74205017089844,-79.68385314941406,243.62242126464844
1700075392,0.921630859375,0.0377349853515625,-0.249267578125,0.7582517862319946,0.1709618866443634,0.5486229062080383,96.73158264160156,-80.79368591308594,243.1448516845703
1700075392,0.9107208251953124,0.0220947265625,-0.2529754638671875,0.6595116257667542,0.2197155803442001,0.5816500782966614,96.56724548339844,-80.69023132324219,243.9952850341797
1700075392,0.90771484375,-0.0493927001953125,-0.279327392578125,0.4899255037307739,0.2560738623142242,0.6428902745246887,96.1768035888672,-81.78108215332031,244.61666870117188
1700075392,0.90167236328125,-0.143951416015625,-0.3179931640625,0.2976969182491302,0.2566203474998474,0.7291167974472046,96.07505798339844,-82.17984008789062,244.7792205810547
1700075392,0.911773681640625,-0.1704559326171875,-0.3705291748046875,0.1900953650474548,0.2251660078763961,0.7859270572662354,95.769287109375,-82.19764709472656,245.6587829589844
1700075392,0.942230224609375,-0.1123199462890625,-0.402496337890625,0.2114256918430328,0.192298874258995,0.7997997403144836,95.25845336914062,-82.28535461425781,245.3671112060547
1700075392,0.9724884033203124,0.005096435546875,-0.395294189453125,0.3575059473514557,0.1714655011892318,0.7914313077926636,95.34518432617188,-82.47331237792969,245.6855010986328
1700075392,0.97674560546875,0.13140869140625,-0.3518524169921875,0.5061915516853333,0.177060529589653,0.7405055165290833,94.9436492919922,-82.60531616210938,245.40907287597656
1700075392,0.9670867919921876,0.22021484375,-0.2987213134765625,0.6525120139122009,0.2195006608963012,0.7046892046928406,94.46926879882812,-82.50677490234375,244.7268218994141
1700075392,0.9355621337890624,0.2093353271484375,-0.2494354248046875,0.7635970115661621,0.2452262639999389,0.7354964017868042,94.26925659179688,-82.63555908203125,245.45361328125
1700075392,0.8986053466796875,0.11492919921875,-0.2796630859375,0.7398626208305359,0.2603428959846496,0.8263660669326782,93.74314880371094,-82.49652099609375,245.1464691162109
