timestamp,acc-x,acc-y,acc-z,gyr-x,gyr-y,gyr-z,mag-x,mag-y,mag-z
1699733101,10.841879200600001,1.9477575963999998,-0.0370887503,-0.1114829059711378,0.07834346679889546,0.099418317516727,-68.41566793335282,-31.29201987722888,16.237942122186492
1699733101,11.1960169454,2.8737799425999997,-0.2596212521,-0.02428189321837111,0.25686883266226546,0.11743884204356844,-68.51797719964922,-31.365097924583456,15.828705057000878
1699733101,11.1960169454,2.8737799425999997,-0.2596212521,-0.02428189321837111,0.25686883266226546,0.11743884204356844,-68.76644256065478,-31.4089447529962,16.0479391990646
1699733101,11.716455860899998,2.8785655878,-0.1806581063,0.139429990618697,0.32467487410224516,-0.010079276430267254,-68.34258988599825,-30.66354866997954,14.615609470914936
1699733101,11.716455860899998,2.8785655878,-0.1806581063,0.139429990618697,0.32467487410224516,-0.010079276430267254,-68.51797719964922,-31.0143232972815,13.899444606840106
1699733101,11.9844519921,2.1726829208,0.1292124204,0.3820962064928586,0.5311473246131744,-0.24602597468425066,-68.69336451330021,-31.42356036246711,14.191756796258403
1699733101,11.9844519921,2.1726829208,0.1292124204,0.3820962064928586,0.5311473246131744,-0.24602597468425066,-68.7810581701257,-31.43817597193803,13.826366559485532
1699733101,11.7583302564,0.9906285563999999,0.2596212521,0.3784310150636705,0.7489207820307667,-0.377667433515923,-68.73721134171295,-31.131248173048814,13.577901198479978
1699733101,11.7583302564,0.9906285563999999,0.2596212521,0.3784310150636705,0.7489207820307667,-0.377667433515923,-68.5910552470038,-31.131248173048814,12.481730488161356
1699733101,10.585847182399998,0.6987041992,1.0911271056,0.31535917921972545,0.8052731002545338,-0.30390545600351265,-68.5910552470038,-30.955860859397838,11.72171879567378
1699733101,10.585847182399998,0.6987041992,1.0911271056,0.31535917921972545,0.8052731002545338,-0.30390545600351265,-67.86027477345804,-30.941245249926926,11.254019292604502
1699733101,9.5042913672,0.6125625856,1.7754743692000001,-0.012675453692608817,0.9182831693211666,-0.004886921905584123,-67.93335282081263,-30.502776965799473,10.5670856474715
1699733101,9.5042913672,0.6125625856,1.7754743692000001,-0.4628831342445461,1.1012373081614721,0.48716502746291723,-68.12335574393452,-30.07892429114294,9.792458345513008
1699733101,8.6883388606,0.9188438784,2.0207386857,-0.4628831342445461,1.1012373081614721,0.48716502746291723,-68.57643963753289,-29.771996492253727,8.886290558316281
1699733101,8.49452023,1.3639088819999998,2.1798613886,-0.9546296509939485,1.1672107538868577,0.9868527923088938,-68.07950891552179,-29.07044723764981,7.99473838059047
1699733101,8.49452023,1.3639088819999998,2.1798613886,-0.9546296509939485,1.1672107538868577,0.9868527923088938,-68.37182110494008,-27.901198479976614,8.798596901490791
1699733101,8.650053698999999,2.0171494518,1.6618152957,-1.4908166138222565,1.1235338893556996,1.2531900361632284,-68.3133586670564,-26.96579947383806,7.600116924875768
1699733102,8.650053698999999,2.0171494518,1.6618152957,-1.4908166138222565,1.1235338893556996,1.2531900361632284,-67.84565916398714,-26.731949722303423,6.854720841859105
1699733102,9.487541608999999,2.3736800192,1.9250257817,-1.9802723859284164,0.8516988583575829,1.2304353060403523,-67.40719087985968,-25.738088278281207,6.547793042969892
1699733102,9.487541608999999,2.3736800192,1.9250257817,-1.9802723859284164,0.8516988583575829,1.2304353060403523,-67.91873721134172,-25.095001461560944,7.132417421806489
1699733102,9.8285188295,2.1667008643,2.5292134882000004,-1.9879082014058915,0.5250386722311942,1.1068878116148038,-67.7141186787489,-24.451914644840688,6.971645717626425
1699733102,9.8285188295,2.1667008643,2.5292134882000004,-1.9879082014058915,0.5250386722311942,1.1068878116148038,-67.39257527038878,-24.218064893306053,7.059339374451914
1699733102,9.8416793538,1.9585252981,2.548356069,-1.4402675153613707,0.3020728602889186,1.0315986710068985,-67.04180064308682,-23.633440514469452,6.664717918737212
1699733102,9.8416793538,1.9585252981,2.548356069,-1.4402675153613707,0.3020728602889186,1.0315986710068985,-66.74948845366852,-23.03420052616194,6.591639871382636
1699733102,9.932606612599999,2.021935097,1.9477575963999998,-0.7252497540505938,0.20922134408282025,0.9275988642036863,-66.89564454837766,-22.420344928383514,7.088570593393745
1699733102,9.932606612599999,2.021935097,1.9477575963999998,-0.3078760800517997,0.11682797680537042,0.8057312491831822,-67.53873136509793,-22.361882490499855,6.2554808535515924
1699733102,9.5258267706,2.7613172804,1.8017954178,-0.3078760800517997,0.11682797680537042,0.8057312491831822,-66.91026015784858,-21.572639579070447,7.07395498392283
1699733102,8.8582292652,2.0434705004000002,2.0985054202,-0.35399640553574985,0.027183503099811684,0.6579018615392626,-66.42794504530839,-21.36802104647764,6.840105232388191
1699733102,8.8582292652,2.0434705004000002,2.0985054202,-0.35399640553574985,0.027183503099811684,0.6579018615392626,-66.31102016954107,-21.309558608593978,7.468576439637532
1699733102,8.8163548697,0.430708068,2.0721843716,-0.38957930566078425,-0.1032362252554646,0.5193881687778625,-66.29640456007016,-21.265711780181235,7.702426191172172
1699733102,8.8163548697,0.430708068,2.0721843716,-0.38957930566078425,-0.1032362252554646,0.5193881687778625,-65.81408944752997,-21.35340543700672,7.570885705933937
1699733102,8.9216390641,-0.5838487144,1.6498511827,-0.21487184753615188,-0.1954768762233649,0.5131268000863328,-65.09792458345513,-20.92955276235019,7.804735457468577
1699733102,8.9216390641,-0.5838487144,1.6498511827,-0.21487184753615188,-0.1954768762233649,0.5131268000863328,-64.90792166033323,-20.271850336159016,8.184741303712364
1699733102,9.272187575,-2.0087745727,1.1246266219999999,-0.12935071418842975,-0.37308594422943786,0.5229006438975011,-64.55714703303128,-20.271850336159016,9.134755919321835
1699733102,9.272187575,-2.0087745727,1.1246266219999999,-0.12935071418842975,-0.37308594422943786,0.5229006438975011,-64.60099386144402,-19.80415083308974,10.245542239111371
1699733102,9.7686982645,-3.397808092,0.7992027483999999,0.139124557999598,-0.558941692951184,0.6699664499936733,-64.22098801520023,-19.073370359543993,9.5878398129202
1699733102,10.066604678200001,-3.505485109,0.8829515394,0.6806565916621387,-0.5513058774737088,0.8822421202674836,-64.06021631102017,-18.09412452499269,9.047062262496345
1699733102,10.066604678200001,-3.505485109,0.8829515394,0.6806565916621387,-0.5513058774737088,0.8822421202674836,-63.475591932183576,-17.451037708272434,10.33323589593686
1699733102,9.9397850804,-1.4488540843,1.7335999736999999,1.470658060961722,-0.30024026457432457,1.136362059357858,-63.387898275358076,-15.843320666471792,9.573224203449284
1699733102,8.9001036607,0.9559326287,1.6223337227999999,2.2033909141802415,0.01557706357404939,1.059087606725809,-62.788658287050566,-15.799473838059047,8.652440806781643
1699733102,8.9001036607,0.9559326287,1.6223337227999999,2.2033909141802415,0.01557706357404939,1.059087606725809,-62.48173048816136,-15.346389944460684,8.213972522654196
1699733102,8.0183485326,2.1750757434,1.5900306177,2.2889120475279636,0.024892758456569127,0.8278751140678603,-62.27711195556854,-15.083308973984217,7.892429114294067
1699733102,7.6773713121,2.8091737324,1.591227029,1.9740110172368868,-0.14202616788103856,0.5482515512827187,-62.130955860859395,-14.00175387313651,7.819351066939491
1699733102,7.6773713121,2.8091737324,1.591227029,1.9740110172368868,-0.14202616788103856,0.5482515512827187,-61.94095293773751,-14.410990938322128,7.6585793627594265
1699733102,7.1030938881,2.8941189347,1.8329021116,1.4398093664327223,-0.35017849779701227,0.2860376477862207,-61.94095293773751,-13.957907044723767,6.942414498684594
1699733102,7.1030938881,2.8941189347,1.8329021116,1.4398093664327223,-0.35017849779701227,0.2860376477862207,-62.07249342297574,-14.308681672025724,7.877813504823152
1699733102,7.6785677234,1.9752750562999999,2.3258235672,0.9668469557579088,-0.5128213674672338,0.04199698512611356,-61.99941537562116,-14.045600701549255,8.579362759427068
1699733102,7.6785677234,1.9752750562999999,2.3258235672,0.9668469557579088,-0.5128213674672338,0.04199698512611356,-61.70710318620286,-13.987138263665594,7.7755042385267465
1699733102,8.4323068424,0.8279166196,2.2432711875,0.735329030480861,-0.5470298208063228,-0.16951510359994926,-62.14557147033031,-14.016369482607423,8.564747149956153
1699733102,8.4323068424,0.8279166196,2.2432711875,0.4873177437724667,-0.5360342465187584,-0.2892446902867603,-61.85325928091201,-14.118678748903829,8.550131540485237
1699733102,9.1058864043,0.1519442351,2.1667008643,0.4873177437724667,-0.5360342465187584,-0.2892446902867603,-61.72171879567377,-14.615609470914936,8.667056416252558
1699733102,9.8416793538,-1.7575281996999998,2.3521446158,0.278859981237394,-0.4486805174564423,-0.3619376536323241,-61.72171879567377,-14.498684595147617,7.790119847997662
1699733102,9.8416793538,-1.7575281996999998,2.3521446158,0.278859981237394,-0.4486805174564423,-0.3619376536323241,-61.458637825197314,-14.790996784565916,8.667056416252558
1699733102,10.0319087505,-2.715853651,2.1320049366,0.48136180770003606,-0.22128593253723108,-0.3020728602889186,-61.41479099678456,-14.995615317158725,8.418591055247004
1699733102,10.0319087505,-2.715853651,2.1320049366,0.48136180770003606,-0.22128593253723108,-0.3020728602889186,-61.82402806197018,-14.717918737211342,7.848582285881321
1699733102,10.0414800409,-3.038884702,1.7479569093,0.6876815419014157,-0.12919799787888026,-0.16081027395562753,-61.151710026308095,-14.644840689856768,8.447822274188834
1699733102,10.0414800409,-3.038884702,1.7479569093,0.6876815419014157,-0.12919799787888026,-0.16081027395562753,-61.10786319789535,-14.3817597193803,9.383221280327389
1699733102,9.9385886691,-2.7170500623000002,1.6055839645999999,0.7481572004830193,-0.17440202550553338,-0.04321871560250958,-61.10786319789535,-14.937152879275065,8.243203741596025
1699733102,9.9385886691,-2.7170500623000002,1.6055839645999999,0.7481572004830193,-0.17440202550553338,-0.04321871560250958,-60.74247296112247,-14.279450453083895,8.433206664717918
1699733102,9.499505722,-2.1068802992999998,1.8819549749,0.6459899893944012,-0.2275473012287607,0.04459316238845512,-61.122478807366264,-14.294066062554808,8.535515931014324
1699733102,9.499505722,-2.1068802992999998,1.8819549749,0.6459899893944012,-0.2275473012287607,0.04459316238845512,-60.30400467699503,-14.016369482607423,8.22858813212511
1699733102,8.9946201534,-1.2969098492,2.1355941704999997,0.7495316472689648,-0.23671027980173096,0.04673119072214818,-60.72785735165156,-14.03098509207834,7.833966676410406
1699733102,8.829515394,-0.6759723845,1.9525432416,1.0346529971978884,-0.23029619480065178,-0.04321871560250958,-60.757088570593396,-14.367144109909383,8.097047646886875
1699733102,8.829515394,-0.6759723845,1.9525432416,1.0346529971978884,-0.23029619480065178,-0.04321871560250958,-60.698626132709734,-14.527915814089448,8.155510084770535
1699733102,9.0113699116,-1.1653046062,2.0315063874,1.0482447487477944,-0.2759583713559534,-0.17379116026733535,-60.30400467699503,-14.513300204618531,7.90704472376498
1699733102,9.0113699116,-1.1653046062,2.0315063874,1.0482447487477944,-0.2759583713559534,-0.17379116026733535,-60.43554516223326,-14.557147033031278,8.140894475299621
1699733102,9.2853480993,-1.7036896912000001,2.5746771176,0.836274511093083,-0.3700316180384478,-0.27427849195090886,-60.07015492546039,-14.14790996784566,8.681672025723474
1699733102,9.2853480993,-1.7036896912000001,2.5746771176,0.836274511093083,-0.3700316180384478,-0.27427849195090886,-60.377082724349606,-14.542531423560362,9.222449576147325
1699733102,9.6681997153,-1.160518961,1.6642081183,0.7687739022722023,-0.45799621233896204,-0.4127921847123089,-59.967845659163984,-15.112540192926044,9.938614440222157
1699733102,9.6681997153,-1.160518961,1.6642081183,0.7687739022722023,-0.45799621233896204,-0.4127921847123089,-59.967845659163984,-15.27331189710611,9.397836889798304
1699733102,12.227323486,0.0035892339,-0.3038884702,0.6517932091572823,-0.6229298266524261,-0.5907066853374808,-59.33937445191464,-15.755627009646304,9.14937152879275
1699733102,12.227323486,0.0035892339,-0.3038884702,0.6517932091572823,-0.6229298266524261,-0.5907066853374808,-59.73399590762934,-15.945629932768195,9.704764688687519
1699733102,13.1916309938,0.6723831506,-0.2943171798,0.5836817350982038,-0.8906415172927064,-0.7716755121536428,-59.93861444022216,-16.36948260742473,10.757088570593394
1699733102,13.1916309938,0.6723831506,-0.2943171798,0.5836817350982038,-0.8906415172927064,-0.7716755121536428,-59.617071031862025,-17.246419175679627,10.216311020169542
1699733102,11.4723879557,1.4141581566,2.1236300575,0.912021800629637,-0.8170322560898455,-0.7982481500152565,-59.64630225080386,-16.93949137679041,10.59631686641333
1699733102,11.4723879557,1.4141581566,2.1236300575,1.3571898429664406,-0.39645153959051194,-0.6339254009399904,-59.64630225080386,-17.363344051446948,10.157848582285881
1699733102,11.258230333,2.9754749031,2.368894374,1.3571898429664406,-0.39645153959051194,-0.6339254009399904,-59.51476176556562,-17.334112832505117,9.953230049693072
1699733102,10.4315101247,0.9391828704999999,-0.7633104094,0.8891143541972114,-0.22495112396641914,-0.32956179600782926,-58.988599824612685,-17.64104063139433,10.50862320958784
1699733102,10.4315101247,0.9391828704999999,-0.7633104094,0.8891143541972114,-0.22495112396641914,-0.32956179600782926,-59.0032154340836,-17.436422098801522,11.093247588424438
1699733102,9.0723868879,-0.7034898444000001,0.40677984199999995,-0.11362093430483085,-0.4141666314982544,0.0198531202414355,-58.74013446360713,-16.793335282081262,11.034785150540777
1699733102,9.0723868879,-0.7034898444000001,0.40677984199999995,-0.11362093430483085,-0.4141666314982544,0.0198531202414355,-58.886290558316276,-17.304881613563285,11.31248173048816
1699733102,8.129614783500001,1.7862420709,1.3100703735,0.12797626740248422,-0.45585818400526895,0.09330966513474685,-58.47705349313066,-16.954106986261326,11.239403683133586
1699733102,8.129614783500001,1.7862420709,1.3100703735,0.12797626740248422,-0.45585818400526895,0.09330966513474685,-58.37474422683427,-16.807950891552178,10.45016077170418
1699733102,7.53739119,4.6636112473999995,-0.3529413335,0.6910413007115048,-0.05146539631818279,-0.038179077387375956,-58.053200818474124,-16.734872844197604,11.31248173048816
1699733102,7.53739119,4.6636112473999995,-0.3529413335,0.6910413007115048,-0.05146539631818279,-0.038179077387375956,-58.19935691318327,-16.968722595732242,11.648640748319206
1699733102,8.5675013193,4.8909293944,-1.6701901747999999,0.5532911894978524,-0.006414085001079161,-0.08048149513258852,-57.965507161648645,-17.187956737795968,10.8593978368898
1699733102,8.5675013193,4.8909293944,-1.6701901747999999,0.5532911894978524,-0.006414085001079161,-0.08048149513258852,-58.287050570008766,-17.246419175679627,11.75095001461561
1699733102,10.2341022602,3.314059301,-2.3964118339,0.4103487237595168,-0.1432478983574346,-0.2264782870619142,-58.3162817889506,-17.46565331774335,12.130955860859398
1699733102,10.2341022602,3.314059301,-2.3964118339,0.4103487237595168,-0.1432478983574346,-0.2264782870619142,-58.08243203741596,-18.10874013446361,11.8386436714411
1699733102,11.2929262607,0.7992027483999999,-2.7661029256000003,0.3605632068463786,-0.39950586578150205,-0.7246388888123957,-58.19935691318327,-18.605670856474717,12.715580239695996
1699733102,11.2929262607,0.7992027483999999,-2.7661029256000003,0.22571470551416664,-0.6887505560682623,-1.050535493391037,-57.907044723764976,-19.424144986845953,12.715580239695996
1699733102,9.9577312499,-2.0362920326,-1.9393827173,0.22571470551416664,-0.6887505560682623,-1.050535493391037,-58.5062847120725,-19.234142063724057,12.84712072493423
1699733102,9.5449693514,-2.775674216,0.4749752861,0.37308594422943786,-0.9312640556328744,-0.8677340708602808,-57.54165448699211,-19.26337328266589,13.373282665887167
1699733102,9.5449693514,-2.775674216,0.4749752861,0.37308594422943786,-0.9312640556328744,-0.8677340708602808,-57.556270096463024,-19.643379128909675,13.607132417421807
1699733102,9.5018985446,-0.0801595571,1.2837493249,0.5667302247382087,-0.6354525640354854,-0.24129176908821603,-57.43934522069571,-18.868751826951183,13.650979245834552
1699733102,9.5018985446,-0.0801595571,1.2837493249,0.5667302247382087,-0.6354525640354854,-0.24129176908821603,-57.36626717334112,-18.897983045893014,13.91406021631102
1699733102,9.2315095908,2.9060830476999997,-0.7034898444000001,0.8819366876483846,-0.24052818754046854,0.11484266478122689,-57.42472961122479,-18.839520608009355,12.467114878690442
1699733102,9.2315095908,2.9060830476999997,-0.7034898444000001,0.8819366876483846,-0.24052818754046854,0.11484266478122689,-56.854720841859105,-19.234142063724057,13.73867290266004
1699733102,9.1369930981,3.2650064377,-1.5936198516,0.7466300373875243,-0.2538145064712754,0.022602013813326566,-57.30780473545747,-19.029523531131247,13.811750950014615
1699733102,9.1369930981,3.2650064377,-1.5936198516,0.7466300373875243,-0.2538145064712754,0.022602013813326566,-56.503946214557146,-19.526454253142354,14.542531423560362
1699733102,9.109475638200001,2.9826533709,-1.0360921858,0.3448334269627797,-0.3749185399440319,-0.07376197751241036,-56.986261327097345,-19.526454253142354,13.928675825781935
1699733102,9.109475638200001,2.9826533709,-1.0360921858,0.3448334269627797,-0.3749185399440319,-0.07376197751241036,-56.76702718503361,-19.65799473838059,14.674071908798597
1699733102,9.2674019298,2.2073788485,-0.5000999234,-0.15012013228716228,-0.46761733984058074,-0.1317941751412218,-56.32855890090617,-19.2779888921368,14.586378251973105
1699733102,9.2674019298,2.2073788485,-0.5000999234,-0.35582900125034395,-0.4338670354301404,-0.22540927289506765,-56.577024261911724,-19.89184448991523,15.03946214557147
1699733102,9.4193461649,1.3938191645,-0.5240281494,-0.35582900125034395,-0.4338670354301404,-0.22540927289506765,-56.88395206080094,-19.935691318327976,15.638702133878981
1699733102,9.4193461649,0.586241537,-0.7788637562999999,-0.35689801541719046,-0.38896844042258627,-0.316122760767473,-56.38702133878982,-20.5495469161064,15.536392867582578
1699733102,9.3690968903,0.586241537,-0.7788637562999999,-0.35689801541719046,-0.38896844042258627,-0.316122760767473,-56.59163987138264,-20.37415960245542,15.434083601286176
1699733102,9.2937229784,0.1639083481,-1.0037890807,-0.2759583713559534,-0.3885102914939378,-0.358272462203136,-59.55860859397837,-20.739549839228296,15.404852382344345
1699733102,9.2937229784,0.1639083481,-1.0037890807,-0.2759583713559534,-0.3885102914939378,-0.358272462203136,-55.37854428529669,-20.87109032446653,15.741011400175386
1699733102,9.4839523751,0.1962114532,-0.9403792818,-0.18768834443634022,-0.42699480150041275,-0.377362000896824,-55.919321835720545,-20.92955276235019,15.81408944752996
1699733103,9.4839523751,0.1962114532,-0.9403792818,-0.18768834443634022,-0.42699480150041275,-0.377362000896824,-56.08009353990061,-21.280327389652147,16.281788950599243
1699733103,9.5916293921,0.1136590735,-0.8386843212999999,-0.13347405454626635,-0.43875395733572453,-0.3975205537573585,-56.22624963460976,-21.484945922244957,16.778719672610347
1699733103,9.5916293921,0.1136590735,-0.8386843212999999,-0.13347405454626635,-0.43875395733572453,-0.3975205537573585,-55.71470330312774,-21.73341128325051,17.334112832505117
1699733103,9.4719882621,0.1579262916,-0.7549355303,0.07513642429835589,-0.40989057483086827,-0.43737951054977897,-55.831628178895066,-21.51417714118679,16.60333235895937
1699733103,9.4719882621,0.1579262916,-0.7549355303,0.07513642429835589,-0.40989057483086827,-0.43737951054977897,-55.6854720841859,-21.777258111663254,17.14410990938322
1699733103,9.4815595525,0.7226324252,-0.7345965382,0.3063489169563047,-0.39248091554222486,-0.43539419852563543,-55.61239403683133,-21.748026892721427,16.734872844197604
1699733103,9.4815595525,0.7226324252,-0.7345965382,0.3063489169563047,-0.39248091554222486,-0.43539419852563543,-55.37854428529669,-21.967261034785153,17.129494299912306
1699733103,9.4504528587,1.1222337994,-0.9942177902999999,0.3628539514896211,-0.3631593841087201,-0.4277583830481602,-54.83776673487284,-22.14264834843613,17.977199649225373
1699733103,9.4504528587,1.1222337994,-0.9942177902999999,0.20830504622552323,-0.3439171291054826,-0.4137084825696059,-55.17392575270389,-22.71265711780181,17.831043554516224
1699733103,9.272187575,1.519442351,-0.9882357338,0.20830504622552323,-0.3439171291054826,-0.4137084825696059,-55.042385267465654,-23.06343174510377,17.538731365097927
1699733103,9.272187575,1.8053846516999998,-0.5000999234,-0.07269296334556383,-0.3761402704204279,-0.36957346910979927,-54.95469161064016,-23.44343759134756,17.40719087985969
1699733103,9.3571327773,1.8053846516999998,-0.5000999234,-0.07269296334556383,-0.3761402704204279,-0.36957346910979927,-54.54545454545454,-23.121894182987432,17.55334697456884
1699733103,9.6933243526,2.0255243308999997,-0.2069791549,-0.2519819107566813,-0.378889163992319,-0.3477350368442202,-54.720841859105526,-23.633440514469452,18.53259280912014
1699733103,9.6933243526,2.0255243308999997,-0.2069791549,-0.2519819107566813,-0.378889163992319,-0.3477350368442202,-54.77930429698918,-23.6772873428822,18.313358667056416
1699733103,9.6012006825,1.4177473905,-0.7381857721,-0.42256602852347713,-0.2735149104031614,-0.399200433162403,-54.15083308973985,-23.7795966091786,18.927214264834845
1699733103,9.6012006825,1.4177473905,-0.7381857721,-0.42256602852347713,-0.2735149104031614,-0.399200433162403,-54.31160479391991,-24.524992692195262,18.24028061970184
1699733103,9.6167540294,0.3804587934,-1.9669001771999999,-0.44501532602725413,-0.08933904108645975,-0.5294674452081298,-54.37006723180357,-24.68576439637533,18.82490499853844
1699733103,9.6167540294,0.3804587934,-1.9669001771999999,-0.44501532602725413,-0.08933904108645975,-0.5294674452081298,-54.04852382344344,-24.87576731949722,18.64951768488746
1699733103,9.8715896363,-0.43190447930000003,-2.7696921595,-0.44425174447950666,0.01679879405044542,-0.6421720816556636,-54.25314235603624,-25.43116047939199,19.014907921660335
1699733103,9.8715896363,-0.43190447930000003,-2.7696921595,-0.44425174447950666,0.01679879405044542,-0.5493205654495653,-54.37006723180357,-25.16807950891552,18.941829874305757
1699733103,9.5521478192,-0.5527420206,-2.3557338497,-0.5054909846088577,-0.048411070127192715,-0.5493205654495653,-54.282373574978074,-25.504238526746565,18.79567377959661
1699733103,9.5521478192,-0.5527420206,-2.3557338497,-0.2515237618280328,-0.1357647991895089,-0.2617557545678496,-53.8146740719088,-25.241157556270092,19.248757673194973
1699733103,10.0331051618,0.5192425042,-1.5493526335,-0.2515237618280328,-0.1357647991895089,-0.2617557545678496,-54.09237065185618,-24.96346097632271,19.497223034200527
1699733103,11.916256548,1.8735800958,-1.2921242039999998,0.12247848025870207,-0.21731530848894395,-0.04444044607890562,-53.59543992984508,-25.387313650979248,20.00876936568255
1699733103,11.916256548,1.8735800958,-1.2921242039999998,0.12247848025870207,-0.21731530848894395,-0.04444044607890562,-53.71236480561239,-25.25577316574101,19.292604501607716
1699733103,12.4127672375,2.5076780847999998,-0.8877371846000001,0.319482519577562,-0.199447500271652,0.07315111227421234,-53.27389652148494,-25.12423268050278,20.271850336159016
1699733103,12.4127672375,2.5076780847999998,-0.8877371846000001,0.319482519577562,-0.199447500271652,0.07315111227421234,-53.054662379421224,-24.671148786904414,20.24261911721719
1699733103,13.015758532700001,2.1248264688,-0.5575276658,0.26878070480712674,-0.02871066619530672,0.02076941809873252,-52.70388775211926,-25.065770242619116,19.701841566793334
1699733103,13.015758532700001,2.1248264688,-0.5575276658,0.26878070480712674,-0.02871066619530672,0.02076941809873252,-53.551593101432324,-25.182695118386437,19.438760596316868
1699733103,12.825529136,1.2311072277,0.1519442351,-0.0914770694201528,0.25244005968532984,0.003665191429188092,-53.463899444606845,-25.48962291727565,19.89184448991523
1699733103,12.825529136,1.2311072277,0.1519442351,-0.0914770694201528,0.25244005968532984,0.003665191429188092,-53.2300496930722,-25.43116047939199,19.59953230049693
1699733103,12.0382905006,0.16630117069999997,0.40917266459999996,-0.5225952112784021,0.717766654882668,0.1275181184738357,-52.92312189418299,-25.211926337328265,18.26951183864367
1699733103,12.0382905006,0.16630117069999997,0.40917266459999996,-0.5225952112784021,0.717766654882668,0.1275181184738357,-53.59543992984508,-24.831920491084478,18.09412452499269
1699733103,10.998609080900001,0.3122633493,0.514456859,-0.6858489461868217,1.0514517912483339,0.4862487296056202,-53.39082139725227,-25.270388775211927,18.079508915521778
1699733103,10.998609080900001,0.3122633493,0.514456859,-0.6858489461868217,1.0514517912483339,0.4862487296056202,-53.405437006723176,-24.42268342589886,17.524115755627008
1699733103,10.2604233088,1.9226329591,1.4273186809,-0.7312056901230244,1.2214250437769316,0.9712757287348444,-53.72698041508331,-23.998830751242327,16.384098216895644
1699733103,10.2604233088,1.9226329591,1.4273186809,-0.8969028859842361,1.5347989109725135,1.2365439584223326,-53.785442852966966,-24.30575855013154,15.667933352820812
1699733103,9.427721044,3.2410782117,1.6295121905999999,-0.8969028859842361,1.5347989109725135,1.2365439584223326,-54.0046769950307,-23.516515638702135,15.054077755042385
1699733103,9.427721044,3.2410782117,1.6295121905999999,-1.123686605665249,1.7829629139904573,1.2977831985516837,-54.15083308973985,-23.531131248173047,14.644840689856768
1699733103,8.6763747476,4.2149570099,0.7692924659,-1.123686605665249,1.7829629139904573,1.2977831985516837,-53.69774919614147,-23.121894182987432,14.118678748903829
1699733103,8.538787448099999,4.8634119345,-0.251246373,-1.4413365295282172,1.6241379520589734,1.1652254418627144,-53.84390529085062,-23.35574393452207,13.636363636363635
1699733103,8.538787448099999,4.8634119345,-0.251246373,-1.4413365295282172,1.6241379520589734,1.1652254418627144,-53.82928968137971,-22.49342297573809,14.133294358374746
1699733103,9.148957211099999,4.7940200791,-0.2261217357,-1.753488666247403,1.1001682939946256,0.9892962532616858,-53.90236772873429,-22.71265711780181,12.96404560070155
1699733103,9.148957211099999,4.7940200791,-0.2261217357,-1.753488666247403,1.1001682939946256,0.9892962532616858,-54.04852382344344,-22.478807366267173,13.431745103770828
1699733103,9.9984092341,3.8584264425,0.7716852885,-1.7044667308820123,0.7429648459583362,0.9288205946800824,-54.18006430868167,-22.581116632563578,14.00175387313651
1699733103,9.9984092341,3.8584264425,0.7716852885,-1.7044667308820123,0.7429648459583362,0.9288205946800824,-53.87313650979246,-22.508038585209004,13.25635779011985
1699733103,10.3681003258,2.7302105866,1.5972090855,-1.4830280820352317,0.6849326483295247,0.8303185750206523,-53.960830166617946,-21.689564454837768,12.61327097339959
1699733103,10.3681003258,2.7302105866,1.5972090855,-1.4830280820352317,0.6849326483295247,0.8303185750206523,-54.26775796550716,-21.952645425314234,11.98479976615025
1699733103,9.5042913672,2.2588245344,1.5888342063999998,-1.4182763667862421,0.7278459313129353,0.8491026810952413,-53.610055539315994,-21.64571762642502,12.43788365974861
1699733103,9.5042913672,2.2588245344,1.5888342063999998,-1.3991868280925541,0.7040221870232126,0.8185594191853406,-54.23852674656533,-21.572639579070447,12.218649517684888
1699733103,8.9479601127,1.9633109433,1.2789636797000001,-1.3991868280925541,0.7040221870232126,0.8185594191853406,-54.25314235603624,-21.441099093832214,11.69248757673195
1699733103,8.9479601127,1.7431712641,1.2287144051,-1.6126842288427605,0.577725799025773,0.7816020722743606,-53.66851797719965,-21.484945922244957,12.07249342297574
1699733103,9.0831545896,1.7431712641,1.2287144051,-1.6126842288427605,0.577725799025773,0.7816020722743606,-53.37620578778135,-21.309558608593978,12.84712072493423
1699733103,9.178867493599999,0.6975077879,1.5601203352,-1.9269743938956394,0.31581732814837393,0.7744244057255341,-53.94621455714703,-21.10494007600117,12.920198772288805
1699733103,9.178867493599999,0.6975077879,1.5601203352,-1.9269743938956394,0.31581732814837393,0.7744244057255341,-53.62467114878691,-21.031862028646593,13.197895352236188
1699733103,9.286544510599999,-0.8877371846000001,1.6295121905999999,-1.7223345390993043,0.08261952346628157,0.7782423134642716,-53.551593101432324,-21.10494007600117,12.642502192341421
1699733103,9.286544510599999,-0.8877371846000001,1.6295121905999999,-1.7223345390993043,0.08261952346628157,0.7782423134642716,-53.59543992984508,-21.10494007600117,12.510961707103185
1699733103,9.1369930981,-1.6187444889,1.3483555351,-0.9595165728995326,0.14370604728608313,0.7912231997759794,-53.551593101432324,-20.301081555100847,12.408652440806781
1699733103,9.1369930981,-1.6187444889,1.3483555351,-0.9595165728995326,0.14370604728608313,0.7912231997759794,-53.551593101432324,-20.914937152879276,11.911721718795674
1699733103,8.7278204335,-0.7549355303,1.591227029,-0.05207626155638081,0.40378192244888816,0.7272350660747372,-53.551593101432324,-20.18415667933353,12.247880736626717
1699733103,8.7278204335,-0.7549355303,1.591227029,-0.05207626155638081,0.40378192244888816,0.7272350660747372,-53.463899444606845,-20.16954106986261,11.66325635779012
1699733103,8.0339018795,0.2105683888,1.5972090855,0.4034764898297891,0.4990768996077785,0.6661485422549357,-52.937737503653906,-19.774919614147908,11.677871967261035
1699733103,8.0339018795,0.2105683888,1.5972090855,0.4034764898297891,0.4990768996077785,0.6661485422549357,-53.39082139725227,-19.497223034200527,11.414790996784566
1699733103,7.4273213504,0.9248259349,1.5684952143000002,0.4257730710240167,0.3804163270878141,0.5125159348481348,-53.28851213095586,-19.321835720549547,11.911721718795674
1699733103,7.4273213504,0.9248259349,1.5684952143000002,0.4257730710240167,0.3804163270878141,0.5125159348481348,-53.28851213095586,-19.83338205203157,11.736334405144696
1699733103,7.3148586882,0.7525427077,1.3866406967,0.25931229361505753,0.16493361431346412,0.2898555555249583,-52.86465945629932,-19.994153756211634,11.707103186202865
1699733103,7.3148586882,0.7525427077,1.3866406967,0.1750128907437314,-0.0516181126277323,0.061697389057999555,-53.14235603624671,-20.096463022508036,10.844782227418884
1699733103,7.320840744700001,0.3493520996,1.2299108163999999,0.1750128907437314,-0.0516181126277323,0.061697389057999555,-53.463899444606845,-20.432622040339083,11.955568547208419
1699733103,7.320840744700001,0.3493520996,1.2299108163999999,0.2098322093210183,-0.20204367753399358,-0.1153008137098754,-53.18620286465946,-20.19877228880444,12.130955860859398
1699733103,6.8865434428,0.1112662509,1.328016543,0.2098322093210183,-0.20204367753399358,-0.1153008137098754,-53.8146740719088,-20.19877228880444,12.686349020754164
1699733103,7.3543402611,-0.2321037922,2.2923240508,0.2950479100496414,-0.37965274554006656,-0.2822197400474831,-53.683133586670564,-20.301081555100847,11.98479976615025
1699733103,7.3543402611,-0.2321037922,2.2923240508,0.2950479100496414,-0.37965274554006656,-0.2822197400474831,-53.127740426775794,-20.432622040339083,12.96404560070155
1699733103,8.0147592987,-1.1042876299,2.8450660714,0.5752823380729809,-0.41523564566510096,-0.5261076863980407,-53.59543992984508,-20.681087401344637,12.423268050277697
1699733103,8.0147592987,-1.1042876299,2.8450660714,0.5752823380729809,-0.41523564566510096,-0.5261076863980407,-53.27389652148494,-20.885705933937444,12.189418298743057
1699733103,7.9262248625,-0.2297109696,2.4813570362,0.9659306579006117,-0.37094791589574483,-0.7680103207244547,-53.507746273019585,-21.87956737795966,11.970184156679334
1699733103,7.9262248625,-0.2297109696,2.4813570362,0.9659306579006117,-0.37094791589574483,-0.7680103207244547,-53.47851505407776,-21.616486407483194,13.460976322712655
1699733103,9.5880401582,0.4366901245,3.3451659948,0.957531260875389,-0.4700608007933728,-0.9361509775384586,-54.106986261327094,-22.654194679918152,12.8178895059924
1699733103,9.5880401582,0.4366901245,3.3451659948,0.957531260875389,-0.4700608007933728,-0.9361509775384586,-53.49313066354867,-23.194972230342007,13.25635779011985
1699733103,11.0117696052,-0.7561319416,4.0749768878,0.8034405045399396,-0.5351179486614615,-1.0415252311276162,-53.69774919614147,-23.26805027769658,13.007892429114293
1699733103,11.0117696052,-0.7561319416,4.0749768878,0.8034405045399396,-0.5351179486614615,-1.0415252311276162,-53.507746273019585,-23.253434668225665,13.650979245834552
1699733103,11.608778843900001,-3.1872397032,5.155336291699999,0.377667433515923,-0.3953825254236654,-0.7991644478725536,-53.09850920783396,-23.604209295527625,13.168664133294358
1699733103,11.6614209411,-5.5142596817000005,4.7940200791,-0.08399397025222712,-0.24480424420785463,-0.2272418686096617,-53.463899444606845,-23.58959368605671,14.32329728149664
1699733103,11.6614209411,-5.5142596817000005,4.7940200791,-0.08399397025222712,-0.24480424420785463,-0.2272418686096617,-52.99619994153756,-23.35574393452207,13.957907044723767
1699733103,12.2297163086,-4.4362931003999995,4.9112683865,-0.21288653551200834,-0.11423179954302887,0.357661596964938,-53.74159602455423,-22.814966384098216,14.3817597193803
1699733103,12.2297163086,-4.4362931003999995,4.9112683865,-0.21288653551200834,-0.11423179954302887,0.357661596964938,-52.55773165741011,-22.917275650394622,13.753288512130958
1699733103,10.5679010129,-2.7361926431000003,4.3453658416,0.04596760917440065,0.10308350894591509,0.5513058774737088,-53.18620286465946,-23.165741011400176,13.241742180648933
1699733103,10.5679010129,-2.7361926431000003,4.3453658416,0.04596760917440065,0.10308350894591509,0.5513058774737088,-53.11312481730488,-22.61034785150541,13.70944168371821
1699733103,7.1401826384,0.2644068973,1.3471591237999998,0.4874704600820162,0.22036963467993403,0.34865133470151727,-52.87927506577025,-22.201110786319788,13.285589009061678
1699733103,7.1401826384,0.2644068973,1.3471591237999998,0.7846563984653507,-0.2938261795732454,0.08261952346628157,-52.499269219526454,-22.873428821981875,13.97252265419468
1699733103,6.6699929975,3.6514472876,-0.6017948839,0.7846563984653507,-0.2938261795732454,0.08261952346628157,-51.973107278573515,-22.858813212510963,14.264834843612977
1699733103,6.6699929975,3.6514472876,0.131605243,0.8964447370555875,-0.9442449419445822,-0.3517056608925074,-52.41157556270096,-22.990353697749196,14.264834843612977
1699733103,9.3176512044,5.181657340299999,0.131605243,0.8964447370555875,-0.9442449419445822,-0.3517056608925074,-52.60157848582286,-23.487284419760304,14.86407483192049
1699733103,12.2847512284,5.50349198,3.206382284,1.2415835966374662,-0.9413433320631417,-0.9500481617074634,-52.74773458053201,-23.41420637240573,15.361005553931598
1699733103,12.2847512284,5.50349198,3.206382284,1.2415835966374662,-0.9413433320631417,-0.9500481617074634,-52.96696872259573,-24.33498976907337,15.390236772873427
1699733104,14.422738221500001,4.103690759,5.4927242783,1.4876095713217168,-0.4645630136495907,-1.229060859254407,-52.77696579947384,-24.013446360713242,15.857936275942707
1699733104,14.422738221500001,4.103690759,5.4927242783,1.4876095713217168,-0.4645630136495907,-1.229060859254407,-52.60157848582286,-24.729611224788073,15.726395790704473
1699733104,13.938191645,-1.8496518698,1.0923235169,0.5506950122355108,-0.3781255824445715,-0.6017022596250451,-52.89389067524116,-24.232680502776965,15.98947676118094
1699733104,13.938191645,-1.8496518698,1.0923235169,0.5506950122355108,-0.3781255824445715,-0.6017022596250451,-52.572347266881025,-24.437299035369776,15.434083601286176
1699733104,11.0081803713,-4.9663033062999995,-2.644068973,-0.4427245813840116,-0.5635231822376692,0.2109012234878648,-52.38234434375914,-24.77345805320082,16.778719672610347
1699733104,11.0081803713,-4.9663033062999995,-2.644068973,-0.4427245813840116,-0.5635231822376692,0.2109012234878648,-52.908506284712075,-24.59807073954984,16.83718211049401
1699733104,8.4885381735,-1.2358928729,-0.945164927,-0.5317581898513724,-0.4344779006683384,0.16401731645616713,-52.09003215434084,-24.13037123648056,17.0271850336159
1699733104,8.4885381735,-1.2358928729,-0.945164927,-0.5317581898513724,-0.4344779006683384,0.16401731645616713,-52.74773458053201,-24.627301958491667,16.091786027477344
1699733104,7.6905318364,2.7469603447999997,0.0466600407,-0.24419337896965665,-0.34452799434368064,0.2658790949256862,-52.76235019000293,-24.48114586378252,16.76410406313943
1699733104,7.6905318364,2.7469603447999997,0.0466600407,-0.24419337896965665,-0.34452799434368064,0.2658790949256862,-52.87927506577025,-25.314235603624667,16.60333235895937
1699733104,7.5086773188,4.9914279436,-0.6053841178,0.5444336435439812,-0.11194105489978631,0.20097466336714706,-52.55773165741011,-25.080385852090032,17.041800643086816
1699733104,7.5086773188,4.9914279436,-0.6053841178,0.5444336435439812,-0.11194105489978631,0.20097466336714706,-52.47003800058463,-24.729611224788073,16.208710903244665
1699733104,7.8759755879,4.929214556,-1.4775679554999999,0.8327620359734443,-0.016493361431346415,-0.1753183233628304,-52.58696287635194,-24.671148786904414,17.05641625255773
1699733104,7.8759755879,4.929214556,-1.4775679554999999,0.6659958259453862,-0.29596420790693845,-0.43279802126329386,-53.20081847413037,-25.153463899444606,16.062554808535516
1699733104,9.675378183100001,2.9694928465999997,-2.4000010678,0.6659958259453862,-0.29596420790693845,-0.43279802126329386,-52.484653610055545,-25.60654779304297,17.699503069277988
1699733104,10.8550397249,-0.9966106129000001,-2.9874390161,0.019394971312786988,-0.8242099226386722,-0.7725918100109399,-52.22157263957907,-26.29348143817597,18.079508915521778
1699733104,10.8550397249,-0.9966106129000001,-2.9874390161,0.019394971312786988,-0.8242099226386722,-0.7725918100109399,-52.29465068693364,-26.541946799181527,17.874890382928967
1699733104,9.870393225,-3.5796626096,-1.9238293703999998,-0.3196352358871115,-0.892932261935949,-0.9288205946800824,-52.426191172171876,-26.6150248465361,17.860274773458055
1699733104,9.870393225,-3.5796626096,-1.9238293703999998,-0.3196352358871115,-0.892932261935949,-0.9288205946800824,-52.04618532592809,-27.009646302250808,17.991815258696285
1699733104,9.5485585853,-2.9096722816000002,-0.16271193679999998,0.006872233929727673,-0.8078692775168753,-0.6203336493900845,-52.58696287635194,-27.243496053785442,19.073370359543993
1699733104,9.5485585853,-2.9096722816000002,-0.16271193679999998,0.006872233929727673,-0.8078692775168753,-0.6203336493900845,-52.17772581116633,-26.951183864367145,19.26337328266589
1699733104,9.6323073763,1.3471591237999998,0.7166503687,0.6678284216599804,-0.576809501168476,-0.023212879051524585,-51.73925752703887,-26.366559485530544,19.59953230049693
1699733104,9.6323073763,1.3471591237999998,0.7166503687,0.6678284216599804,-0.576809501168476,-0.023212879051524585,-51.973107278573515,-26.64425606547793,19.672610347851503
1699733104,9.403792818,3.5641092626999997,-0.059820565,0.7276932150033858,-0.36483926351376467,0.08842274322916273,-51.695410698626134,-26.717334112832503,19.760304004676996
1699733104,9.403792818,3.5641092626999997,-0.059820565,0.7276932150033858,-0.36483926351376467,0.08842274322916273,-51.82695118386437,-26.980415083308973,19.219526454253142
1699733104,9.385846648500001,2.3844477209,-0.8769694829,0.35628715017899243,-0.3425426823195371,-0.08827002691961322,-51.43232972814966,-26.65887167494885,19.789535223618827
1699733104,9.385846648500001,2.3844477209,-0.8769694829,0.01313360262125733,-0.39736783744780896,-0.2105957908687658,-51.549254603916985,-26.702718503361588,18.927214264834845
1699733104,9.7124669334,1.1653046062,-0.7645068207,0.01313360262125733,-0.39736783744780896,-0.2105957908687658,-51.76848874598071,-27.199649225372696,20.228003507746273
1699733104,9.7124669334,1.1653046062,-0.7645068207,-0.27336219409361184,-0.41783182292744253,-0.2098322093210183,-51.82695118386437,-27.550423852674655,19.672610347851503
1699733104,9.6358966102,0.3493520996,-0.6891329087999999,-0.27336219409361184,-0.41783182292744253,-0.2098322093210183,-51.30078924291143,-27.725811166325638,19.555685472084186
1699733104,9.3834538259,-0.11844471869999999,-0.8099704500999999,-0.2503020313516368,-0.35598171755989344,-0.1989893513430035,-51.373867290266006,-27.915814089447533,19.526454253142354
1699733104,9.3834538259,-0.11844471869999999,-0.8099704500999999,-0.2503020313516368,-0.35598171755989344,-0.1989893513430035,-51.35925168079509,-28.047354574685762,19.380298158433206
1699733104,9.4480600361,0.0669990328,-0.8135596839999999,0.057879481319261954,-0.3089450942186463,-0.179136231101568,-51.71002630809704,-27.85735165156387,20.330312774042678
1699733104,9.4480600361,0.0669990328,-0.8135596839999999,0.057879481319261954,-0.3089450942186463,-0.179136231101568,-51.1838643671441,-27.74042677579655,19.774919614147908
1699733104,9.2889373332,0.4139583098,-0.6891329087999999,0.35582900125034395,-0.2965750731451364,-0.19471329467561738,-51.24232680502777,-28.339666764104066,19.541069862613274
1699733104,9.2889373332,0.4139583098,-0.6891329087999999,0.35582900125034395,-0.2965750731451364,-0.19471329467561738,-50.83308973984215,-27.8865828705057,20.35954399298451
1699733104,9.2781696315,0.4606183505,-0.8051848049,0.4453207586463532,-0.257326981590914,-0.24953844980388926,-51.140017538731364,-28.368897983045894,19.964922537269807
1699733104,9.2781696315,0.4606183505,-0.8051848049,0.4453207586463532,-0.257326981590914,-0.24953844980388926,-51.79771996492254,-28.266588716749492,20.37415960245542
1699733104,9.4612205604,0.4522434714,-0.7130611348,0.3747658236344824,-0.2906191370727058,-0.27779096707054746,-51.22771119555686,-28.14966384098217,20.593393744519144
1699733104,9.4612205604,0.4522434714,-0.7130611348,0.3747658236344824,-0.2906191370727058,-0.27779096707054746,-51.34463607132418,-28.44197603040047,20.944168371821103
1699733104,9.5509514079,0.6388836341999999,-0.6508477471999999,0.36758815708565573,-0.33307427112746785,-0.2751947898082059,-50.584624378836594,-28.39812920198772,20.8418591055247
1699733104,9.5509514079,0.6388836341999999,-0.6508477471999999,0.36758815708565573,-0.33307427112746785,-0.2751947898082059,-51.22771119555686,-28.018123355743935,20.66647179187372
1699733104,9.4348995118,0.9774680320999999,-0.9487541609,0.4717406801984173,-0.29825495255018103,-0.2854267825480227,-51.096170710318624,-27.959660917860273,20.622624963460975
1699733104,9.4348995118,0.9774680320999999,-0.9487541609,0.4717406801984173,-0.29825495255018103,-0.2854267825480227,-50.76001169248757,-28.7635194387606,20.798012277111955
1699733104,9.2446701151,1.2490533972,-1.1270194446,0.4842634175814767,-0.2823724563570326,-0.30161471136027007,-50.73078047354574,-28.851213095586086,20.944168371821103
1699733104,9.2446701151,1.2490533972,-1.1270194446,0.4842634175814767,-0.2823724563570326,-0.30161471136027007,-50.613855597778425,-28.529669687225955,21.16340251388483
1699733104,9.4337031005,1.5696916256,-0.8817551281,0.43554691483518493,-0.3142901650528789,-0.3095559594568442,-51.140017538731364,-29.04121601870798,22.361882490499855
1699733104,9.4337031005,1.5696916256,-0.8817551281,0.34865133470151727,-0.33261612219881936,-0.32238412945900263,-50.65770242619118,-29.201987722888045,22.274188833674362
1699733104,9.7591269741,1.806581063,-0.3397808092,0.34865133470151727,-0.33261612219881936,-0.32238412945900263,-50.2923121894183,-28.675825781935103,21.806489330605086
1699733104,9.6777710057,1.6474583601,-0.2500499617,0.2031126917008401,-0.2849686336193742,-0.3645338308946657,-50.716164864074834,-29.450453083893596,22.581116632563578
1699733104,9.6777710057,1.6474583601,-0.2500499617,0.2031126917008401,-0.2849686336193742,-0.3645338308946657,-50.33615901783104,-29.581993569131832,21.806489330605086
1699733104,9.4731846734,1.3974083984,-0.6388836341999999,0.06612616203493515,-0.20448713848678565,-0.40530908554438316,-50.33615901783104,-29.87430575855013,22.28880444314528
1699733104,9.4731846734,1.3974083984,-0.6388836341999999,0.06612616203493515,-0.20448713848678565,-0.40530908554438316,-50.65770242619118,-30.1373867290266,21.499561531715873
1699733104,9.3571327773,1.0719845248,-1.0743773474,-0.024129176908821607,-0.13194689145077132,-0.4219551632852791,-50.46769950306928,-30.181233557439345,21.484945922244957
1699733104,9.3571327773,1.0719845248,-1.0743773474,-0.024129176908821607,-0.13194689145077132,-0.4219551632852791,-50.83308973984215,-30.66354866997954,21.99649225372698
1699733104,9.5461657627,0.9439685157,-1.1210373881,-0.05131268000863329,-0.1075122819228507,-0.40759983018762574,-50.76001169248757,-30.780473545746855,22.347266881028936
1699733104,9.5461657627,0.9439685157,-1.1210373881,-0.05131268000863329,-0.1075122819228507,-0.40759983018762574,-50.613855597778425,-30.941245249926926,22.186495176848876
1699733104,9.7603233854,0.9140582332,-0.9990034355,-0.04153883619746504,-0.11316278537618234,-0.35705073172673996,-50.2923121894183,-31.043554516223328,22.1134171294943
1699733104,9.7603233854,0.9140582332,-0.9990034355,-0.04153883619746504,-0.11316278537618234,-0.35705073172673996,-50.27769657994738,-31.37971353405437,22.02572347266881
1699733104,9.8811609267,0.8937192411,-1.1318050897999998,-0.02199114857512855,-0.09392053037294486,-0.3149010302910769,-50.482315112540185,-31.42356036246711,23.0926629640456
1699733104,9.8811609267,0.8937192411,-1.1318050897999998,-0.02199114857512855,-0.09392053037294486,-0.3149010302910769,-50.13154048523823,-31.394329143525283,22.420344928383514
1699733104,9.869196813699999,0.6364908116,-1.3710873497999998,-0.022449297503777062,-0.07040221870232127,-0.34101551922404205,-50.78924291142941,-31.89125986553639,22.274188833674362
1699733104,9.869196813699999,0.6364908116,-1.3710873497999998,-0.003817907738737596,-0.05329799203277684,-0.40714168125897726,-49.95615317158725,-31.89125986553639,22.78573516515639
1699733104,9.978070242000001,0.2213360905,-1.3938191645,-0.003817907738737596,-0.05329799203277684,-0.40714168125897726,-50.10230926629641,-31.935106693949137,22.347266881028936
1699733104,9.978070242000001,0.2213360905,-1.3938191645,0.019547687622336492,-0.014049900478554353,-0.4560109003148185,-49.82461268634902,-32.2858813212511,22.14264834843613
1699733104,10.456634762,-0.179461695,-1.3627124707,0.019547687622336492,-0.014049900478554353,-0.4560109003148185,-50.19000292312189,-32.402806197018414,22.128032738965214
1699733104,11.5992075535,-0.5599204884,-1.3100703735,0.017409659288643436,0.022602013813326566,-0.4497495316232888,-49.67845659163987,-32.49049985384391,22.361882490499855
1699733104,11.5992075535,-0.5599204884,-1.3100703735,0.017409659288643436,0.022602013813326566,-0.4497495316232888,-49.79538146740719,-32.826658871674944,22.376498099970767
1699733104,12.184252679199998,-0.6951149653,-1.0456634762,0.10598511882735566,0.06246097060574707,-0.3474296042251212,-50.2923121894183,-33.00204618532593,22.78573516515639
1699733104,12.184252679199998,-0.6951149653,-1.0456634762,0.10598511882735566,0.06246097060574707,-0.3474296042251212,-50.10230926629641,-33.192049108447826,22.347266881028936
1699733104,12.3744820759,-0.7202396026000001,-0.7334001269,0.34116823553359155,0.21716259217939446,-0.22617285444281518,-49.912306343174514,-33.30897398421514,22.31803566208711
1699733104,12.3744820759,-0.7202396026000001,-0.7334001269,0.34116823553359155,0.21716259217939446,-0.22617285444281518,-50.17538731365098,-32.812043262204035,22.157263957907045
1699733104,12.4008031245,-0.5204389155,-0.0897308475,0.5679519552146047,0.4515821273378829,-0.0635299847725936,-50.219234142063726,-32.812043262204035,22.069570301081555
1699733104,12.4008031245,-0.5204389155,-0.0897308475,0.5679519552146047,0.4515821273378829,-0.0635299847725936,-50.570008769365685,-32.50511546331482,21.499561531715873
1699733104,12.8027973213,-0.5072783912000001,0.7357929495000001,0.5841398840268521,0.7414376828628412,0.2193006205130875,-50.219234142063726,-32.72434960537854,20.476468868751827
1699733104,12.8027973213,-0.5072783912000001,0.7357929495000001,0.5841398840268521,0.7414376828628412,0.2193006205130875,-50.584624378836594,-31.964337912890965,20.257234726688104
1699733104,12.568300706499999,-0.5288137946,1.7240286833,0.5965099051003621,1.0862711098256208,0.5213734808020061,-51.9584916691026,-31.832797427652732,19.74568839520608
1699733104,12.568300706499999,-0.5288137946,1.7240286833,0.5965099051003621,1.0862711098256208,0.5213734808020061,-51.76848874598071,-31.394329143525283,18.225665010230927
1699733104,11.1577317838,-0.1902293967,1.7718851352999998,0.7999280294203012,1.6733126037339134,0.7295258107179798,-55.90470622624964,-31.102016954106986,17.14410990938322
1699733104,11.1577317838,-0.1902293967,1.7718851352999998,0.7999280294203012,1.6733126037339134,0.7295258107179798,-52.38234434375914,-30.970476468868753,15.857936275942707
1699733104,9.4301138666,0.5467599640999999,1.1545369045,0.9892962532616858,2.2464569134732013,0.8912523825309043,-52.76235019000293,-30.35662087109032,15.843320666471792
1699733104,9.4301138666,0.5467599640999999,1.1545369045,1.0106765365986163,2.5135577388752837,1.0164797563614976,-52.96696872259573,-29.552762350190005,14.717918737211342
1699733104,8.6931245058,2.2504496553,0.0143569356,1.0106765365986163,2.5135577388752837,1.0164797563614976,-54.23852674656533,-29.1581408944753,12.744811458637825
1699733104,8.7349989013,3.9864424516000003,-1.3710873497999998,0.5929974299807234,2.2840251256223794,1.036027443983834,-53.85852090032154,-29.01198479976615,12.408652440806781
1699733104,8.7349989013,3.9864424516000003,-1.3710873497999998,0.5929974299807234,2.2840251256223794,1.036027443983834,-53.887752119263375,-28.851213095586086,11.619409529377375
1699733104,8.6488572877,4.5044885445,-2.2241286067,-0.16508633062301364,1.5829045484806072,0.9488264312310674,-54.19467991815259,-28.821981876644255,12.364805612394036
1699733104,8.6488572877,4.5044885445,-2.2241286067,-0.16508633062301364,1.5829045484806072,0.9488264312310674,-53.75621163402514,-28.588132125109617,11.385559777842737
1699733104,9.0604227749,2.6979074815,-1.7001004573,-0.7536549876268014,0.8491026810952413,0.8836165670534292,-53.37620578778135,-28.222741888336746,11.137094416837181
1699733104,9.0604227749,2.6979074815,-1.7001004573,-0.7536549876268014,0.8491026810952413,0.8836165670534292,-53.77082724349606,-28.09120140309851,10.786319789535224
1699733104,10.1084790737,0.9008977089,-0.34576286570000003,-0.681114740590787,0.4219551632852791,0.8330674685925434,-54.019292604501615,-27.565039462145574,11.239403683133586
1699733104,10.1084790737,0.9008977089,-0.34576286570000003,-0.681114740590787,0.4219551632852791,0.8330674685925434,-54.25314235603624,-27.769657994738377,10.742472961122479
1699733104,10.450652705500001,-0.4331008906,0.5060819799,-0.34284811493863615,0.32070425005395803,0.8446739081183058,-53.785442852966966,-27.141186787489037,10.5670856474715
1699733104,10.450652705500001,-0.4331008906,0.5060819799,-0.34284811493863615,0.32070425005395803,0.8446739081183058,-54.12160187079801,-26.790412160187078,10.77170418006431
1699733104,10.2185489133,-0.7142575461,0.34097722049999996,0.09514226084934088,0.2692388537357753,0.9586002750422356,-54.23852674656533,-26.585793627594274,10.903244665302543
1699733104,10.2185489133,-0.7142575461,0.34097722049999996,0.09514226084934088,0.2692388537357753,0.9586002750422356,-54.54545454545454,-25.60654779304297,10.18707980122771
1699733104,9.9840522985,-0.7980063370999999,0.4163511324,0.1912008195559788,0.12919799787888026,1.0998628613755266,-54.69161064016369,-25.16807950891552,10.172464191756795
1699733105,9.9840522985,-0.7980063370999999,0.4163511324,0.1912008195559788,0.12919799787888026,1.1995866115113527,-54.896229172756506,-24.846536100555394,10.742472961122479
1699733105,9.6765745944,-1.5014961814999999,0.5934200048,0.23380866992029037,-0.029474247743054238,1.1995866115113527,-54.70622624963462,-24.232680502776965,11.560947091493716
1699733105,9.6765745944,-1.5014961814999999,0.5934200048,0.5882632243846887,-0.10094548061222204,1.2774719293815995,-54.03390821397252,-23.487284419760304,10.172464191756795
1699733105,9.559326287,-2.0973090089,0.4199403663,0.5882632243846887,-0.10094548061222204,1.2774719293815995,-54.106986261327094,-23.107278573516517,11.5463314820228
1699733105,9.5928258034,-1.7288143285,-0.056231331100000004,1.3180944677217674,-0.07437284275060838,1.3788755589224702,-54.560070154925455,-22.4057293189126,10.245542239111371
1699733105,9.5928258034,-1.7288143285,-0.056231331100000004,1.3180944677217674,-0.07437284275060838,1.3788755589224702,-54.530838935983624,-21.616486407483194,9.690149079216603
1699733105,9.464809794299999,-0.41754754369999997,-0.0334995164,2.1384864826217025,0.05207626155638081,1.373683204397787,-54.063139432914355,-21.280327389652147,10.216311020169542
1699733105,9.464809794299999,-0.41754754369999997,-0.0334995164,2.1384864826217025,0.05207626155638081,1.373683204397787,-53.59543992984508,-21.031862028646593,9.894767611809414
1699733105,8.944370878800001,1.6761722313,0.41156548719999997,2.708729182479549,0.1792889474111175,1.2467759511621495,-53.887752119263375,-20.257234726688104,9.06167787196726
1699733105,8.944370878800001,1.6761722313,0.41156548719999997,2.708729182479549,0.1792889474111175,1.2467759511621495,-53.93159894767612,-19.687225957322422,8.46243788365975
1699733105,7.816155022899999,2.4311077616,0.6005984726,2.6876543317617183,0.10262536001726658,1.0522153727960815,-53.80005846243788,-19.365682548962294,8.842443729903538
1699733105,7.816155022899999,2.4311077616,0.6005984726,2.6876543317617183,0.10262536001726658,1.0522153727960815,-53.65390236772873,-18.591055247003798,8.345513007892428
1699733105,7.683353368600001,2.1224336462,0.3242274623,2.4370468677909822,-0.1511891464540088,0.817490405018494,-53.93159894767612,-18.67874890382929,8.725518854136217
1699733105,7.683353368600001,2.1224336462,0.3242274623,2.4370468677909822,-0.1511891464540088,0.817490405018494,-53.332358959368605,-18.53259280912014,9.178602747734582
1699733105,7.920242806,2.2444675988,0.6460621019999999,2.320982472533359,-0.3474296042251212,0.5506950122355108,-53.99006138555977,-18.26951183864367,8.608593978368898
1699733105,7.920242806,2.2444675988,0.6460621019999999,2.320982472533359,-0.3474296042251212,0.5506950122355108,-54.136217480268925,-18.167202572347264,8.053200818474131
1699733105,7.4081787696,2.7613172804,1.3854442854000002,2.174832964294484,-0.4043927876870862,0.33964107243809655,-53.960830166617946,-18.38643671441099,8.46243788365975
1699733105,7.4081787696,2.7613172804,1.3854442854000002,2.174832964294484,-0.4043927876870862,0.33964107243809655,-53.66851797719965,-18.254896229172758,8.155510084770535
1699733105,6.7274207398999994,3.2650064377,1.8532411037,1.8709275082909715,-0.45967609174400653,0.11453723216212788,-53.71236480561239,-18.459514761765565,8.22858813212511
1699733105,6.7274207398999994,3.2650064377,2.3042881638,1.410640551308767,-0.5789475295021691,-0.1673770752662562,-54.37006723180357,-18.342589885998244,7.965507161648641
1699733105,7.7300134093,2.4969103831,2.3042881638,1.410640551308767,-0.5789475295021691,-0.1673770752662562,-53.85852090032154,-18.371821104940075,7.99473838059047
1699733105,8.8701933782,0.9008977089,2.9946174839,1.175152001983432,-0.5668829410477582,-0.4431827303126601,-53.507746273019585,-18.91259865536393,8.155510084770535
1699733105,8.8701933782,0.9008977089,2.9946174839,1.175152001983432,-0.5668829410477582,-0.4431827303126601,-54.57468576439638,-19.1756796258404,8.593978368897984
1699733105,10.0845508477,-0.8841479507000001,3.3032915993,1.0844385141110267,-0.45692719817211547,-0.5322163387800208,-54.15083308973985,-18.591055247003798,8.564747149956153
1699733105,10.0845508477,-0.8841479507000001,3.3032915993,1.0844385141110267,-0.45692719817211547,-0.5322163387800208,-54.09237065185618,-18.941829874305757,8.813212510961707
1699733105,11.1086789205,-2.7170500623000002,2.9527430884,1.0386236212461755,-0.2869539456435177,-0.4317290070964473,-54.03390821397252,-18.985676702718504,8.316281788950599
1699733105,11.1086789205,-2.7170500623000002,2.9527430884,1.0386236212461755,-0.2869539456435177,-0.4317290070964473,-54.04852382344344,-18.8833674364221,7.629348143817598
1699733105,10.912467467299999,-3.433700431,2.5304098995,1.019992231481136,-0.07467827536970736,-0.24220806694551308,-53.93159894767612,-18.591055247003798,7.760888629055832
1699733105,10.912467467299999,-3.433700431,2.5304098995,1.019992231481136,-0.07467827536970736,-0.24220806694551308,-54.70622624963462,-19.409529377375037,7.643963753288512
1699733105,10.363314680599998,-2.8462624827,2.4346969955,1.075428251847606,0.05146539631818279,-0.047036623341247176,-54.5016077170418,-19.029523531131247,7.936275942706811
1699733105,10.363314680599998,-2.8462624827,2.4346969955,1.075428251847606,0.05146539631818279,-0.047036623341247176,-54.45776088862906,-19.219526454253142,7.234726688102894
1699733105,9.1561356789,-1.3052847283,1.8544375149999999,1.1355984778101105,0.10873401239924674,0.0557414529855689,-54.45776088862906,-19.1756796258404,7.643963753288512
1699733105,9.1561356789,-1.3052847283,1.8544375149999999,1.1355984778101105,0.10873401239924674,0.0557414529855689,-54.384682841274476,-19.073370359543993,7.892429114294067
1699733105,8.542376681999999,-0.40319060809999996,1.7539389658,0.97570450171178,0.020616701789183015,0.1154535300194249,-54.58930137386729,-18.868751826951183,7.088570593393745
1699733105,8.542376681999999,-0.40319060809999996,1.7539389658,0.97570450171178,0.020616701789183015,0.1154535300194249,-54.25314235603624,-18.956445483776672,7.512423268050278
1699733105,8.9383888223,-0.0646062102,2.3736800192,1.011745550765463,-0.18020524526841453,0.026114488932965158,-54.63314820228003,-18.985676702718504,7.7755042385267465
1699733105,8.9383888223,-0.0646062102,2.3736800192,1.0467175856522992,-0.28909197397721076,-0.1033889415650141,-54.91084478222742,-19.248757673194973,6.737795966091786
1699733105,8.9108713624,-1.1712866627,2.5806591741,1.0467175856522992,-0.28909197397721076,-0.1033889415650141,-54.340836012861736,-19.511838643671442,7.424729611224788
1699733105,8.9108713624,-1.1712866627,2.5806591741,0.7483099167925688,-0.48517971543877364,0.025656340004316644,-54.57468576439638,-19.204910844782226,7.99473838059047
1699733105,8.8833539025,-2.404786713,1.5373885205000002,0.7483099167925688,-0.48517971543877364,0.025656340004316644,-54.384682841274476,-19.248757673194973,7.570885705933937
1699733105,11.221141582700001,-0.7692924659,-0.39122649509999996,0.6328563867731438,-0.8827002691961322,-0.02183843226557905,-54.2092955276235,-19.146448406898568,8.637825197310727
1699733105,11.221141582700001,-0.7692924659,-0.39122649509999996,0.6328563867731438,-0.8827002691961322,-0.02183843226557905,-55.10084770534931,-19.073370359543993,9.134755919321835
1699733105,15.1190495981,1.9034903783000001,-0.23688943739999999,0.9262244174177408,-1.021213961957532,-0.28573221516712166,-54.37006723180357,-19.83338205203157,9.017831043554517
1699733105,15.1190495981,1.9034903783000001,-0.23688943739999999,0.9262244174177408,-1.021213961957532,-0.28573221516712166,-54.88161356328559,-19.731072785735165,8.813212510961707
1699733105,16.4434769072,3.0161528873,2.8582265956999997,1.5413657122831421,-0.7944302422765189,-0.7646505619143658,-55.33469745688395,-19.760304004676996,8.886290558316281
1699733105,16.4434769072,3.0161528873,2.8582265956999997,1.5413657122831421,-0.7944302422765189,-0.7646505619143658,-55.43700672318036,-20.75416544869921,7.687810581701257
1699733105,12.1830562679,4.354937132,4.9579284272,2.9622382563317258,-0.21197023765471132,-0.9889908206425868,-55.14469453376206,-20.75416544869921,4.326220403390821
1699733105,12.1830562679,4.354937132,4.9579284272,2.9622382563317258,-0.21197023765471132,-0.9889908206425868,-55.641625255773164,-20.53493130663549,7.673194972230342
1699733105,10.423135245600001,2.8223342567,2.2277178406,2.6039657941285896,0.30497447017035917,-0.7531968386981529,-54.95469161064016,-20.98801520023385,8.082432037415959
1699733105,10.423135245600001,2.8223342567,2.2277178406,2.6039657941285896,0.30497447017035917,-0.7531968386981529,-55.36392867582578,-21.33878982753581,8.19935691318328
1699733105,8.952745757899999,-1.1282158559,-0.5371886737,0.258243279448211,-0.12904528156933073,-0.1672243589567067,-55.13007892429115,-21.19263373282666,8.564747149956153
1699733105,8.952745757899999,-1.1282158559,-0.5371886737,0.258243279448211,-0.12904528156933073,0.1996002165812015,-55.276235019000296,-21.324174218064893,8.19935691318328
1699733105,7.1114687672,0.2608176634,-1.2239287599,-0.8245153552577712,-0.25014931504208726,0.1996002165812015,-55.1885413621748,-20.87109032446653,8.930137386729028
1699733105,7.1114687672,0.2608176634,-1.2239287599,-0.3762929867299774,-0.2229658119422756,0.26190847087739905,-55.17392575270389,-20.75416544869921,9.047062262496345
1699733105,5.7212388366,2.6404797391000003,-1.8149559420999999,-0.3762929867299774,-0.2229658119422756,0.26190847087739905,-54.83776673487284,-20.257234726688104,9.251680795089156
1699733105,5.7212388366,2.6404797391000003,-1.43569356,0.2515237618280328,-0.43508876590653645,0.3888157241130368,-54.7939199064601,-20.00876936568255,9.310143232972814
1699733105,6.4211394471,3.8703905555,-1.43569356,0.2515237618280328,-0.43508876590653645,0.3888157241130368,-54.57468576439638,-19.409529377375037,9.923998830751241
1699733105,7.6019974002,4.7808595548,-0.47976093129999997,0.9221010770599042,-0.5459608066394762,0.317344491243869,-54.88161356328559,-19.774919614147908,9.733995907629348
1699733105,7.6019974002,4.7808595548,-0.47976093129999997,0.9221010770599042,-0.5459608066394762,0.317344491243869,-54.60391698333821,-20.096463022508036,9.41245249926922
1699733105,10.9244315803,4.1300118076,-0.9487541609,1.7386751842211012,-0.558636260332085,-0.3772092845872745,-55.07161648640748,-20.75416544869921,9.41245249926922
1699733105,10.9244315803,4.1300118076,-0.9487541609,1.7386751842211012,-0.558636260332085,-0.3772092845872745,-54.57468576439638,-20.651856182402806,9.909383221280327
1699733105,11.801401063199998,-1.5828521499000001,-3.5246276898,0.9616546012332257,-0.4954117081785905,-1.166905321267759,-54.42852966968723,-21.397252265419468,9.280912014030985
1699733105,11.801401063199998,-1.5828521499000001,-3.5246276898,0.9616546012332257,-0.4954117081785905,-1.166905321267759,-55.07161648640748,-21.821104940076,9.660917860274774
1699733105,10.0558369765,-4.4434715682,-3.3104700671000002,0.7292203780988809,-0.20357084062948863,-1.2554807808064712,-55.07161648640748,-22.361882490499855,9.251680795089156
1699733105,10.0558369765,-4.4434715682,-3.3104700671000002,0.7292203780988809,-0.20357084062948863,-1.2554807808064712,-55.29085062847121,-22.741888336743642,9.733995907629348
1699733105,9.6574320136,-3.9014972492999997,-0.8183453291999999,0.8906415172927064,-0.7498370798880638,-0.6879869745205148,-54.7939199064601,-22.25957322420345,10.8593978368898
1699733105,9.6574320136,-3.9014972492999997,-0.8183453291999999,0.8906415172927064,-0.7498370798880638,-0.6879869745205148,-55.05700087693657,-21.762642502192342,9.953230049693072
1699733105,9.1716890258,-1.0241280728,1.4392827939,0.3819434901833091,-0.8006916109680486,-0.014202616788103856,-55.40777550423853,-21.411867874890383,11.107863197895353
1699733105,9.1716890258,-1.0241280728,1.4392827939,0.3819434901833091,-0.8006916109680486,-0.014202616788103856,-55.466237942122184,-21.806489330605086,11.51710026308097
1699733105,9.6933243526,2.7816562725,0.5790630692000001,1.4280502105974104,-0.5293147288985803,0.3324634058892698,-55.02776965799474,-21.455714703303126,11.020169541069864
1699733105,9.6933243526,2.7816562725,0.5790630692000001,1.797776396016759,-0.377056568277725,0.14706580609617217,-55.51008477053493,-21.777258111663254,10.888629055831627
1699733105,9.6000042712,2.8570301844,-1.4225330357,1.797776396016759,-0.377056568277725,0.14706580609617217,-55.1885413621748,-21.821104940076,11.370944168371821
1699733105,9.6000042712,2.8570301844,-1.4225330357,1.419192664643539,-0.32834006553143325,-0.03268129024359382,-55.17392575270389,-21.821104940076,11.210172464191757
1699733105,9.5677011661,2.129612114,-1.9453647738,1.419192664643539,-0.32834006553143325,-0.03268129024359382,-55.115463314820225,-21.923414206372406,11.911721718795674
1699733105,9.5054877785,1.9202401365000001,-0.8901300072,0.9752463527831314,-0.4309654255486998,-0.0755945732270044,-55.23238819058754,-21.090324466530255,11.8386436714411
1699733105,9.5054877785,1.9202401365000001,-0.8901300072,0.9752463527831314,-0.4309654255486998,-0.0755945732270044,-55.20315697164572,-21.601870798012275,11.98479976615025
1699733105,9.1800639049,2.0829520733,-0.35772697870000003,0.795346540133816,-0.40698896494942777,-0.06719517620178168,-54.73545746857644,-21.660333235895937,11.005553931598948
1699733105,9.1800639049,2.0829520733,-0.35772697870000003,0.795346540133816,-0.40698896494942777,-0.06719517620178168,-55.17392575270389,-21.07570885705934,11.502484653610056
1699733105,9.3332045513,2.0494525569,-1.1425727915,0.8307767239493009,-0.2977968036215325,-0.12522737383059315,-55.217772581116634,-21.572639579070447,11.341712949429992
1699733105,9.3332045513,2.0494525569,-1.1425727915,0.8307767239493009,-0.2977968036215325,-0.12522737383059315,-54.940076001169246,-21.280327389652147,11.444022215726395
1699733105,9.6167540294,1.7120645703,-1.4679966650999998,0.834441915378489,-0.32391129255449763,-0.23151792527704781,-55.05700087693657,-21.952645425314234,11.867874890382929
1699733105,9.6167540294,1.7120645703,-1.4679966650999998,0.834441915378489,-0.32391129255449763,-0.23151792527704781,-54.91084478222742,-21.660333235895937,12.540192926045016
1699733105,9.4719882621,1.1389835576,-1.1222337994,0.656221982134218,-0.375834837801329,-0.2999348319552255,-54.618532592809125,-22.186495176848876,12.657117801812333
1699733105,9.4719882621,1.1389835576,-1.1222337994,0.656221982134218,-0.375834837801329,-0.2999348319552255,-54.940076001169246,-21.572639579070447,11.63402513884829
1699733105,9.732805925500001,0.9236295236,-0.7704888772,0.516486558896422,-0.38347065327880414,-0.2906191370727058,-54.5016077170418,-21.51417714118679,12.598655363928676
1699733105,9.732805925500001,0.9236295236,-0.7704888772,0.516486558896422,-0.38347065327880414,-0.2748893571891069,-54.516223326512716,-21.894182987430575,11.970184156679334
1699733105,9.6239324972,1.1090732750999999,-0.8279166196,0.5129740837767833,-0.3530801076784529,-0.2748893571891069,-54.75007307804736,-21.689564454837768,11.98479976615025
1699733105,9.6239324972,1.1090732750999999,-0.8279166196,0.49556442448814,-0.2751947898082059,-0.2787072649278445,-55.14469453376206,-21.791873721134174,12.774042677579656
1699733105,9.0269232585,1.2251251712,-1.3842478741,0.49556442448814,-0.2751947898082059,-0.2787072649278445,-54.35545162233265,-21.73341128325051,12.174802689272141
1699733105,9.0269232585,1.2251251712,-1.8819549749,0.44669520543229874,-0.2544253717094734,-0.2643519318301911,-54.32622040339082,-22.08418591055247,12.07249342297574
1699733105,8.7960158776,1.5481562222,-1.8819549749,0.44669520543229874,-0.2544253717094734,-0.2643519318301911,-54.443145279158145,-22.420344928383514,12.452499269219526
1699733105,8.8953180155,1.9752750562999999,-1.5541382787000002,0.3943135112568189,-0.3420845333908886,-0.25915957730550804,-54.54545454545454,-22.128032738965214,12.554808535515932
1699733105,8.8953180155,1.9752750562999999,-1.5541382787000002,0.3943135112568189,-0.3420845333908886,-0.25915957730550804,-54.472376498099976,-22.361882490499855,13.037123648056124
1699733105,9.3332045513,2.0327027987,-0.5778666579,0.3520110935116063,-0.43218715602509583,-0.3104722573141413,-54.45776088862906,-22.581116632563578,12.861736334405144
1699733105,9.3332045513,2.0327027987,-0.5778666579,0.3520110935116063,-0.43218715602509583,-0.3104722573141413,-53.84390529085062,-22.931891259865537,13.212510961707103
1699733105,9.7172525786,1.5864413838,-0.41515472109999996,0.17974709633976602,-0.41691552507014545,-0.3726277953007894,-54.560070154925455,-22.990353697749196,13.358667056416252
1699733105,9.7172525786,1.5864413838,-0.41515472109999996,0.17974709633976602,-0.41691552507014545,-0.3726277953007894,-54.26775796550716,-23.516515638702135,14.352528500438469
1699733106,9.750752095,1.3722837611,-0.7680960546,-0.03558290012503439,-0.3659082776806112,-0.3952298091141159,-54.443145279158145,-23.311897106109324,13.490207541654486
1699733106,9.750752095,1.3722837611,-0.7680960546,-0.03558290012503439,-0.3659082776806112,-0.3952298091141159,-54.5016077170418,-23.691902952353114,13.957907044723767
1699733106,9.7663054419,1.052841944,-0.8231309743999999,-0.13026701204572677,-0.32452215779269566,-0.4218024469757296,-54.32622040339082,-23.370359543992986,13.70944168371821
1699733106,9.7663054419,1.052841944,-0.8231309743999999,-0.13026701204572677,-0.32452215779269566,-0.4218024469757296,-54.73545746857644,-23.282665887167493,13.724057293189126
1699733106,10.0008020567,0.5886343596,-0.6568298037,-0.04230241774521256,-0.2871066619530672,-0.48227810555733314,-54.04852382344344,-24.14498684595148,13.928675825781935
1699733106,10.0008020567,0.5886343596,-0.6568298037,-0.04230241774521256,-0.2871066619530672,-0.48227810555733314,-54.106986261327094,-24.59807073954984,13.665594855305466
1699733106,10.0043912906,-0.0490528633,-0.981057266,0.02672535417116317,-0.1912008195559788,-0.5154175447295755,-54.5016077170418,-24.086524408067817,14.674071908798597
1699733106,10.0043912906,-0.0490528633,-0.981057266,0.02672535417116317,-0.1912008195559788,-0.5154175447295755,-54.60391698333821,-24.291142940660627,14.68868751826951
1699733106,10.0414800409,-0.3529413335,-1.543370577,0.05665775084286592,-0.07742716894159844,-0.457690779719863,-54.22391113709442,-25.109617071031863,14.440222157263957
1699733106,10.0414800409,-0.3529413335,-1.543370577,0.05665775084286592,-0.07742716894159844,-0.33292155481791835,-54.77930429698918,-24.68576439637533,13.373282665887167
1699733106,9.9266245561,0.11964113,-1.5158531170999998,0.15347989109725135,-0.059101211795657985,-0.33292155481791835,-54.42852966968723,-25.065770242619116,13.782519731072787
1699733106,9.9266245561,0.11964113,-1.5158531170999998,0.3381139093426015,-0.09132435311060329,-0.2770273855228,-54.64776381175095,-24.758842443729904,14.060216311020168
1699733106,10.205388389000001,0.8231309743999999,-1.1509476706000001,0.3381139093426015,-0.09132435311060329,-0.2770273855228,-54.5016077170418,-25.065770242619116,13.607132417421807
1699733106,10.205388389000001,0.8231309743999999,-1.1509476706000001,0.3726277953007894,-0.04077525464971753,-0.3013092787411711,-53.8146740719088,-24.934229757380884,13.855597778427361
1699733106,10.6827564977,0.7501498851,-1.0851450490999999,0.3726277953007894,-0.04077525464971753,-0.3013092787411711,-54.296989184449,-25.02192341420637,14.074831920491086
1699733106,11.653046062,0.20578274359999998,-1.1509476706000001,0.07712173632249944,0.037568212149177944,-0.2756529387368544,-54.12160187079801,-24.992692195264542,14.32329728149664
1699733106,11.653046062,0.20578274359999998,-1.1509476706000001,0.07712173632249944,0.037568212149177944,-0.2756529387368544,-53.99006138555977,-25.153463899444606,14.893306050862321
1699733106,11.972487879100001,-0.16630117069999997,-0.8398807326,-0.12843441633113273,0.10735956561330119,-0.17348572764823636,-54.31160479391991,-25.03653902367729,13.387898275358081
1699733106,11.972487879100001,-0.16630117069999997,-0.8398807326,-0.12843441633113273,0.10735956561330119,-0.17348572764823636,-54.09237065185618,-25.211926337328265,14.104063139432915
1699733106,12.1088787673,-0.2943171798,-0.4821537539,0.05451972250917286,0.2886338250485623,-0.07620543846520242,-54.516223326512716,-25.25577316574101,14.20637240572932
1699733106,12.1088787673,-0.2943171798,-0.4821537539,0.05451972250917286,0.2886338250485623,-0.07620543846520242,-54.60391698333821,-25.02192341420637,14.016369482607423
1699733106,12.5048909076,-0.394815729,-0.021535403399999997,0.29871310147882946,0.5064072824661547,0.037568212149177944,-54.25314235603624,-24.27652733118971,13.636363636363635
1699733106,12.5048909076,-0.394815729,-0.021535403399999997,0.29871310147882946,0.5064072824661547,0.037568212149177944,-54.384682841274476,-24.53960830166618,13.095586085939784
1699733106,12.047861790999999,-0.8482556117000001,0.8123632727,0.36545012875196264,0.8388706883554246,0.2583959957577605,-55.20315697164572,-24.48114586378252,12.130955860859398
1699733106,12.047861790999999,-0.8482556117000001,0.8123632727,0.36545012875196264,0.8388706883554246,0.2583959957577605,-54.530838935983624,-24.028061970184154,12.247880736626717
1699733106,11.5286192868,-1.2598210989,1.6642081183,0.4430300140031106,1.2814425534298868,0.5936082952189213,-55.33469745688395,-23.881905875475006,10.260157848582285
1699733106,11.5286192868,-1.2598210989,1.6642081183,0.7536549876268014,1.8106045660189174,0.9816604377842106,-55.30546623794213,-23.23881905875475,9.923998830751241
1699733106,10.4219388343,-0.3361915753,1.9585252981,0.7536549876268014,1.8106045660189174,0.9816604377842106,-54.852382344343766,-22.71265711780181,8.389359836305173
1699733106,10.4219388343,-0.3361915753,1.9585252981,1.078177145419497,2.333963358845067,1.259756837473857,-54.75007307804736,-22.098801520023382,7.556270096463022
1699733106,9.6945207639,1.5373885205000002,0.6723831506,1.078177145419497,2.333963358845067,1.259756837473857,-54.64776381175095,-21.148786904413914,6.3724057293189125
1699733106,9.6945207639,4.258027816699999,-1.1114660977,0.9871582249279929,2.4947736328006944,1.3779592610651732,-54.486992107570885,-21.148786904413914,5.437006723180357
1699733106,10.0821580251,4.258027816699999,-1.1114660977,0.9871582249279929,2.4947736328006944,1.3779592610651732,-54.998538439052915,-20.651856182402806,5.349313066354867
1699733106,10.034301573099999,6.3481583578,-2.2289142519,0.11316278537618234,2.1252001636908955,1.1270463644753383,-54.60391698333821,-21.031862028646593,3.741596024554224
1699733106,10.034301573099999,6.3481583578,-2.2289142519,0.11316278537618234,2.1252001636908955,1.1270463644753383,-54.42852966968723,-19.906460099386145,4.267757965507162
1699733106,9.1298146303,6.8027946518,-1.9226329591,-1.1684324843632539,1.4098769697610194,0.718072087501767,-54.16544869921076,-19.994153756211634,4.311604793919907
1699733106,9.1298146303,6.8027946518,-1.9226329591,-1.1684324843632539,1.4098769697610194,0.718072087501767,-54.88161356328559,-19.526454253142354,4.326220403390821
1699733106,9.3499543095,5.331208752799999,0.10648060570000001,-1.663996908851394,0.6145304296272035,0.8591819575255085,-54.384682841274476,-19.39491376790412,4.70622624963461
1699733106,9.3499543095,5.331208752799999,0.10648060570000001,-1.663996908851394,0.6145304296272035,0.8591819575255085,-54.7939199064601,-19.219526454253142,4.53083893598363
1699733106,10.013962581,1.6498511827,1.2502498085,-1.7041612982629133,0.2040289895581371,0.8260425183532663,-54.7939199064601,-18.941829874305757,5.597778427360421
1699733106,10.013962581,1.6498511827,1.2502498085,-1.7041612982629133,0.2040289895581371,0.8260425183532663,-54.22391113709442,-18.8833674364221,5.524700380005846
1699733106,10.1850493969,-0.7704888772,0.9248259349,-1.4390457848849747,0.19242255003237485,0.6760751023756535,-54.282373574978074,-18.517977199649224,5.334697456883952
1699733106,10.1850493969,-0.7704888772,0.9248259349,-1.4390457848849747,0.19242255003237485,0.6760751023756535,-53.361590178310436,-18.254896229172758,5.027769657994739
1699733106,9.909874797899999,-1.3064811396,0.8231309743999999,-0.9932668773099729,0.16920967098085024,0.75716746274644,-53.77082724349606,-18.035662087109035,5.992399883075125
1699733106,9.909874797899999,-1.3064811396,0.8231309743999999,-0.9932668773099729,0.16920967098085024,0.75716746274644,-53.94621455714703,-17.81642794504531,4.735457468576439
1699733106,9.6059863277,-1.818545176,1.2478569859,-0.8177958376375931,0.059712077033856004,0.9454666724209783,-54.136217480268925,-17.55334697456884,4.954691610640164
1699733106,9.6059863277,-1.818545176,1.2478569859,-0.8177958376375931,0.059712077033856004,0.9454666724209783,-54.31160479391991,-17.100263080970475,5.159310143232973
1699733106,9.403792818,-1.9537396529,1.0432706536,-0.31780264017251747,0.019700403931885994,1.0986411308991306,-53.63928675825782,-17.100263080970475,6.094709149371528
1699733106,9.403792818,-1.9537396529,1.0432706536,0.5965099051003621,0.1032362252554646,1.0616837839881506,-53.2300496930722,-15.901783104355452,5.94855305466238
1699733106,8.9347995884,-1.495514125,0.1507478238,0.5965099051003621,0.1032362252554646,1.0616837839881506,-54.16544869921076,-15.916398713826366,5.846243788365975
1699733106,8.9347995884,-1.495514125,0.1507478238,1.3063353118864558,0.14080443740464255,1.0639745286313933,-53.62467114878691,-15.682548962291728,5.714703303127741
1699733106,8.8953180155,-0.8590233134,-0.1459621786,1.3063353118864558,0.14080443740464255,1.0639745286313933,-52.89389067524116,-15.463314820228003,5.422391113709442
1699733106,8.6596249894,0.1495514125,0.1100698396,1.7860172401814474,0.23197607420569633,1.0943650742317446,-52.74773458053201,-14.644840689856768,4.501607717041801
1699733106,8.6596249894,0.1495514125,0.1100698396,1.7860172401814474,0.23197607420569633,1.0943650742317446,-53.42005261619409,-14.425606547793043,4.852382344343759
1699733106,7.8891361122,2.0315063874,0.7022934331,2.1862866875106968,0.28359418683342863,1.0450377062472547,-53.25928091201403,-14.425606547793043,4.209295527623502
1699733106,7.8891361122,2.0315063874,0.7022934331,2.1862866875106968,0.28359418683342863,1.0450377062472547,-52.952353113124815,-13.97252265419468,3.814674071908799
1699733106,6.9846491694,3.0580272828,0.9020941202,2.1699460423889,0.15760323145508795,0.8631525815737956,-52.484653610055545,-14.191756796258403,3.5223618824905
1699733106,6.9846491694,3.0580272828,0.9020941202,2.1699460423889,0.15760323145508795,0.8631525815737956,-52.630809704764694,-13.548669979538147,3.3615901783104354
1699733106,6.3936219871999995,3.2913274863,0.9678967417,1.864971572218541,-0.13194689145077132,0.5934555789093718,-52.44080678164279,-13.504823151125404,3.507746273019585
1699733106,6.3936219871999995,3.2913274863,0.9678967417,1.864971572218541,-0.13194689145077132,0.5934555789093718,-52.82081262788658,-13.73867290266004,3.6246711487869043
1699733106,6.4570317861,3.0317062341999996,1.6881363443,1.3649783747534652,-0.4211915817375316,0.2701551515930723,-52.41157556270096,-14.14790996784566,4.852382344343759
1699733106,6.4570317861,3.0317062341999996,1.6881363443,1.3649783747534652,-0.4211915817375316,0.2701551515930723,-52.70388775211926,-14.279450453083895,4.735457468576439
1699733106,6.8147587648000005,2.5136601413,2.2480568327,0.897208318603335,-0.6282748974866588,-0.06444628262989062,-52.89389067524116,-14.32329728149664,5.0862320958783975
1699733106,6.8147587648000005,2.5136601413,2.2480568327,0.897208318603335,-0.6282748974866588,-0.06444628262989062,-53.04004676995031,-13.76790412160187,4.53083893598363
1699733106,8.293523131599999,1.3136596074,2.5555345367999998,0.4757113042467045,-0.7884743062040883,-0.33521229946116093,-53.127740426775794,-14.00175387313651,5.422391113709442
1699733106,8.293523131599999,1.3136596074,2.5555345367999998,0.4757113042467045,-0.7315111227421234,-0.5997169476009016,-53.66851797719965,-14.659456299327683,5.74393452206957
1699733106,9.468399028199999,-0.2261217357,3.0675985732,0.375834837801329,-0.7315111227421234,-0.5997169476009016,-53.09850920783396,-15.317158725518853,6.313943291435253
1699733106,9.468399028199999,-0.2261217357,3.0675985732,0.612850550222159,-0.43371431912059094,-0.7809912070361626,-53.80005846243788,-15.697164571762642,6.299327681964338
1699733106,10.253244840999999,-1.5684952143000002,3.1633114771999997,0.612850550222159,-0.43371431912059094,-0.7809912070361626,-53.42005261619409,-16.01870798012277,6.401636948260743
1699733106,10.804790450299999,-2.4693929232,2.9084758702999998,0.6889032723778118,-0.18906279122228575,-0.757472895365539,-53.17158725518855,-16.062554808535516,6.211634025138848
1699733106,10.804790450299999,-2.4693929232,2.9084758702999998,0.6889032723778118,-0.18906279122228575,-0.757472895365539,-53.960830166617946,-16.03332358959369,6.474714995615318
1699733106,11.2929262607,-3.4564322457,2.6763720781,0.5476406860445208,-0.15424347264499888,-0.5181664383014665,-53.916983338205206,-16.76410406313943,7.176264250219234
1699733106,11.2929262607,-3.4564322457,2.6763720781,0.5476406860445208,-0.15424347264499888,-0.5181664383014665,-53.82928968137971,-16.58871674948845,7.6585793627594265
1699733106,10.723434481899998,-4.235296002,2.7960132080999998,0.48655416222471926,-0.12278391287780109,-0.24465152789830513,-54.57468576439638,-16.793335282081262,7.7755042385267465
1699733106,10.723434481899998,-4.235296002,2.7960132080999998,0.48655416222471926,-0.12278391287780109,-0.24465152789830513,-54.39929845074539,-17.14410990938322,7.395498392282958
1699733106,10.8478612571,-3.3355947043999996,2.8749763539,0.5154175447295755,-0.03924809155422248,0.13713924597545443,-54.282373574978074,-17.05641625255773,7.4978076585793625
1699733106,10.8478612571,-3.3355947043999996,2.8749763539,0.5154175447295755,-0.03924809155422248,0.13713924597545443,-54.296989184449,-16.720257234726688,8.360128617363344
1699733106,10.7150596028,-1.6953148121,3.0257241777000004,0.6291911953439557,0.017867808217291947,0.31917708695846303,-53.93159894767612,-16.9248757673195,7.7755042385267465
1699733106,10.7150596028,-1.6953148121,3.0257241777000004,0.6291911953439557,0.017867808217291947,0.31917708695846303,-54.486992107570885,-16.66179479684303,8.345513007892428
1699733106,9.1585285015,0.1890329854,2.6811577232999997,0.8697193828844243,0.10965031025654375,0.19242255003237485,-54.76468868751827,-16.515638702133877,7.950891552177726
1699733106,9.1585285015,0.1890329854,2.6811577232999997,0.8697193828844243,0.10965031025654375,0.19242255003237485,-55.34931306635487,-17.275650394621454,9.251680795089156
1699733106,7.6103722793,1.6223337227999999,2.2480568327,0.8611672695496522,0.09071348787240527,-0.023976460599272102,-55.10084770534931,-16.720257234726688,9.675533469745687
1699733106,7.6103722793,1.6223337227999999,2.2480568327,0.8611672695496522,-0.23716842873037944,-0.19639317408066193,-54.73545746857644,-16.778719672610347,10.47939199064601
1699733106,7.816155022899999,2.3222343333,1.9597217094,0.37659841934907645,-0.23716842873037944,-0.19639317408066193,-55.75855013154049,-16.705641625255772,10.71324174218065
1699733106,10.145567823999999,2.5459632464,1.3495519463999999,0.023212879051524585,-0.8104654547792168,-0.45478916983842244,-55.13007892429115,-17.173341128325053,11.283250511546331
1699733106,10.145567823999999,2.5459632464,1.3495519463999999,0.023212879051524585,-0.8104654547792168,-0.45478916983842244,-56.03624671148787,-17.041800643086816,13.227126571178019
1699733106,13.0492580491,2.9072794589999997,2.0422740890999997,0.4218024469757296,-1.16033851995713,-0.7643451292952668,-55.58316281788951,-17.304881613563285,13.460976322712655
1699733106,13.0492580491,2.9072794589999997,2.0422740890999997,0.4218024469757296,-1.16033851995713,-0.7643451292952668,-56.065477930429694,-17.49488453668518,13.607132417421807
1699733106,14.0709932993,2.0542382021,2.3473589706,0.997848366596458,-0.618959202604139,-0.8843801486011768,-56.10932475884244,-17.58257819351067,14.250219234142063
1699733106,14.0709932993,2.0542382021,2.3473589706,0.997848366596458,-0.618959202604139,-0.8843801486011768,-56.59163987138264,-17.597193802981582,15.375621163402514
1699733106,12.827921958600001,-0.1698904046,1.0755737587,1.1814133706749617,-0.278554548618295,-0.5939137278380204,-56.518561824028055,-17.684887459807076,15.872551885413621
1699733106,12.827921958600001,-0.1698904046,1.0755737587,1.1814133706749617,-0.278554548618295,-0.5939137278380204,-56.72318035662087,-17.34872844197603,16.164864074831918
1699733106,11.3312114223,-3.2638100264,-0.0370887503,0.6250678549861192,-0.33948835612854705,-0.08536841703817265,-57.38088278281205,-17.071031862028647,17.421806489330606
1699733106,11.3312114223,-3.2638100264,-0.0370887503,0.6250678549861192,-0.33948835612854705,-0.08536841703817265,-56.94241449868459,-16.58871674948845,18.064893306050863
1699733106,9.5940222147,-2.4430718746,-0.48693939909999995,-0.39629882328096244,-0.3065016332658542,0.4864014459151697,-57.585501315404855,-16.237942122186492,18.38643671441099
1699733106,9.5940222147,-2.4430718746,-0.48693939909999995,-0.39629882328096244,-0.3065016332658542,0.4864014459151697,-57.42472961122479,-15.565624086524407,19.044139140602162
1699733106,7.7994052647,1.2466605746,0.0729810893,-0.6812674569003365,-0.29856038516927996,0.7363980446477075,-57.453960830166615,-14.498684595147617,19.30722011107863
1699733107,7.7994052647,1.2466605746,0.0729810893,-0.6812674569003365,-0.29856038516927996,0.7363980446477075,-57.65857936275943,-14.250219234142063,20.315697164571763
1699733107,6.7800628371,5.9629139192,0.6771687957999999,0.15317445847815234,-0.4286746809054573,0.5899431037897334,-57.863197895352236,-13.607132417421807,20.81262788658287
1699733107,6.7800628371,5.9629139192,0.6771687957999999,0.9445503745636812,-0.29123000231090385,0.2617557545678496,-58.053200818474124,-13.139432914352527,21.455714703303126
1699733107,6.4055861002,7.5696942951,0.0071784678,0.9445503745636812,-0.29123000231090385,0.2617557545678496,-58.06781642794504,-13.02250803858521,21.309558608593978
1699733107,6.4055861002,7.5696942951,0.0071784678,0.6317873726062974,-0.25579981849541894,-0.14278974942878608,-58.7985969014908,-12.715580239695996,22.44957614732534
1699733107,7.5098737301,6.4151573906,-1.3328021881999998,0.6317873726062974,-0.25579981849541894,-0.14278974942878608,-59.10552470038001,-12.78865828705057,23.648056123940368
1699733107,10.4662060524,3.8057843452999998,-2.572284295,-0.026572637861613665,-0.48777589270111527,-0.5196936013969615,-59.31014323297281,-12.949429991230636,25.02192341420637
1699733107,10.4662060524,3.8057843452999998,-2.572284295,-0.026572637861613665,-0.48777589270111527,-0.5196936013969615,-59.441683718211046,-13.402513884828998,25.81116632563578
1699733107,11.9330063062,-1.3351950108,-3.4540394231000002,-0.9159924246779241,-0.7493789309594153,-1.2460123696144019,-58.82782812043262,-14.045600701549255,27.258111663256358
1699733107,11.9330063062,-1.3351950108,-3.4540394231000002,-0.9159924246779241,-0.7493789309594153,-1.2460123696144019,-59.38322128032739,-15.229465068693365,28.14966384098217
1699733107,11.1768743646,-4.4207397534999995,-1.8616159827999998,-0.6569855636819655,-0.8640688794310927,-1.5650367402633154,-59.45629932768196,-14.761765565624085,28.675825781935103
1699733107,11.1768743646,-4.4207397534999995,-1.8616159827999998,-0.6569855636819655,-0.8640688794310927,-1.5650367402633154,-59.41245249926922,-14.68868751826951,29.36275942706811
1699733107,9.9170532657,-5.3946185517,0.8841479507000001,-0.1189660051390635,-1.1047497832811108,-1.074511953990309,-59.51476176556562,-14.250219234142063,30.19584916691026
1699733107,9.9170532657,-5.3946185517,0.8841479507000001,-0.1189660051390635,-1.1047497832811108,-1.074511953990309,-59.60245542239111,-13.94329143525285,30.69277988892137
1699733107,9.5928258034,-2.081755662,0.8255237969999999,0.1627955859797711,-0.7464773210779748,-0.1875356281267907,-59.25168079508916,-12.61327097339959,31.37971353405437
1699733107,9.5928258034,-2.081755662,0.8255237969999999,0.1627955859797711,-0.7464773210779748,-0.1875356281267907,-59.64630225080386,-11.341712949429992,30.99970768781058
1699733107,9.7244310464,2.2073788485,-0.9415756931,0.871399262289469,-0.4746422900798579,0.22098049991813207,-58.78398129201988,-10.844782227418884,30.722011107863196
1699733107,9.7244310464,2.2073788485,-0.9415756931,0.871399262289469,-0.4746422900798579,0.22098049991813207,-59.83630517392575,-9.938614440222157,31.745103770827242
1699733107,9.7040920543,3.2973095428,-0.7142575461,0.7982481500152565,-0.4431827303126601,0.1269072532356377,-60.05553931598948,-9.295527623501899,31.598947676118094
1699733107,9.7040920543,3.2973095428,-0.7142575461,0.3081815126708987,-0.4298964113818533,-0.005039638215133627,-59.51476176556562,-9.222449576147325,32.256650102309266
1699733107,9.745966449800001,2.6189443356999997,-0.0502492746,0.3081815126708987,-0.4298964113818533,-0.005039638215133627,-59.88015200233849,-8.506284712072494,32.2858813212511
1699733107,9.745966449800001,2.6189443356999997,-0.0502492746,-0.08704829644321718,-0.3532328239880024,-0.1308778772839248,-59.923998830751245,-8.155510084770535,32.37357497807658
1699733107,9.4935236655,1.5696916256,-0.0981057266,-0.08704829644321718,-0.3532328239880024,-0.1308778772839248,-59.953230049693076,-7.6147325343466825,32.19818766442561
1699733107,9.032905315,0.8949156524,-0.6484549246,-0.2999348319552255,-0.26022859147235455,-0.15851952931238497,-56.34317451037708,-6.913183279742766,32.24203449283835
1699733107,9.032905315,0.8949156524,-0.6484549246,-0.2999348319552255,-0.26022859147235455,-0.15851952931238497,-59.83630517392575,-6.89856767027185,31.482022800350773
1699733107,8.8402830957,0.969093153,-0.9942177902999999,-0.22525655658551816,-0.21853703896534,-0.15729779883598893,-59.74861151710026,-6.5331774334989765,31.598947676118094
1699733107,8.8402830957,0.969093153,-0.9942177902999999,-0.22525655658551816,-0.21853703896534,-0.15729779883598893,-60.099386144402224,-6.094709149371528,31.84741303712365
1699733107,9.2494557603,1.0205388389,-0.9930213789999999,-0.023671027980173093,-0.27427849195090886,-0.23014347849110228,-59.9824612686349,-6.094709149371528,32.0958783981292
1699733107,9.2494557603,1.0205388389,-0.9930213789999999,-0.023671027980173093,-0.27427849195090886,-0.23014347849110228,-60.45016077170418,-5.74393452206957,30.91201403098509
1699733107,9.3152583818,0.35174492220000003,-1.2370892842,0.08384125394267761,-0.32131511529215606,-0.35140022827340833,-59.997076878105815,-5.378544285296697,30.590470622624967
1699733107,9.3152583818,0.35174492220000003,-1.2370892842,0.08384125394267761,-0.32131511529215606,-0.35140022827340833,-60.040923706518555,-5.363928675825782,30.31277404267758
1699733107,9.3116691479,-0.20458633229999998,-1.6283157793,0.1707368340763453,-0.36987890172889826,-0.40653081602077923,-60.08477053493131,-5.027769657994739,29.289681379713535
1699733107,9.3116691479,-0.20458633229999998,-1.6283157793,0.1707368340763453,-0.36987890172889826,-0.40653081602077923,-60.08477053493131,-5.027769657994739,29.567377959660917
1699733107,9.242277292499999,0.1256231865,-1.3555340029,0.2464841236128992,-0.438906673645274,-0.37858373137322,-60.49400760011693,-4.53083893598363,29.231218941829873
1699733107,9.242277292499999,0.1256231865,-1.3555340029,0.2464841236128992,-0.438906673645274,-0.37858373137322,-59.953230049693076,-4.910844782227419,30.502776965799473
1699733107,9.3954179389,0.8721838377000001,-0.6867400861999999,0.2098322093210183,-0.5050328356802092,-0.29642235683558693,-59.967845659163984,-4.56007015492546,29.143525285004383
1699733107,9.3954179389,0.8721838377000001,-0.6867400861999999,0.2098322093210183,-0.5050328356802092,-0.29642235683558693,-59.821689564454836,-4.501607717041801,29.026600409237062
1699733107,9.619146852,1.5421741657,-0.32901310749999996,0.17760906800607296,-0.5337435018755159,-0.258854144686409,-59.45629932768196,-5.057000876936568,28.44197603040047
1699733107,9.619146852,1.5421741657,-0.32901310749999996,0.17760906800607296,-0.5337435018755159,-0.258854144686409,-59.66091786027478,-4.750073078047355,28.222741888336746
1699733107,9.8321080634,1.91425808,-0.2524427843,0.052228977865930316,-0.5073235803234517,-0.278249115999196,-59.20783396667642,-5.042385267465653,29.04121601870798
1699733107,9.8321080634,1.91425808,-0.2524427843,-0.17348572764823636,-0.43631049638293246,-0.3078760800517997,-59.10552470038001,-5.217772581116632,28.500438468284127
1699733107,9.8847501606,1.8604195715,-0.1423729447,-0.17348572764823636,-0.43631049638293246,-0.3078760800517997,-59.20783396667642,-5.466237942122187,28.675825781935103
1699733107,9.8847501606,1.8604195715,-0.0071784678,-0.32116239898260657,-0.3275764839836857,-0.32803463291233426,-58.55013154048524,-5.86085939783689,28.018123355743935
1699733107,9.811769071299999,1.6666009409,-0.0071784678,-0.32116239898260657,-0.3275764839836857,-0.32803463291233426,-58.91552177725811,-6.401636948260743,27.901198479976614
1699733107,9.7842516114,1.1054840412,-0.430708068,-0.36163222101322506,-0.22831088277650824,-0.3645338308946657,-58.944752996199945,-7.10318620286466,27.82812043262204
1699733107,9.7842516114,1.1054840412,-0.430708068,-0.36163222101322506,-0.22831088277650824,-0.3645338308946657,-58.667056416252564,-7.19087985969015,27.448114586378253
1699733107,9.710074110799999,0.33858439789999994,-1.3722837611,-0.35277467505935384,-0.14813482026301875,-0.419511702332487,-58.65244080678165,-7.059339374451914,26.96579947383806
1699733107,9.710074110799999,0.33858439789999994,-1.3722837611,-0.35277467505935384,-0.14813482026301875,-0.419511702332487,-58.14089447529962,-7.468576439637532,27.550423852674655
1699733107,9.5772724565,-0.2021935097,-1.8281164664,-0.4405865530503185,-0.08674286382411818,-0.42378775899987314,-58.87167494884537,-8.126278865828706,26.93656825489623
1699733107,9.5772724565,-0.2021935097,-1.8281164664,-0.4405865530503185,-0.08674286382411818,-0.42378775899987314,-58.36012861736335,-9.14937152879275,26.395790704472375
1699733107,9.497112899400001,-0.2333002035,-1.2945170266,-0.5358815302092089,-0.11301006906663283,-0.32681290243593825,-58.17012569424145,-9.310143232972814,26.074247296112247
1699733107,9.497112899400001,-0.2333002035,-1.2945170266,-0.5358815302092089,-0.11301006906663283,-0.32681290243593825,-57.87781350482315,-10.055539315989478,25.708857059339373
1699733107,9.6897351187,0.7920242806,-0.5539384319,-0.2820670237379336,-0.13759739490410294,-0.15989397609833053,-57.95089155217773,-10.391698333820521,25.13884828997369
1699733107,9.6897351187,0.7920242806,-0.5539384319,-0.2820670237379336,-0.13759739490410294,-0.15989397609833053,-57.22011107863197,-10.669394913767904,25.25577316574101
1699733107,10.0474620974,1.43569356,-1.0851450490999999,0.0439822971502571,0.018936822384138473,-0.11316278537618234,-57.1470330312774,-10.830166617947969,25.080385852090032
1699733107,10.0474620974,1.43569356,-1.0851450490999999,0.0439822971502571,0.018936822384138473,-0.1708895503858948,-57.11780181233558,-11.195556854720841,24.802689272142647
1699733107,11.2390877522,1.0037890807,-2.141576227,0.017715091907742442,0.1475239550248207,-0.1708895503858948,-56.81087401344635,-11.867874890382929,24.846536100555394
1699733107,11.2390877522,1.0037890807,-2.141576227,-0.32864549815053223,0.06093380751025203,-0.11255192013798433,-56.27009646302251,-11.911721718795674,25.080385852090032
1699733107,11.7427769095,0.41874395499999995,-1.8305092889999999,-0.32864549815053223,0.06093380751025203,-0.11255192013798433,-56.79625840397544,-12.014030985092077,24.729611224788073
1699733107,11.7427769095,0.42592242280000003,-0.5527420206,-0.5044219704420112,-0.023671027980173093,0.06093380751025203,-56.38702133878982,-13.183279742765272,24.466530254311607
1699733107,12.1830562679,0.42592242280000003,-0.5527420206,-0.5044219704420112,-0.023671027980173093,0.06093380751025203,-56.18240280619702,-13.884828997369189,24.554223911137093
1699733107,12.5132657867,0.6412764568,0.2859423007,-0.4115704542359129,0.15653421728824143,0.1989893513430035,-55.6854720841859,-14.337912890967552,24.77345805320082
1699733107,12.5132657867,0.6412764568,0.2859423007,-0.4115704542359129,0.15653421728824143,0.1989893513430035,-55.78778135048231,-13.97252265419468,24.9488453668518
1699733107,12.7346018772,-0.0693918554,0.2823530668,-0.297644087311983,0.5732970260488374,0.2538145064712754,-55.641625255773164,-14.805612394036832,24.671148786904414
1699733107,12.7346018772,-0.0693918554,0.2823530668,-0.297644087311983,0.5732970260488374,0.2538145064712754,-55.422391113709445,-14.995615317158725,24.261911721718796
1699733107,11.940184774,-0.43429730190000004,0.8626125473,-0.2021963938435431,0.8313875891874989,0.4243986242380712,-55.320081847413036,-14.600993861444023,24.188833674364222
1699733107,11.940184774,-0.43429730190000004,0.8626125473,-0.2021963938435431,0.8313875891874989,0.4243986242380712,-55.90470622624964,-15.024846536100556,23.44343759134756
1699733107,10.942377749799999,-0.0179461695,2.1332013479,-0.12980886311707826,1.1753047182929817,0.7383833566718511,-55.78778135048231,-15.185618240280618,23.18035662087109
1699733107,10.942377749799999,-0.0179461695,2.1332013479,-0.12980886311707826,1.1753047182929817,0.7383833566718511,-55.40777550423853,-14.878690441391406,22.873428821981875
1699733107,9.865607579799999,0.897308475,2.1858434451,-0.099723750135826,1.7899878642297344,1.0809260389913882,-56.021631102016954,-14.586378251973105,22.391113709441683
1699733107,9.865607579799999,0.897308475,2.1858434451,-0.099723750135826,1.7899878642297344,1.0809260389913882,-55.58316281788951,-14.367144109909383,21.54340836012862
1699733107,9.1298146303,2.5830519966999996,0.5754738353000001,-0.026878070480712675,2.2612703954995035,1.2386819867560255,-56.31394329143525,-14.484068985676704,20.681087401344637
1699733107,9.1298146303,2.5830519966999996,0.5754738353000001,-0.026878070480712675,2.2612703954995035,1.2386819867560255,-56.76702718503361,-14.542531423560362,20.403390821397252
1699733107,9.0233340246,4.7102712880999995,-0.8374879099999999,-0.23548854932533492,2.193311637749974,1.1250610524511948,-56.56240865244081,-14.440222157263957,20.286465945629935
1699733107,9.0233340246,4.7102712880999995,-0.8374879099999999,-0.23548854932533492,2.193311637749974,1.1250610524511948,-56.927798889213676,-14.264834843612977,21.236480561239404
1699733107,8.3892360356,5.8456656118,-1.1234302107,-1.0277807632681608,1.6042848318175378,0.9303477577755773,-57.20549546916106,-14.557147033031278,21.119555685472083
1699733107,8.3892360356,5.8456656118,-1.1234302107,-1.0277807632681608,1.6042848318175378,0.7999280294203012,-57.32242034492838,-14.294066062554808,21.572639579070447
1699733107,9.0029950325,4.8873401605,0.2727817764,-1.7646369568445168,0.7828238027507567,0.7999280294203012,-57.11780181233558,-14.3817597193803,23.0926629640456
1699733107,9.0029950325,4.8873401605,0.2727817764,-1.8718438061482685,0.3324634058892698,0.6626360671352972,-57.22011107863197,-15.27331189710611,23.560362467114878
1699733107,10.4015998422,2.4155544147,1.6773686425999998,-1.8718438061482685,0.3324634058892698,0.6626360671352972,-57.27857351651564,-15.010230926629639,24.39345220695703
1699733107,10.4015998422,2.4155544147,1.5589239239000001,-1.3396274673682476,0.4101960074499673,0.48243082186688263,-57.74627301958491,-14.703303127740428,25.007307804735458
1699733107,10.5942220615,0.8362914987,1.5589239239000001,-1.3396274673682476,0.4101960074499673,0.48243082186688263,-58.06781642794504,-14.820228003507745,24.451914644840688
1699733107,9.9876415324,0.1842473402,1.0097711372,-0.7915286323950784,0.5523748916405554,0.4540255882906749,-58.111663256357794,-14.644840689856768,24.466530254311607
1699733107,9.9876415324,0.1842473402,1.0097711372,-0.7915286323950784,0.5523748916405554,0.4540255882906749,-57.95089155217773,-14.279450453083895,25.285004384682843
1699733107,9.3667040677,-0.04307080679999999,1.2095718243,-0.4847215665101252,0.5065599987757042,0.5250386722311942,-58.57936275942707,-14.264834843612977,25.416544869921076
1699733107,9.3667040677,-0.04307080679999999,1.2095718243,-0.4847215665101252,0.5065599987757042,0.5250386722311942,-59.03244665302543,-13.460976322712655,25.85501315404852
1699733107,8.697910151,-0.2213360905,1.4536397294999999,-0.4095851422117693,0.4150829293555514,0.5256495374693922,-59.10552470038001,-13.460976322712655,25.767319497223035
1699733107,8.697910151,-0.2213360905,1.4536397294999999,-0.4095851422117693,0.4150829293555514,0.5256495374693922,-58.93013738672903,-12.774042677579656,26.541946799181527
1699733107,8.364111398299999,-0.7944171031999999,1.0229316615,-0.4714352475793184,0.3174972075534185,0.49357911246399644,-59.353990061385566,-12.525577316574102,25.9280912014031
1699733107,8.364111398299999,-0.7944171031999999,1.0229316615,-0.4714352475793184,0.3174972075534185,0.49357911246399644,-59.28091201403098,-11.69248757673195,26.951183864367145
1699733107,8.3545401079,-1.2179467034,0.6352944003,-0.377056568277725,0.14508049407202864,0.5334380692564169,-59.06167787196727,-11.283250511546331,26.980415083308973
1699733107,8.3545401079,-1.2179467034,0.6352944003,-0.377056568277725,0.14508049407202864,0.5334380692564169,-59.23706518561824,-10.464776381175096,27.097339959076294
1699733107,8.681160392799999,-0.9188438784,0.7477570625,0.002748893571891069,-0.01756237559819294,0.618959202604139,-58.5062847120725,-9.280912014030985,27.974276527331188
1699733107,8.681160392799999,-0.9188438784,0.7477570625,0.45097126209968486,-0.060781091200702526,0.6808093079716881,-58.608593978368894,-8.301666179479685,27.8865828705057
1699733107,8.720641965699999,-0.2069791549,0.8889335959,0.45097126209968486,-0.060781091200702526,0.6808093079716881,-58.389359836305175,-7.468576439637532,27.170418006430868
1699733107,8.720641965699999,-0.2069791549,0.8889335959,0.8836165670534292,-0.0198531202414355,0.6418666490365645,-58.3162817889506,-7.483192049108448,27.448114586378253
1699733108,8.518448456,0.5970092387,1.2251251712,0.8836165670534292,-0.0198531202414355,0.6418666490365645,-57.61473253434668,-5.86085939783689,26.863490207541656
1699733108,8.0135628874,1.1090732750999999,1.5122638832,1.0516045075578833,-0.08384125394267761,0.5393940053288475,-57.38088278281205,-5.393159894767612,27.141186787489037
1699733108,8.0135628874,1.1090732750999999,1.5122638832,1.0516045075578833,-0.08384125394267761,0.5393940053288475,-57.20549546916106,-4.472376498099971,26.337328266588717
1699733108,7.8185478454999995,1.0923235169,1.7898313048,1.0516045075578833,-0.2550362369476714,0.32971451231737875,-56.24086524408067,-3.990061385559778,27.141186787489037
1699733108,7.8185478454999995,1.0923235169,1.7898313048,1.0516045075578833,-0.2550362369476714,0.32971451231737875,-56.22624963460976,-3.4200526161940954,27.02426191172172
1699733108,7.8640114749,0.9607182739,1.8412769907000002,0.8943067087218945,-0.37522397256313095,0.08200865822808356,-55.74393452206957,-3.259280912014031,27.097339959076294
1699733108,7.8640114749,0.9607182739,1.8412769907000002,0.8943067087218945,-0.37522397256313095,0.08200865822808356,-55.6854720841859,-2.6600409237065183,27.02426191172172
1699733108,8.538787448099999,0.1160518961,1.9429719511999999,0.7333437184567174,-0.44348816293175913,-0.10415252311276162,-54.998538439052915,-2.791581408944753,26.93656825489623
1699733108,8.538787448099999,0.1160518961,1.9429719511999999,0.7333437184567174,-0.44348816293175913,-0.10415252311276162,-55.39315989476761,-2.104647763811751,25.650394621455714
1699733108,9.1932244292,-0.7166503687,2.5339991334,0.9158397083683746,-0.36514469613286366,-0.21807889003669145,-55.276235019000296,-1.666179479684303,25.665010230926626
1699733108,9.1932244292,-0.7166503687,2.5339991334,0.9158397083683746,-0.36514469613286366,-0.21807889003669145,-55.15931014323298,-1.9146448406898566,25.94270681087401
1699733108,9.2015993083,-0.2763710103,2.7493531674,1.1067350953052544,-0.2504547476611863,-0.3321579732701708,-55.14469453376206,-1.666179479684303,25.080385852090032
1699733108,9.2015993083,-0.2763710103,2.7493531674,1.1067350953052544,-0.2504547476611863,-0.3321579732701708,-54.67699503069278,-1.651563870213388,24.627301958491667
1699733108,9.5246303593,-0.7645068207,3.0173492985999997,0.9114109353914389,-0.22479840765686965,-0.3854559653029477,-54.09237065185618,-1.5054077755042385,24.51037708272435
1699733108,9.5246303593,-0.7645068207,3.0173492985999997,0.9114109353914389,-0.22479840765686965,-0.3854559653029477,-54.019292604501615,-1.6807950891552177,23.47266881028939
1699733108,9.5904329808,-1.1988041226,3.0568308715,0.7454083069111282,-0.16187928812247407,-0.38362336958835364,-53.99006138555977,-1.4907921660333234,23.15112540192926
1699733108,9.5904329808,-1.1988041226,3.0568308715,0.7454083069111282,-0.16187928812247407,-0.38362336958835364,-53.25928091201403,-1.5054077755042385,23.35574393452207
1699733108,9.4743810847,-1.1150553316,2.775674216,0.5028948073465161,-0.15393804002589986,-0.2901609881440573,-52.89389067524116,-1.2569424144986847,23.32651271558024
1699733108,9.4743810847,-1.1150553316,2.775674216,0.2999348319552255,-0.18173240836390955,-0.1586722456219345,-52.85004384682841,-1.5784858228588132,23.662671733411283
1699733108,9.8512506442,-1.4105689227,2.9324040963,0.2999348319552255,-0.18173240836390955,-0.1586722456219345,-52.04618532592809,-0.964630225080386,23.26805027769658
1699733108,10.3034941156,-1.4129617452999998,3.8656049103,0.4143193478078039,-0.0681114740590787,-0.050549098460885775,-51.60771704180064,-1.1838643671441098,22.420344928383514
1699733108,10.3034941156,-1.4129617452999998,3.8656049103,0.4143193478078039,-0.0681114740590787,-0.050549098460885775,-51.1838643671441,-1.3592516807950892,22.44957614732534
1699733108,10.382457261399999,-1.7407784414999998,4.18743955,0.5639813311663177,0.07284567965511334,0.04184426881656405,-51.1838643671441,-1.3592516807950892,21.821104940076
1699733108,10.382457261399999,-1.7407784414999998,4.18743955,0.5639813311663177,0.07284567965511334,0.04184426881656405,-51.11078631978954,-1.3007892429114294,21.178018123355745
1699733108,10.146764235300001,-2.0303099761,2.8462624827,0.8006916109680486,0.13194689145077132,0.09789115442123195,-50.74539608301666,-0.6577024261911721,21.265711780181235
1699733108,10.146764235300001,-2.0303099761,2.8462624827,0.8006916109680486,0.13194689145077132,0.09789115442123195,-50.950014615609476,-1.2861736334405145,19.906460099386145
1699733108,9.1680997919,-1.7635102562,1.6091731985,1.239140135684674,0.14645494085797417,0.048869219055841226,-50.219234142063726,-0.9792458345513008,20.023384975153462
1699733108,9.1680997919,-1.7635102562,1.6091731985,1.239140135684674,0.14645494085797417,0.048869219055841226,-49.95615317158725,-0.9792458345513008,19.321835720549547
1699733108,7.8352976037,-1.4584253747,1.3328021881999998,1.3229813896273517,0.09514226084934088,0.028863382504856226,-49.7076878105817,-1.6954106986261326,20.023384975153462
1699733108,7.8352976037,-1.4584253747,1.3328021881999998,1.3229813896273517,0.09514226084934088,0.028863382504856226,-49.415375621163406,-1.4761765565624088,18.82490499853844
1699733108,7.6701928443,-0.2847458894,1.7479569093,0.9112582190818894,-0.16920967098085024,0.0638354173916926,-49.210757088570595,-1.9731072785735166,20.301081555100847
1699733108,7.6701928443,-0.2847458894,1.7479569093,0.9112582190818894,-0.16920967098085024,0.0638354173916926,-48.377667348728444,-1.7831043554516222,20.096463022508036
1699733108,8.5758761984,1.1760723079,0.7944171031999999,0.715323193929876,-0.46089782222040254,0.010995574287564275,-48.08535515931015,-2.192341420637241,18.517977199649224
1699733108,8.5758761984,1.1760723079,0.7944171031999999,0.715323193929876,-0.7945829585860684,-0.1113301896615883,-47.95381467407191,-2.2946506869336454,19.89184448991523
1699733108,10.8059868616,3.0257241777000004,0.46540399569999996,0.9060658645572063,-0.7945829585860684,-0.1113301896615883,-47.23764980999708,-2.8500438468284126,20.140309850920783
1699733108,10.8059868616,3.0257241777000004,0.46540399569999996,1.28968923414556,-1.0410670821989676,-0.3089450942186463,-47.54457760888629,-2.3238819058754747,20.03800058462438
1699733108,13.2969151882,4.3058842687,2.6225335696,1.28968923414556,-1.0410670821989676,-0.3089450942186463,-47.69073370359544,-2.33849751534639,19.89184448991523
1699733108,13.2969151882,4.3058842687,4.0390845488,1.8313739841176502,-0.7867944267990438,-0.6826419036862821,-47.80765857936276,-2.4992692195264543,19.131832797427652
1699733108,13.250255147499999,3.0317062341999996,4.0390845488,1.8313739841176502,-0.7867944267990438,-0.6826419036862821,-47.5591932183572,-2.4554223911137094,18.985676702718504
1699733108,12.7046915947,-0.6628118601999999,4.3800617693,1.7259997305284924,-0.2832887542143296,-0.6843217830913267,-48.12920198772289,-2.5431160479391988,19.014907921660335
1699733108,12.7046915947,-0.6628118601999999,4.3800617693,1.7259997305284924,-0.2832887542143296,-0.6843217830913267,-48.56767027185034,-2.6015784858228588,20.257234726688104
1699733108,11.8971139672,-3.5437702705999996,1.890329854,0.7096726904765444,-0.14233160050013757,-0.17623462122012742,-48.94767611809412,-2.616194095293774,20.37415960245542
1699733108,11.8971139672,-3.5437702705999996,1.890329854,0.7096726904765444,-0.14233160050013757,-0.17623462122012742,-48.68459514761766,-2.5431160479391988,20.34492838351359
1699733108,9.3068835027,-0.9487541609,-0.251246373,0.11652254418627142,-0.178830798482469,0.1269072532356377,-48.436129786612106,-2.7185033615901784,20.798012277111955
1699733108,9.3068835027,-0.9487541609,-0.251246373,0.11652254418627142,-0.178830798482469,0.1269072532356377,-48.84536685179772,-2.7331189710610935,21.382636655948552
1699733108,7.5768727629,2.0626130812,-0.7633104094,0.1753183233628304,-0.21380283336930536,0.04673119072214818,-48.68459514761766,-2.820812627886583,20.125694241449867
1699733108,7.5768727629,2.0626130812,-0.7633104094,0.1753183233628304,-0.21380283336930536,0.04673119072214818,-48.801520023384974,-2.3238819058754747,21.01724641917568
1699733108,6.9822563468,2.8737799425999997,-0.8997012976000001,0.518930019849214,-0.26129760563920107,-0.1725694297909393,-48.99152294650687,-2.4992692195264543,20.944168371821103
1699733108,6.9822563468,2.8737799425999997,-0.8997012976000001,0.518930019849214,-0.26129760563920107,-0.1725694297909393,-49.12306343174511,-2.6454253142356037,20.388775211926337
1699733108,7.4715885685,3.4265219632000004,-1.1796615418,0.8608618369305531,-0.2542726553999239,-0.1672243589567067,-48.7284419760304,-2.2508038585209005,20.87109032446653
1699733108,7.4715885685,3.4265219632000004,-1.1796615418,0.8608618369305531,-0.2542726553999239,-0.1672243589567067,-49.09383221280327,-2.3238819058754747,21.616486407483194
1699733108,8.7182491431,3.6095728921,-1.5242279962,0.8370380926408305,-0.37659841934907645,-0.05589416929511841,-49.16691026015785,-2.4700380005846245,21.73341128325051
1699733108,9.865607579799999,1.4105689227,-1.9369898947,0.5348125160423624,-0.7223481441691532,-0.23182335789614683,-49.883075124232676,-2.7769657994738384,22.347266881028936
1699733108,9.865607579799999,1.4105689227,-1.9369898947,0.5348125160423624,-0.7223481441691532,-0.23182335789614683,-48.88921368021046,-2.6746565331774335,22.186495176848876
1699733108,10.04985492,-1.232303639,-1.5026925928000001,0.4491386663850908,-0.8836165670534292,-0.5525276079501048,-49.22537269804151,-3.1423560362467113,22.683425898859984
1699733108,10.04985492,-1.232303639,-1.5026925928000001,0.4491386663850908,-0.8836165670534292,-0.5525276079501048,-49.210757088570595,-3.1862028646594562,22.698041508330896
1699733108,9.7555377402,-2.2648065909,-0.5168496816,0.7115052861911384,-0.7252497540505938,-0.5838344514077531,-48.96229172756504,-3.1862028646594562,22.332651271558024
1699733108,9.7555377402,-2.2648065909,-0.5168496816,0.7115052861911384,-0.7252497540505938,-0.5838344514077531,-49.54691610640164,-3.010815551008477,22.756503946214558
1699733108,9.9756774194,-0.8279166196,-0.15672988029999999,1.0415252311276162,-0.4734205596034619,-0.3898847382798833,-49.53230049693072,-2.966968722595732,22.814966384098216
1699733108,9.9756774194,-0.8279166196,-0.15672988029999999,1.0415252311276162,-0.4734205596034619,-0.3898847382798833,-49.181525869628764,-3.376205787781351,22.844197603040048
1699733108,9.9613204838,0.5419743189,-0.7549355303,0.9905179837380819,-0.3659082776806112,-0.16829337312355322,-49.049985384390524,-3.040046769950307,23.282665887167493
1699733108,9.9613204838,0.5419743189,-0.7549355303,0.9905179837380819,-0.3659082776806112,-0.16829337312355322,-49.839228295819936,-3.0692779888921367,23.136509792458344
1699733108,9.7890372566,0.7286144817,-1.3208380752,0.8410087166891177,-0.3903428872085318,-0.099723750135826,-49.16691026015785,-2.9377375036539024,23.311897106109324
1699733108,9.7890372566,0.7286144817,-1.3208380752,0.8410087166891177,-0.3903428872085318,-0.099723750135826,-49.254603916983335,-2.6600409237065183,23.458053200818473
1699733108,9.7076812882,0.5180460929,-1.375872995,0.8090910079932714,-0.4300491276914028,-0.13729196228500395,-49.035369774919616,-2.39695995323005,22.78573516515639
1699733108,9.7076812882,0.5180460929,-1.375872995,0.8090910079932714,-0.4300491276914028,-0.13729196228500395,-49.40076001169248,-2.528500438468284,22.71265711780181
1699733108,9.8919286284,0.3242274623,-1.2095718243,0.9089674744386468,-0.41080687268816535,-0.19028452169868176,-49.67845659163987,-2.4554223911137094,23.048816135632855
1699733108,9.8919286284,0.3242274623,-1.2095718243,0.9089674744386468,-0.41080687268816535,-0.19028452169868176,-48.71382636655949,-2.8061970184156677,22.698041508330896
1699733108,9.857232700700001,0.5934200048,-0.8446663778000001,1.0128145649323095,-0.34666602267737373,-0.14996741597761276,-48.84536685179772,-2.747734580532008,22.78573516515639
1699733108,9.857232700700001,0.5934200048,-0.8446663778000001,1.0506882097005865,-0.2587014283768595,-0.10888672870879623,-49.38614440222157,-2.572347266881029,21.938029815843322
1699733108,9.7124669334,0.7166503687,-0.6448656907,1.0506882097005865,-0.2587014283768595,-0.10888672870879623,-48.830751242326805,-2.4408067816427943,21.73341128325051
1699733108,9.7124669334,0.7166503687,-0.6448656907,0.9677632536152058,-0.18768834443634022,-0.0755945732270044,-48.78690441391406,-2.528500438468284,21.19263373282666
1699733108,9.579665279099999,0.4725824635,-1.0671988796,0.9677632536152058,-0.18768834443634022,-0.0755945732270044,-48.976907337035954,-2.557731657410114,21.01724641917568
1699733108,9.1549392676,0.33738798659999997,-1.3004990831,0.9275988642036863,-0.17669277014877594,-0.05451972250917286,-48.479976615024846,-2.5138848289973694,20.798012277111955
1699733108,9.1549392676,0.33738798659999997,-1.3004990831,0.9275988642036863,-0.17669277014877594,-0.05451972250917286,-48.830751242326805,-2.4992692195264543,20.35954399298451
1699733108,9.0879402348,0.5754738353000001,-1.0001998468,1.0038043026688888,-0.19929478396210248,-0.07742716894159844,-48.699210757088565,-2.7185033615901784,20.66647179187372
1699733108,9.0879402348,0.5754738353000001,-1.0001998468,1.0038043026688888,-0.19929478396210248,-0.07742716894159844,-49.06460099386145,-2.4554223911137094,18.44489915229465
1699733108,9.6107719729,0.9643075078,-0.5670989562,1.1820242359131596,-0.19792033717615698,-0.14950926704896425,-48.96229172756504,-2.616194095293774,19.1756796258404
1699733108,9.6107719729,0.9643075078,-0.5670989562,1.1820242359131596,-0.19792033717615698,-0.14950926704896425,-48.903829289681376,-2.6892721426483486,17.801812335574393
1699733108,9.8620183459,1.244267752,-0.2069791549,1.3805554383275145,-0.16157385550337505,-0.23182335789614683,-48.859982461268636,-2.616194095293774,17.567962584039755
1699733108,9.8620183459,1.244267752,-0.2069791549,1.3805554383275145,-0.16157385550337505,-0.23182335789614683,-49.26921952645426,-2.747734580532008,17.129494299912306
1699733108,10.0426764522,0.9080761767,-0.5730810127,1.4362968913130836,-0.06658431096358366,-0.2900082718345078,-49.283835135925166,-2.2069570301081556,16.530254311604793
1699733108,10.0426764522,0.9080761767,-0.5730810127,1.4362968913130836,-0.06658431096358366,-0.2900082718345078,-48.68459514761766,-2.747734580532008,16.106401636948263
1699733108,9.9146604431,0.8123632727,-1.0384850084,1.4100296860705688,-0.017409659288643436,-0.29962939933612653,-49.035369774919616,-3.040046769950307,15.81408944752996
1699733108,9.9146604431,0.8123632727,-1.0384850084,1.4100296860705688,0.03558290012503439,-0.2747366408795574,-48.976907337035954,-2.8792750657702424,14.68868751826951
1699733108,9.340383019099999,0.8590233134,-1.4895320685,1.2990049290280796,0.03558290012503439,-0.2747366408795574,-48.96229172756504,-3.273896521484946,14.513300204618531
1699733108,9.340383019099999,0.8590233134,-1.4895320685,1.1282680949517343,0.048411070127192715,-0.22403482610912212,-49.283835135925166,-3.697749196141479,14.045600701549255
1699733108,9.3284189061,0.8578269021,-1.79461695,1.1282680949517343,0.048411070127192715,-0.22403482610912212,-48.59690149079216,-3.332358959368606,13.285589009061678
1699733108,9.3284189061,0.8578269021,-1.79461695,0.9918924305240273,-0.014508049407202865,-0.16508633062301364,-48.94767611809412,-3.6392867582578194,13.607132417421807
1699733108,9.579665279099999,1.0325029519,-1.304088317,0.9918924305240273,-0.014508049407202865,-0.16508633062301364,-48.84536685179772,-3.7854428529669684,12.291727565039462
1699733108,9.7591269741,0.9320044027,-0.4761716974,0.8894197868163104,-0.038942658935123484,-0.1469130897866227,-48.40689856767027,-4.472376498099971,11.72171879567378
1699733108,9.7591269741,0.9320044027,-0.4761716974,0.8894197868163104,-0.038942658935123484,-0.1469130897866227,-48.801520023384974,-4.296989184448992,11.341712949429992
1699733108,10.0450692748,1.016949605,-0.33499516399999996,0.8701775318130729,-0.018020524526841452,-0.14966198335851374,-48.246126863490204,-4.048523823443437,11.034785150540777
1699733108,10.0450692748,1.016949605,-0.33499516399999996,0.8701775318130729,-0.018020524526841452,-0.14966198335851374,-48.801520023384974,-4.56007015492546,9.997076878105817
1699733108,10.2364950828,1.6689937635,-1.1940184774,0.9040805525330626,0.04520402762665313,-0.1673770752662562,-48.655363928675825,-4.092370651856182,10.128617363344052
1699733108,10.2364950828,1.6689937635,-1.1940184774,0.9040805525330626,0.04520402762665313,-0.1673770752662562,-48.71382636655949,-4.589301373867291,10.742472961122479
1699733109,9.6406822554,1.5493526335,-1.0779665813,0.6788239959475445,0.15134186276355832,-0.22143864884678055,-48.56767027185034,-5.188541362174803,9.821689564454838
1699733109,9.6406822554,1.5493526335,-1.0779665813,0.6788239959475445,0.15134186276355832,-0.22143864884678055,-48.96229172756504,-5.86085939783689,10.201695410698626
1699733109,10.04985492,1.3268201317000001,0.3361915753,0.5664247921191097,0.2351831167062359,-0.32925636338873027,-48.05612394036831,-5.817012569424145,8.637825197310727
1699733109,10.04985492,1.3268201317000001,0.3361915753,0.5664247921191097,0.2351831167062359,-0.32925636338873027,-48.699210757088565,-6.6501023092662965,9.207833966676409
1699733109,10.5834543598,1.5744772707999999,-0.0669990328,0.8045095187067862,0.3732386605389874,-0.49037206996345684,-48.479976615024846,-6.89856767027185,8.886290558316281
1699733109,10.5834543598,1.5744772707999999,-0.0669990328,0.8045095187067862,0.3732386605389874,-0.49037206996345684,-48.61151710026308,-7.01549254603917,8.433206664717918
1699733109,10.6791672638,1.0217352502000001,-1.4895320685,0.8816312550292856,0.4005748799483486,-0.5888740896228868,-49.37152879275066,-7.541654486992108,7.90704472376498
1699733109,10.6791672638,1.0217352502000001,-1.4895320685,0.8816312550292856,0.4005748799483486,-0.5888740896228868,-48.479976615024846,-7.7755042385267465,7.6585793627594265
