timestamp,acc-x,acc-y,acc-z,gyr-x,gyr-y,gyr-z,mag-x,mag-y,mag-z
1699732588,9.7040920543,0.32901310749999996,-0.9894321450999999,-0.06032294227205401,0.016646077740895916,-0.016493361431346415,-73.32651271558024,-33.659748611517095,-2.9961999415375624
1699732588,9.6969135865,0.5060819799,-1.1162517428999998,-0.026878070480712675,0.010842857978014772,-0.016493361431346415,-73.70651856182403,-34.1566793335282,-3.6685179771996492
1699732588,9.6969135865,0.5060819799,-1.1162517428999998,0.00717766654882668,0.0007635815477475192,-0.016951510359994926,-73.45805320081847,-33.542823735749785,-3.4054370067231803
1699732588,9.6981099978,0.5790630692000001,-0.9942177902999999,0.00717766654882668,0.0007635815477475192,-0.016951510359994926,-73.2826658871675,-34.50745396083016,-2.9085062847120726
1699732588,9.7052884656,0.6029912952,-0.7992027483999999,0.01679879405044542,-0.0033597588100890844,-0.014660765716752368,-73.53113124817305,-34.27360420929553,-3.43466822566501
1699732589,9.7052884656,0.6029912952,-0.7992027483999999,0.01679879405044542,-0.0033597588100890844,-0.014660765716752368,-73.85267465653318,-33.820520315697166,-3.010815551008477
1699732589,9.7770731436,0.6352944003,-0.705882667,-0.0024434609527920616,0.004123340357836604,-0.0016798794050445422,-73.73574978076586,-34.171294942999126,-3.1569716457176265
1699732589,9.7770731436,0.6352944003,-0.705882667,-0.0024434609527920616,0.004123340357836604,-0.0016798794050445422,-73.76498099970769,-33.1774334989769,-3.6685179771996492
1699732589,9.821340361699999,0.610169763,-0.7154539574000001,-0.045356743936202634,0.012064588454410803,0.012522737383059314,-72.91727565039461,-33.60128617363344,-2.9523531131248175
1699732589,9.821340361699999,0.610169763,-0.7154539574000001,-0.045356743936202634,0.012064588454410803,0.012522737383059314,-72.8880444314528,-33.68897983045893,-3.288512130955861
1699732589,9.7016992317,0.4881358104,-0.6831508522999999,-0.07070765132142026,0.024587325837470118,0.016646077740895916,-73.2972814966384,-33.48436129786612,-2.820812627886583
1699732589,9.7016992317,0.4881358104,-0.6831508522999999,-0.07070765132142026,0.024587325837470118,0.016646077740895916,-73.31189710610933,-33.27974276527331,-3.317743349897691
1699732589,9.6000042712,0.39720855159999996,-0.8566304908000001,-0.058490346557459966,0.03390302071998985,0.011453723216212788,-73.53113124817305,-33.791289096755335,-4.150833089739843
1699732589,9.6000042712,0.39720855159999996,-0.8566304908000001,-0.058490346557459966,0.03390302071998985,0.011453723216212788,-73.0926629640456,-33.52820812627886,-3.3469745688395203
1699732589,9.5724868113,0.34576286570000003,-0.9523433948,-0.03634648167278191,0.0316122760767473,0.003665191429188092,-73.41420637240573,-33.411283250511545,-3.814674071908799
1699732589,9.5724868113,0.34576286570000003,-0.9523433948,-0.03634648167278191,0.0316122760767473,0.003665191429188092,-72.74188833674364,-33.615901783104356,-3.5223618824905
1699732589,9.5904329808,0.4414757697,-0.8518448456000001,0.012675453692608817,0.02306016274197508,-0.008552113334772215,-73.54574685764396,-33.70359543992984,-3.3469745688395203
1699732589,9.5904329808,0.4414757697,-0.8518448456000001,0.012675453692608817,0.02306016274197508,-0.008552113334772215,-73.31189710610933,-33.615901783104356,-3.390821397252265
1699732589,9.6586284249,0.6568298037,-0.7046862557000001,0.049480084294039245,0.015729779883598895,-0.013286318930806833,-73.66267173341127,-33.80590470622625,-4.2823735749780765
1699732589,9.6586284249,0.6568298037,-0.7046862557000001,0.049480084294039245,0.015729779883598895,-0.013286318930806833,-73.01958491669103,-30.005846243788366,-3.610055539315989
1699732589,9.7172525786,0.7645068207,-0.6568298037,0.049174651674940235,0.009621127501618741,-0.009773843811168246,-73.20958783981291,-33.87898275358082,-4.019292604501608
1699732589,9.7172525786,0.7645068207,-0.6568298037,0.049174651674940235,0.012217304763960306,-0.017867808217291947,-73.04881613563285,-33.893598363051744,-3.6246711487869043
1699732589,9.5700939887,0.789631458,-0.7154539574000001,0.047189339650796684,0.012217304763960306,-0.017867808217291947,-73.01958491669103,-34.346682256650105,-3.5662087109032443
1699732589,9.5700939887,0.789631458,-0.7154539574000001,0.0015271630954950383,0.013744467859455345,-0.02275473012287607,-73.39959076293482,-33.67436422098802,-4.486992107570885
1699732589,9.5736832226,0.6975077879,-0.8506484343,0.0015271630954950383,0.013744467859455345,-0.02275473012287607,-73.32651271558024,-33.87898275358082,-4.370067231803566
1699732589,9.5736832226,0.6975077879,-0.7226324252,-0.015424347264499889,0.025350907385217634,-0.018936822384138473,-73.10727857351652,-34.02513884828998,-4.165448699210757
1699732589,9.6370930215,0.8769694829,-0.7226324252,-0.015424347264499889,0.025350907385217634,-0.018936822384138473,-72.87342882198188,-33.57205495469161,-3.55159310143233
1699732589,9.7734839097,1.1138589203,-0.8051848049,0.012522737383059314,0.050549098460885775,-0.04184426881656405,-72.36188249049985,-33.440514469453376,-4.180064308681672
1699732589,9.7734839097,1.1138589203,-0.8051848049,0.012522737383059314,0.050549098460885775,-0.04184426881656405,-73.194972230342,-33.77667348728442,-4.574685764396375
1699732589,9.8763752815,0.9583254512999999,-1.0480562988,-0.047036623341247176,0.06475171524898962,-0.07803803417979646,-73.63344051446946,-33.440514469453376,-4.896229172756504
1699732589,9.8763752815,0.9583254512999999,-1.0480562988,-0.047036623341247176,0.06475171524898962,-0.07803803417979646,-73.5895936860567,-33.820520315697166,-4.808535515931014
1699732589,9.8751788702,0.8673981925,-0.8315058535,-0.11423179954302887,0.07238753072646481,-0.09529497715889039,-73.10727857351652,-33.966676410406315,-4.516223326512716
1699732589,9.8751788702,0.8673981925,-0.8315058535,-0.11423179954302887,0.07238753072646481,-0.09529497715889039,-73.31189710610933,-33.63051739257527,-4.457760888629056
1699732589,9.894321451,0.5730810127,-0.490528633,-0.1742493091959839,0.06429356632034111,-0.08872817584826173,-73.00496930722011,-34.171294942999126,-4.4431452791581405
1699732589,9.894321451,0.5730810127,-0.490528633,-0.1742493091959839,0.06429356632034111,-0.08872817584826173,-73.5895936860567,-34.06898567670272,-4.67699503069278
1699732589,9.9936235889,-0.3038884702,-0.5228317381,-0.25564710218586945,0.08674286382411818,-0.037262779530078935,-73.12189418298743,-34.08360128617363,-5.217772581116632
1699732589,9.9936235889,-0.3038884702,-0.5228317381,-0.25564710218586945,0.08674286382411818,-0.037262779530078935,-73.194972230342,-33.820520315697166,-4.940076001169249
1699732589,10.0199446375,-0.49292145559999995,-0.4558327053,-0.27214046361721583,0.1357647991895089,0.07605272215565291,-72.6980415083309,-33.57205495469161,-5.597778427360421
1699732589,10.0199446375,-0.49292145559999995,-0.4558327053,-0.27214046361721583,0.1357647991895089,0.07605272215565291,-72.91727565039461,-33.45513007892429,-5.977784273604209
1699732589,10.030712339199999,0.08374879099999999,-0.24167508259999998,-0.16508633062301364,0.21563542908389943,0.19822576979525597,-72.91727565039461,-33.1774334989769,-6.913183279742766
1699732589,10.030712339199999,0.08374879099999999,-0.24167508259999998,-0.16508633062301364,0.21563542908389943,0.26145032194875056,-73.13650979245836,-33.39666764104064,-5.539315989476761
1699732589,9.8069834261,0.1890329854,0.13758729949999998,-0.14431691252428114,0.31994066850621056,0.26145032194875056,-73.15112540192926,-33.00204618532593,-6.065477930429699
1699732589,10.2807623009,-0.0502492746,0.31944181709999997,-0.2310597763483993,0.4343251843587889,0.3323106895797203,-72.58111663256358,-32.76819643379129,-7.117801812335574
1699732589,10.2807623009,-0.0502492746,0.31944181709999997,-0.2310597763483993,0.4343251843587889,0.3323106895797203,-73.1803566208711,-32.34434375913476,-6.942414498684594
1699732589,11.003394726099998,-0.35772697870000003,0.41276189849999995,-0.356134433869443,0.5059491335375061,0.40698896494942777,-72.74188833674364,-31.935106693949137,-7.877813504823152
1699732589,10.4554383507,-1.1437692028,0.43429730190000004,-0.6333145357017924,0.6838636341626781,0.515570261039125,-72.8880444314528,-30.80970476468869,-8.550131540485237
1699732589,10.4554383507,-1.1437692028,0.43429730190000004,-0.6333145357017924,0.6838636341626781,0.515570261039125,-72.72727272727273,-31.131248173048814,-9.090909090909092
1699732589,9.9170532657,-1.4775679554999999,0.3146561719,-0.7874052920372419,0.9300423251564783,0.6927211801165494,-72.34726688102894,-29.7427652733119,-10.464776381175096
1699732589,9.9170532657,-1.4775679554999999,0.3146561719,-0.6435465284416092,1.1430815769780363,0.8619308510973996,-72.04033908213972,-28.938906752411576,-14.425606547793043
1699732589,9.8010013696,-0.9511469834999999,0.8123632727,-0.6435465284416092,1.1430815769780363,0.8619308510973996,-71.77725811166326,-27.94504530838936,-13.504823151125404
1699732589,10.0929257268,0.47976093129999997,1.782652837,-0.47235154543661534,1.2359330931841346,0.9715811613539433,-71.96726103478514,-27.521192633732827,-13.577901198479978
1699732589,10.0929257268,0.47976093129999997,1.782652837,-0.47235154543661534,1.2359330931841346,0.9715811613539433,-71.67494884536684,-27.301958491669104,-14.3817597193803
1699732589,10.3525469789,1.9824535241,1.6486547714,-0.2745839245700079,1.2620475821170998,0.9129380984869339,-71.06109324758843,-26.834258988599824,-14.878690441391406
1699732589,10.3525469789,1.9824535241,1.6486547714,-0.2745839245700079,1.2620475821170998,0.9129380984869339,-71.64571762642503,-26.439637532885126,-15.521777258111664
1699732589,10.7186488367,2.0901305410999997,1.591227029,-0.3649919798233142,1.3217596591509557,0.7600690726278806,-71.54340836012861,-25.518854136217477,-16.13563285589009
1699732589,10.7186488367,2.0901305410999997,1.591227029,-0.3649919798233142,1.3217596591509557,0.7600690726278806,-71.01724641917568,-25.32885121309559,-17.772581116632562
1699732589,11.1050896866,2.0446669117,2.4777678023000003,-0.6178901884372926,1.3529137862990546,0.6505714786808863,-70.75416544869921,-24.70038000584624,-18.64951768488746
1699732589,11.1050896866,2.0446669117,2.4777678023000003,-0.6178901884372926,1.3529137862990546,0.6505714786808863,-70.09646302250803,-23.7795966091786,-18.73721134171295
1699732589,10.4817593993,1.7012968686,3.7088750299999997,-0.9219483607503546,1.3486377296316683,0.6606507551111536,-68.92721426483484,-23.311897106109324,-19.438760596316868
1699732589,10.4817593993,1.7012968686,3.7088750299999997,-0.9219483607503546,1.3486377296316683,0.6572909963010645,-69.2779888921368,-22.814966384098216,-19.716457176264253
1699732589,9.714859756,2.3030917525,3.4887353508000003,-1.2683089508086294,1.3038918509336637,0.6572909963010645,-68.91259865536394,-22.186495176848876,-20.06723180356621
1699732589,9.714859756,2.3030917525,3.4887353508000003,-1.4517212385775833,1.133307733166868,0.4864014459151697,-68.69336451330021,-21.5287927506577,-20.19877228880444
1699732589,9.3224368496,2.8522445392,1.7623138449,-1.4517212385775833,1.133307733166868,0.4864014459151697,-68.67874890382929,-20.95878398129202,-20.92955276235019
1699732589,9.290133744499999,0.6532405698,0.9032905315,-1.6849190432596757,0.7881688735849892,0.19303341527057286,-68.41566793335282,-20.827243496053786,-20.739549839228296
1699732589,9.290133744499999,0.6532405698,0.9032905315,-1.6849190432596757,0.7881688735849892,0.19303341527057286,-68.21104940076002,-20.34492838351359,-21.70418006430868
1699732589,9.236295236,-1.3734801723999999,1.0899306943,-1.7629570774394723,0.5618433028326245,-0.06551529679673715,-68.2987430575855,-19.847997661502482,-21.090324466530255
1699732589,9.236295236,-1.3734801723999999,1.0899306943,-1.7629570774394723,0.5618433028326245,-0.06551529679673715,-68.12335574393452,-19.847997661502482,-21.324174218064893
1699732589,8.8235333375,-2.3042881638,1.3028919057000001,-1.3232868222464507,0.5183191546110161,-0.20967949301146876,-67.59719380298158,-20.24261911721719,-21.7187956737796
1699732589,8.8235333375,-2.3042881638,1.3028919057000001,-1.3232868222464507,0.5183191546110161,-0.20967949301146876,-67.36334405144694,-20.228003507746273,-21.19263373282666
1699732589,8.5639120854,-2.7948167968,1.8281164664,-0.9379835732530526,0.4987714669886795,-0.36758815708565573,-67.87489038292897,-20.023384975153462,-21.54340836012862
1699732589,8.5639120854,-2.7948167968,1.8281164664,-0.9379835732530526,0.4987714669886795,-0.36758815708565573,-67.53873136509793,-19.687225957322422,-22.011107863197896
1699732589,8.1678999451,-3.2590243811999997,2.0566310246999997,-0.8246680715673207,0.4059199507825812,-0.3656028450615122,-67.8164279450453,-19.146448406898568,-21.777258111663254
1699732589,8.1678999451,-3.2590243811999997,2.0566310246999997,-0.8246680715673207,0.4059199507825812,-0.3656028450615122,-67.40719087985968,-19.39491376790412,-22.668810289389068
1699732589,7.6941210703,-3.1669007111,1.8269200550999998,-0.7229590094073511,0.2157881453934489,-0.26893342111667623,-67.9041216018708,-19.39491376790412,-21.923414206372406
1699732589,7.6941210703,-3.1669007111,1.8269200550999998,-0.7229590094073511,0.2157881453934489,-0.26893342111667623,-67.26103478515054,-19.321835720549547,-21.835720549546917
1699732589,7.831708369799999,-2.4945175605000003,1.6893327556000002,-0.6519459254668318,0.019700403931885994,-0.2189951878939885,-67.30488161356328,-19.1756796258404,-21.397252265419468
1699732589,7.831708369799999,-2.4945175605000003,1.6893327556000002,-0.6519459254668318,0.019700403931885994,-0.2189951878939885,-67.91873721134172,-18.82490499853844,-22.4057293189126
1699732589,8.0075808309,-2.0518453795,1.8999011444,-0.5442809272344317,-0.14263703311923656,-0.20158552860534507,-67.87489038292897,-19.292604501607716,-21.616486407483194
1699732589,8.0075808309,-2.0518453795,1.8999011444,-0.5442809272344317,-0.14263703311923656,-0.20158552860534507,-67.8164279450453,-19.59953230049693,-21.601870798012275
1699732589,8.0386875247,-1.6677973521999998,2.2683958248,-0.31093040624278984,-0.1954768762233649,-0.21044307455921626,-68.28412744811459,-19.964922537269807,-21.835720549546917
1699732589,8.0386875247,-1.6677973521999998,2.2683958248,0.016951510359994926,-0.15271630954950383,-0.24877486825614176,-68.1964337912891,-20.03800058462438,-21.207249342297573
1699732589,7.858029418399999,-1.07677017,2.6715864329,0.016951510359994926,-0.15271630954950383,-0.24877486825614176,-67.9041216018708,-20.286465945629935,-21.923414206372406
1699732589,7.858029418399999,-1.07677017,2.6715864329,0.3663664266092597,-0.09071348787240527,-0.31169398779053736,-68.18181818181817,-20.388775211926337,-22.128032738965214
1699732589,7.9310105077,-0.1363908882,3.0675985732,0.3663664266092597,-0.09071348787240527,-0.31169398779053736,-68.2987430575855,-20.505700087693658,-21.864951768488748
1699732589,8.280362607299999,0.35892339,3.4504501892,0.49968776484597655,-0.07513642429835589,-0.5016730768701201,-68.70798012277112,-21.19263373282666,-21.36802104647764
1699732589,8.280362607299999,0.35892339,3.4504501892,0.49968776484597655,-0.07513642429835589,-0.5016730768701201,-68.26951183864367,-21.35340543700672,-21.309558608593978
1699732589,9.0723868879,0.5647061336,4.0295132584,0.3420845333908886,-0.17776178431562248,-0.6986771161889801,-68.28412744811459,-22.215726395790707,-20.505700087693658
1699732589,9.0723868879,0.5647061336,4.0295132584,0.3420845333908886,-0.17776178431562248,-0.6986771161889801,-68.0064308681672,-22.551885413621747,-20.8418591055247
1699732589,9.3236332609,0.35174492220000003,4.5367916496,-0.02626720524251466,-0.24923301718479024,-0.7657195760812122,-68.38643671441099,-22.25957322420345,-21.324174218064893
1699732589,9.3236332609,0.35174492220000003,4.5367916496,-0.02626720524251466,-0.24923301718479024,-0.7657195760812122,-68.75182695118387,-22.829581993569132,-21.090324466530255
1699732589,8.9383888223,0.42233318890000004,4.0163527341,-0.38942658935123475,-0.278859981237394,-0.7501425125071628,-68.76644256065478,-23.121894182987432,-21.455714703303126
1699732589,8.9383888223,0.42233318890000004,4.0163527341,-0.38942658935123475,-0.278859981237394,-0.7501425125071628,-69.26337328266588,-23.560362467114878,-20.578778135048232
1699732589,8.8378902731,0.6041877065,3.3343982931,-0.7502952288167124,-0.30772336374225023,-0.7043276196423116,-69.29260450160771,-23.560362467114878,-19.97953814674072
1699732589,8.8378902731,0.6041877065,3.3343982931,-0.7502952288167124,-0.30772336374225023,-0.7043276196423116,-69.23414206372406,-23.516515638702135,-19.39491376790412
1699732589,9.1130648721,0.2237289131,3.2219356309,-0.9576839771849386,-0.356134433869443,-0.6007859617677481,-69.81876644256066,-23.691902952353114,-19.687225957322422
1699732589,9.1130648721,0.2237289131,3.2219356309,-0.9576839771849386,-0.356134433869443,-0.6007859617677481,-69.55568547208418,-23.282665887167493,-18.79567377959661
1699732589,9.0364945489,-0.4941178669,3.4683963587,-1.2432634760425108,-0.3460551574391757,-0.4360050637638334,-69.6579947383806,-23.458053200818473,-19.292604501607716
1699732589,9.0364945489,-0.4941178669,3.4683963587,-1.2432634760425108,-0.3460551574391757,-0.4360050637638334,-69.95030692779889,-22.844197603040048,-19.044139140602162
1699732589,8.7062850301,-1.0109675485,3.7615171272,-1.5670220522874587,-0.3680463060143042,-0.3793473129209675,-70.7395498392283,-22.727272727272727,-18.91259865536393
1699732589,8.7062850301,-1.0109675485,3.7615171272,-1.5670220522874587,-0.3500257814874628,-0.40072759625789806,-70.76878105817013,-22.4057293189126,-17.9041216018708
1699732590,9.3607220112,-0.7597211755,2.8642086522,-1.5248723508517958,-0.3500257814874628,-0.40072759625789806,-70.79801227711195,-22.537269804150835,-18.021046477638116
1699732590,9.3607220112,-0.7597211755,2.8642086522,-1.4492777776247914,-0.44929138269464025,-0.4415028509076156,-70.85647471499561,-22.581116632563578,-17.173341128325053
1699732590,10.7545411757,-0.5623133109999999,1.7371892076000002,-1.4492777776247914,-0.44929138269464025,-0.4415028509076156,-70.90032154340837,-22.727272727272727,-17.37795966091786
1699732590,10.7545411757,-0.5623133109999999,1.7371892076000002,-1.3854423602330987,-0.6575964289201636,-0.4147774967364524,-71.20724934229757,-22.78573516515639,-16.822566501023093
1699732590,11.7583302564,-1.2885349701,1.9561324755,-1.3854423602330987,-0.6575964289201636,-0.4147774967364524,-70.72493422975738,-22.654194679918152,-16.384098216895644
1699732590,10.832307910199999,-2.3605194949,2.4945175605000003,-1.1091785562580465,-0.6743952229706089,-0.29825495255018103,-71.00263080970477,-22.31803566208711,-15.931014323297282
1699732590,10.832307910199999,-2.3605194949,2.4945175605000003,-1.1091785562580465,-0.6743952229706089,-0.29825495255018103,-71.38263665594855,-22.43496053785443,-15.287927506577024
1699732590,10.4494562942,-2.452643165,2.6991038927999997,-0.6582072941583615,-0.6725626272560148,0.012828170002158322,-71.41186787489038,-21.981876644256065,-14.396375328851214
1699732590,10.4494562942,-2.452643165,2.6991038927999997,-0.6582072941583615,-0.6725626272560148,0.012828170002158322,-72.2157263957907,-21.73341128325051,-15.171002630809705
1699732590,10.7748801678,-2.7361926431000003,2.1068802992999998,-0.7357871794095094,-0.6666066911835843,0.43203443971554634,-71.5287927506577,-20.75416544869921,-14.586378251973105
1699732590,10.7748801678,-2.7361926431000003,2.1068802992999998,-0.7357871794095094,-0.6666066911835843,0.43203443971554634,-71.58725518854136,-20.111078631978955,-14.717918737211342
1699732590,11.5716900936,-1.6917255782,2.3748764305,-1.1299479743567789,-0.5751296217634314,0.816574107161197,-71.89418298743058,-19.511838643671442,-13.227126571178019
1699732590,11.5716900936,-1.6917255782,2.3748764305,-1.1299479743567789,-0.5751296217634314,0.816574107161197,-71.87956737795966,-18.91259865536393,-13.095586085939784
1699732590,9.4803631412,2.667997199,2.3473589706,-1.0312932383877993,-0.5818491393836096,0.4873177437724667,-71.96726103478514,-18.517977199649224,-12.949429991230636
1699732590,9.4803631412,2.667997199,2.3473589706,-1.0312932383877993,-0.5818491393836096,0.4873177437724667,-72.91727565039461,-18.26951183864367,-12.452499269219526
1699732590,6.8255264665,5.844469200500001,0.9272187574999999,-0.9613491686141266,-0.5363396791378575,0.05467243881872237,-72.72727272727273,-18.371821104940075,-10.947091493715288
1699732590,6.8255264665,5.844469200500001,0.9272187574999999,-0.9613491686141266,-0.5363396791378575,0.05467243881872237,-72.68342589886,-18.64951768488746,-10.71324174218065
1699732590,7.8257263133,4.9304109673,-1.3459627125,-1.1673634701964075,-0.5861251960509958,-0.25686883266226546,-72.4057293189126,-18.766442560654777,-10.318620286465945
1699732590,7.8257263133,4.9304109673,-1.3459627125,-1.1673634701964075,-0.5861251960509958,-0.25686883266226546,-72.77111955568547,-19.131832797427652,-9.967845659163988
1699732590,9.8165547165,2.5734807063,-2.3653051401,-1.1808025054367637,-0.6829473363053812,-0.573755174977486,-72.91727565039461,-19.248757673194973,-9.26629640456007
1699732590,9.8165547165,2.5734807063,-2.3653051401,-1.1808025054367637,-0.6829473363053812,-0.573755174977486,-73.12189418298743,-19.716457176264253,-8.447822274188834
1699732590,11.0081803713,0.0753739119,-2.3162522768000002,-1.1679743354346053,-0.8897252194354093,-0.6798930101143911,-73.60420929552762,-19.336451330020463,-7.600116924875768
1699732590,11.0081803713,0.0753739119,-2.3162522768000002,-1.1679743354346053,-0.8897252194354093,-0.6798930101143911,-73.75036539023677,-20.06723180356621,-5.963168664133294
1699732590,10.7007026672,-3.1573294206999996,-2.0985054202,-1.713171560526334,-1.108414974710299,-0.578031231644872,-73.61882490499853,-19.672610347851503,-5.74393452206957
1699732590,10.7007026672,-3.1573294206999996,-2.0985054202,-1.713171560526334,-1.108414974710299,-0.578031231644872,-73.99883075124232,-19.190295235311314,-4.7939199064601
1699732590,10.0749795573,-4.7066820542,-1.2143574695,-1.9288069896102336,-1.0453431388663537,-0.24159720170731505,-73.1803566208711,-18.64951768488746,-5.217772581116632
1699732590,10.1970135099,-3.4277183745,-0.6388836341999999,-1.7143932910027302,-0.8707883970512709,0.14645494085797417,-73.61882490499853,-18.897983045893014,-4.340836012861737
1699732590,10.1970135099,-3.4277183745,-0.6388836341999999,-1.7143932910027302,-0.8707883970512709,0.14645494085797417,-73.9695995323005,-18.401052323881906,-3.4054370067231803
1699732590,10.1072826624,-0.5826523031,-0.41754754369999997,-1.1443033074544322,-0.7510588103644599,0.2715295983790178,-73.83805904706226,-18.079508915521778,-2.4408067816427943
1699732590,10.1072826624,-0.5826523031,-0.41754754369999997,-1.1443033074544322,-0.7510588103644599,0.2715295983790178,-74.17421806489331,-17.845659163987136,-2.1631102016954107
1699732590,9.4588277378,2.261217357,-0.41754754369999997,-0.5798638273594661,-0.6867652440441188,0.24633140730334968,-73.83805904706226,-18.167202572347264,-2.0315697164571764
1699732590,9.4588277378,2.261217357,-0.41754754369999997,-0.5798638273594661,-0.6867652440441188,0.24633140730334968,-74.20344928383513,-17.567962584039755,-1.4469453376205788
1699732590,9.4468636248,2.3976082452,-0.6412764568,-0.8868236095539688,-0.6629414997543962,0.14981469966806327,-74.23268050277697,-17.246419175679627,-1.2423268050277696
1699732590,9.4468636248,2.3976082452,-0.6412764568,-0.8868236095539688,-0.6629414997543962,0.14981469966806327,-74.18883367436422,-17.304881613563285,0.482315112540193
1699732590,9.7256274577,1.2538390423999999,-0.4761716974,-1.4868459897739692,-0.6273585996293618,-0.03390302071998985,-74.11575562700965,-17.0271850336159,0.3215434083601286
1699732590,9.7256274577,1.2538390423999999,-0.4761716974,-1.4868459897739692,-0.6273585996293618,-0.03390302071998985,-74.0719087985969,-17.11487869044139,0.5700087693656825
1699732590,9.911071209200001,0.2907279459,-0.5276173833,-1.7976236797072096,-0.5739078912870355,-0.1915062521750778,-74.5542239111371,-17.20257234726688,0.7453960830166617
1699732590,9.911071209200001,0.2907279459,-0.5276173833,-1.7976236797072096,-0.5739078912870355,-0.1915062521750778,-74.37883659748611,-17.75796550716165,2.265419467991815
1699732590,9.839286531199999,-0.9834500885999999,-1.3304093655999998,-1.9126190607979858,-0.5093088923475952,-0.2515237618280328,-74.42268342589887,-17.714118678748903,2.28003507746273
1699732590,9.839286531199999,-0.9834500885999999,-1.3304093655999998,-1.9126190607979858,-0.5093088923475952,-0.2515237618280328,-74.42268342589887,-17.72873428821982,2.6015784858228588
1699732590,9.4839523751,-2.0111673952999998,-1.8699908619,-1.7333301133868686,-0.4937318287735459,-0.22342396087092412,-74.20344928383513,-18.10874013446361,2.8061970184156677
1699732590,9.4839523751,-2.0111673952999998,-1.8699908619,-1.7333301133868686,-0.4937318287735459,-0.22342396087092412,-74.33498976907337,-18.313358667056416,3.8292896813797133
1699732590,9.4181497536,-2.3365912689,-1.7599210223,-1.43431157928894,-0.5285511473508328,-0.14981469966806327,-74.21806489330605,-18.357205495469163,4.063139432914353
1699732590,9.4181497536,-2.3365912689,-1.7599210223,-1.43431157928894,-0.5285511473508328,-0.14981469966806327,-73.85267465653318,-18.24028061970184,4.983922829581994
1699732590,9.7567341515,-2.1726829208,-1.0600204118,-1.2455542206857533,-0.5726861608106394,-0.05497787143782138,-74.0719087985969,-17.81642794504531,5.159310143232973
1699732590,9.7567341515,-2.1726829208,-1.0600204118,-1.2455542206857533,-0.5726861608106394,-0.05497787143782138,-74.34960537854428,-18.137971353405437,5.524700380005846
1699732590,9.906285564,-1.07677017,-0.5407779076,-1.1012373081614721,-0.5436700619962336,0.0517708289372818,-74.18883367436422,-17.831043554516224,5.539315989476761
1699732590,9.906285564,-1.07677017,-0.5407779076,-1.1012373081614721,-0.5436700619962336,0.07254024703601432,-74.52499269219527,-17.845659163987136,6.138555977784273
1699732590,9.81057266,-0.0741775006,-0.5946164161,-1.0195340825524877,-0.44638977281319975,0.07254024703601432,-73.66267173341127,-17.392575270388775,6.4162525577316565
1699732590,9.81057266,-0.0741775006,-0.5946164161,-1.0685560179178784,-0.3920227666135763,0.059406644414756994,-73.99883075124232,-17.874890382928967,6.6501023092662965
1699732590,9.7471628611,0.7094719009,-0.4043870194,-1.0685560179178784,-0.3920227666135763,0.059406644414756994,-74.0719087985969,-17.93335282081263,7.293189125986553
1699732590,9.7471628611,0.7094719009,-0.4043870194,-1.2634220289030453,-0.31154127148098787,0.04337143191205909,-73.99883075124232,-17.977199649225373,6.840105232388191
1699732590,9.5569334644,1.1557333158,-0.5778666579,-1.2634220289030453,-0.31154127148098787,0.04337143191205909,-74.34960537854428,-18.26951183864367,7.424729611224788
1699732590,9.4301138666,0.5096712138,-0.514456859,-1.5050192306103602,-0.2866485130244187,-0.06337726846304409,-74.5542239111371,-17.3194972230342,8.213972522654196
1699732590,9.4301138666,0.5096712138,-0.514456859,-1.5050192306103602,-0.2866485130244187,-0.06337726846304409,-74.24729611224788,-17.9041216018708,7.790119847997662
1699732590,9.3738825355,-0.6819544409999999,-0.9343972253,-1.6245961009876217,-0.3046690375512602,-0.2154827127743499,-73.85267465653318,-17.977199649225373,8.360128617363344
1699732590,9.3738825355,-0.6819544409999999,-0.9343972253,-1.6245961009876217,-0.3046690375512602,-0.2154827127743499,-74.45191464484068,-18.24028061970184,8.97398421514177
1699732590,9.8368937086,-1.8077774743,-0.9822536772999999,-1.5990924772928548,-0.38683041208889324,-0.30436360493216114,-74.24729611224788,-18.576439637532886,9.41245249926922
1699732590,9.8368937086,-1.8077774743,-0.9822536772999999,-1.5990924772928548,-0.38683041208889324,-0.30436360493216114,-74.21806489330605,-18.693364513300203,9.178602747734582
1699732590,9.5688975774,-1.9190437251999999,-0.7357929495000001,-1.3510811905844604,-0.3921754829231258,-0.2796235627851415,-73.70651856182403,-18.67874890382929,9.938614440222157
1699732590,9.5688975774,-1.9190437251999999,-0.7357929495000001,-1.3510811905844604,-0.3921754829231258,-0.2796235627851415,-74.10114001753874,-18.956445483776672,10.216311020169542
1699732590,9.4528456813,-1.1832507757,-1.3615160593999998,-1.0624473655358981,-0.21197023765471132,-0.19318613158012235,-74.5542239111371,-18.79567377959661,10.59631686641333
1699732590,9.4528456813,-1.1832507757,-1.3615160593999998,-1.0624473655358981,-0.21197023765471132,-0.19318613158012235,-74.17421806489331,-19.409529377375037,11.590178310435546
1699732590,9.999605645399999,-0.3984049629,-1.615155255,-1.0906998828025565,-0.0916297857297023,-0.08429940287132612,-74.18883367436422,-19.321835720549547,10.947091493715288
1699732590,9.999605645399999,-0.3984049629,-1.615155255,-1.0906998828025565,-0.0916297857297023,-0.08429940287132612,-73.45805320081847,-19.014907921660335,10.947091493715288
1699732590,9.6598248362,-0.2931207685,-1.6737794087,-1.3865113743999453,-0.019242255003237483,-0.030848694528999777,-74.39345220695704,-19.204910844782226,11.107863197895353
1699732590,9.6598248362,-0.2931207685,-1.6737794087,-1.3865113743999453,-0.019242255003237483,-0.030848694528999777,-74.01344636071325,-19.789535223618827,10.698626132709734
1699732590,9.4169533423,-0.8997012976000001,-2.5794627628,-1.6229162215825772,0.08964447370555875,-0.08918632477691024,-74.4665302543116,-20.1549254603917,10.786319789535224
1699732590,9.4169533423,-0.8997012976000001,-2.5794627628,-1.6229162215825772,0.08964447370555875,-0.08918632477691024,-74.34960537854428,-20.505700087693658,11.254019292604502
1699732590,9.7423772159,-1.4823536007,-2.7768706272999997,-1.6959146175472402,0.12125674978230604,-0.19272798265147384,-74.77345805320081,-20.286465945629935,11.093247588424438
1699732590,9.7423772159,-1.4823536007,-2.7768706272999997,-1.6959146175472402,0.11301006906663283,-0.2420553506359636,-74.91961414790997,-20.213387898275357,10.830166617947969
1699732590,9.7914300792,-1.4931213024,-2.0877377184999997,-1.5943582716968199,0.11301006906663283,-0.2420553506359636,-74.7588424437299,-20.403390821397252,10.260157848582285
1699732590,9.7914300792,-1.4931213024,-2.0877377184999997,-1.4445435720287567,0.10537425358915764,-0.09590584239708841,-74.15960245542239,-20.608009353990063,14.367144109909383
1699732590,10.996216258299999,-0.31345976059999997,-1.0348957745,-1.4445435720287567,0.10537425358915764,-0.09590584239708841,-78.52966968722596,-20.8418591055247,11.195556854720841
1699732590,10.996216258299999,-0.31345976059999997,-1.0348957745,-1.3494013111794159,0.014660765716752368,0.1269072532356377,-74.70038000584624,-20.447237649809995,11.999415375621163
1699732590,13.1688991791,1.531406464,0.3050848815,-1.3494013111794159,0.014660765716752368,0.1269072532356377,-74.53960830166618,-20.578778135048232,11.356328558900906
1699732590,13.1688991791,2.4873390927,0.47377887479999997,-1.4524848201253309,0.2461786909938002,0.259465009924607,-74.7588424437299,-20.18415667933353,10.18707980122771
1699732590,12.9523487338,2.4873390927,0.47377887479999997,-1.4524848201253309,0.2461786909938002,0.259465009924607,-75.29961999415376,-19.80415083308974,9.821689564454838
1699732590,11.486744891299999,1.2586246876,-0.5718846014,-1.6762142136153542,0.7020368749990692,0.32925636338873027,-74.58345513007892,-19.80415083308974,9.909383221280327
1699732590,11.486744891299999,1.2586246876,-0.5718846014,-1.6762142136153542,0.7020368749990692,0.32925636338873027,-74.8611517100263,-19.380298158433206,8.535515931014324
1699732590,11.341979124,-0.3625126239,-0.945164927,-1.91445165651258,0.9932668773099729,0.4657847441259867,-74.58345513007892,-19.248757673194973,8.184741303712364
1699732590,11.341979124,-0.3625126239,-0.945164927,-1.91445165651258,0.9932668773099729,0.4657847441259867,-74.4665302543116,-18.82490499853844,7.702426191172172
1699732590,11.144571259500001,-1.2478569859,-0.1100698396,-2.388024932425591,1.228755426635308,0.7945829585860684,-73.88190587547501,-18.09412452499269,7.16164864074832
1699732590,11.144571259500001,-1.2478569859,-0.1100698396,-2.388024932425591,1.228755426635308,0.7945829585860684,-74.2619117217188,-17.421806489330606,6.226249634609763
1699732590,10.3441720998,-0.143569356,0.777667345,-2.658180084018664,1.5042556490626129,1.2428053271138622,-74.39345220695704,-16.822566501023093,5.612394036831335
1699732590,10.3441720998,-0.143569356,0.777667345,-2.658180084018664,1.5042556490626129,1.2428053271138622,-73.5895936860567,-15.901783104355452,4.983922829581994
1699732590,10.7114703689,2.1367905818,1.3639088819999998,-2.6537513110417286,1.6136005267000575,1.5271630954950384,-73.76498099970769,-14.83484361297866,4.823151125401929
1699732590,10.7114703689,2.1367905818,1.3639088819999998,-2.6537513110417286,1.6136005267000575,1.5271630954950384,-73.61882490499853,-13.76790412160187,4.691610640163694
1699732590,11.3204437206,4.7653062079,2.2803599377999997,-2.4720189026778185,1.392161877853277,1.4755449828673062,-73.16574101140017,-13.183279742765272,4.501607717041801
1699732590,11.3204437206,4.7653062079,2.2803599377999997,-2.4720189026778185,1.392161877853277,1.4755449828673062,-72.97573808827829,-12.920198772288805,3.259280912014031
1699732590,10.6564354491,6.9499532417,2.4251257050999997,-2.059684866894158,1.2012664909163973,1.0870346913733684,-72.68342589886,-12.145571470330314,2.572347266881029
1699732590,8.7062850301,7.3005017526,1.3148560187,-1.7263051631475912,1.1577423426947886,0.6331618193922429,-72.62496346097632,-11.473253434668226,3.1131248173048816
1699732590,8.7062850301,7.3005017526,1.3148560187,-1.7263051631475912,1.1577423426947886,0.6331618193922429,-72.14264834843614,-11.619409529377375,3.0254311604793918
1699732590,8.5351982142,4.5882373355,0.5036891573,-2.075567363087307,1.0047206005261857,0.3846923837552002,-71.68956445483776,-11.005553931598948,2.747734580532008
1699732590,8.5351982142,4.5882373355,0.5036891573,-2.075567363087307,1.0047206005261857,0.3846923837552002,-72.23034200526162,-11.31248173048816,3.1423560362467113
1699732590,9.4265246327,0.7357929495000001,0.0287138712,-2.704605842121713,0.8002334620394002,0.219147904203538,-71.48494592224496,-10.844782227418884,2.4700380005846245
1699732590,9.4265246327,0.7357929495000001,0.0287138712,-2.704605842121713,0.8002334620394002,0.219147904203538,-72.25957322420345,-10.581701256942415,2.981584332066647
1699732591,9.589236569499999,-1.5278172301,0.4642075844,-2.8371635988106823,0.6601926061825051,0.31841350541071545,-72.23034200526162,-10.50862320958784,2.484653610055539
1699732591,9.589236569499999,-1.5278172301,0.4642075844,-2.8371635988106823,0.6601926061825051,0.31841350541071545,-72.49342297573808,-10.172464191756795,2.2215726395790703
1699732591,9.0245304359,-1.9752750562999999,1.0313065406,-2.5830436597203077,0.6574437126106141,0.3668245755379082,-71.28032738965216,-9.865536392867583,2.7331189710610935
1699732591,9.0245304359,-1.9752750562999999,1.0313065406,-2.5830436597203077,0.6574437126106141,0.3668245755379082,-71.07570885705934,-9.719380298158434,2.3677287342882196
1699732591,8.793623055,-1.1401799688999998,1.1868400096,-2.182010630843311,0.6311765073680994,0.4095851422117693,-71.17801812335574,-8.97398421514177,3.1131248173048816
1699732591,8.793623055,-1.1401799688999998,1.1868400096,-2.182010630843311,0.6311765073680994,0.4095851422117693,-70.59339374451915,-9.207833966676409,3.536977491961415
1699732591,8.3796647452,-1.0432706536,1.1509476706000001,-2.016313434982099,0.5128213674672338,0.4532620067429274,-70.41800643086816,-8.798596901490791,4.165448699210757
1699732591,8.3796647452,-1.0432706536,1.1509476706000001,-2.016313434982099,0.5128213674672338,0.4532620067429274,-70.62262496346098,-8.506284712072494,3.259280912014031
1699732591,8.2085779293,-1.8113667082,1.2095718243,-1.7760906800607297,0.39706240482870997,0.5372559769951545,-70.08184741303712,-8.257819351066939,3.3469745688395203
1699732591,8.2085779293,-1.8113667082,1.2095718243,-1.7760906800607297,0.39706240482870997,0.5372559769951545,-70.22800350774628,-8.009353990061385,2.7769657994738384
1699732591,8.4335032537,-1.9226329591,1.4285150922,-1.2279918450875604,0.42943826245320477,0.5048801193706597,-70.08184741303712,-7.293189125986553,3.040046769950307
1699732591,8.4335032537,-1.9226329591,1.4285150922,-1.2279918450875604,0.42943826245320477,0.5048801193706597,-69.81876644256066,-7.673194972230342,3.010815551008477
1699732591,8.872586200799999,-2.4897319153,1.387837108,-0.7750352709637319,0.4135557662600564,0.438906673645274,-70.09646302250803,-7.307804735457468,3.1423560362467113
1699732591,8.872586200799999,-2.4897319153,1.387837108,-0.7750352709637319,0.4135557662600564,0.38377608589790313,-69.74568839520609,-7.234726688102894,3.390821397252265
1699732591,8.5998044244,-3.1178478478000002,1.1880364209,-0.4618141200776996,0.34437527803413115,0.38377608589790313,-69.40952937737504,-7.176264250219234,2.3677287342882196
1699732591,8.5998044244,-3.1178478478000002,1.1880364209,-0.2109012234878648,0.258854144686409,0.28451048469072565,-69.4679918152587,-6.723180356620871,2.557731657410114
1699732591,7.7312098206,-2.7900311516,1.1461620254,-0.2109012234878648,0.258854144686409,0.28451048469072565,-69.62876351943876,-7.527038877521193,1.8415667933352822
1699732591,7.7312098206,-2.7900311516,1.1461620254,-0.02153299964648004,0.18142697574481054,0.10445795573186063,-69.02952353113125,-7.07395498392283,2.5138848289973694
1699732591,6.9056860235999995,-1.6378870697,1.5278172301,-0.02153299964648004,0.18142697574481054,0.10445795573186063,-69.23414206372406,-7.19087985969015,1.4323297281496639
1699732591,6.9056860235999995,-1.6378870697,2.0829520733,0.14294246573833558,0.06673702727313317,-0.15210544431130582,-69.40952937737504,-7.3370359543992985,2.4554223911137094
1699732591,6.3876399307,-0.7345965382,2.0829520733,0.14294246573833558,0.06673702727313317,-0.15210544431130582,-69.51183864367144,-7.4978076585793625,1.7392575270388775
1699732591,6.2560346877,-0.0299102825,2.6727828442,0.2678644069498297,-0.11774427466266746,-0.4248567731667197,-70.00876936568254,-7.746273019584916,1.900029231218942
1699732591,6.2560346877,-0.0299102825,2.6727828442,0.2678644069498297,-0.11774427466266746,-0.4248567731667197,-69.80415083308974,-8.213972522654196,1.0523238819058756
1699732591,6.7740807806,-0.2225325018,2.9180471607,0.18417586931670163,-0.36835173863340326,-0.718072087501767,-69.3802981584332,-8.184741303712364,2.6746565331774335
1699732591,6.7740807806,-0.2225325018,2.9180471607,0.18417586931670163,-0.36835173863340326,-0.718072087501767,-70.18415667933353,-8.827828120432622,2.046185325928091
1699732591,7.5864440533,-0.7956135145,3.1238299043,0.1195768703772615,-0.5302310267558773,-0.9428704951586367,-69.73107278573517,-9.26629640456007,2.7331189710610935
1699732591,7.5864440533,-0.7956135145,3.1238299043,0.1195768703772615,-0.5302310267558773,-0.9428704951586367,-70.72493422975738,-9.894767611809414,1.9438760596316866
1699732591,8.4957166413,-0.9978070242,3.23031051,0.028557949885757217,-0.5338962181850654,-1.039998068032121,-70.57877813504824,-10.742472961122479,2.9961999415375624
1699732591,8.4957166413,-0.9978070242,3.23031051,0.028557949885757217,-0.5338962181850654,-1.039998068032121,-71.20724934229757,-11.005553931598948,2.6015784858228588
1699732591,10.4530455281,-1.6725829974,4.4673997942,-0.159435827169682,-0.4689917866265263,-0.9973902176678096,-70.91493715287928,-11.137094416837181,2.4261911721718796
1699732591,10.4530455281,-1.6725829974,4.4673997942,-0.159435827169682,-0.4689917866265263,-0.9973902176678096,-70.90032154340837,-11.72171879567378,3.814674071908799
1699732591,11.8983103785,-2.5938196984,5.4233324229,-0.29688050576423547,-0.4335616028110414,-0.8139779298988555,-71.66033323589593,-11.8386436714411,3.288512130955861
1699732591,11.8983103785,-2.5938196984,5.4233324229,-0.29688050576423547,-0.4335616028110414,-0.8139779298988555,-71.36802104647764,-11.940952937737503,4.063139432914353
1699732591,11.5154587625,-4.3322053173,5.132604477,-0.5251913885407437,-0.43188172340599684,-0.44409902816995717,-71.16340251388483,-11.824028061970184,4.121601870798012
1699732591,11.5154587625,-4.3322053173,5.132604477,-0.5251913885407437,-0.43188172340599684,-0.44409902816995717,-70.76878105817013,-11.736334405144696,4.296989184448992
1699732591,10.3788680275,-5.3336015753999995,4.0761732991,-0.6047565858160352,-0.3333797037465669,-0.17409659288643436,-70.53493130663549,-11.970184156679334,4.61853259280912
1699732591,10.3788680275,-5.3336015753999995,4.0761732991,-0.6047565858160352,-0.3333797037465669,-0.17409659288643436,-70.95878398129202,-12.160187079801227,3.610055539315989
1699732591,9.906285564,-4.8562334667,4.140779509300001,-0.3620903699418736,-0.20005836550985004,-0.1432478983574346,-70.11107863197896,-11.794796843028355,3.317743349897691
1699732591,9.906285564,-4.8562334667,4.140779509300001,-0.3620903699418736,-0.004428772976935611,-0.21991148575128552,-70.7395498392283,-12.160187079801227,3.8292896813797133
1699732591,9.7124669334,-2.6321048599999997,3.2195428083000004,-0.04642575810304917,-0.004428772976935611,-0.21991148575128552,-70.7395498392283,-12.525577316574102,5.071616486407484
1699732591,9.7124669334,-2.6321048599999997,3.2195428083000004,-0.16019940871742955,-0.218842471584439,-0.2784018323087455,-70.47646886875182,-12.467114878690442,4.779304296989184
1699732591,10.0953185494,0.46540399569999996,0.9619146851999999,-0.16019940871742955,-0.218842471584439,-0.2784018323087455,-70.28646594562993,-12.467114878690442,5.378544285296697
1699732591,10.0953185494,0.46540399569999996,0.9619146851999999,-0.37858373137322,-0.7860308452512963,-0.3118467041000868,-70.02338497515346,-12.510961707103185,5.495469161064016
1699732591,10.6540426265,2.1355941704999997,0.0035892339,-0.37858373137322,-0.7860308452512963,-0.3118467041000868,-70.34492838351359,-12.642502192341421,6.474714995615318
1699732591,11.6135644891,3.0783662749,-0.08853443620000001,0.12171489871095456,-0.8515461420480334,-0.24388794635055763,-70.28646594562993,-12.686349020754164,6.1677871967261035
1699732591,11.6135644891,3.0783662749,-0.08853443620000001,0.12171489871095456,-0.8515461420480334,-0.24388794635055763,-70.15492546039171,-12.657117801812333,6.854720841859105
1699732591,11.690134812299998,4.2029928969000006,1.2167502921,0.8823948365770331,-0.5158756936582239,-0.18768834443634022,-70.43262204033908,-12.744811458637825,6.270096463022508
1699732591,11.690134812299998,4.2029928969000006,1.2167502921,0.8823948365770331,-0.5158756936582239,-0.18768834443634022,-70.18415667933353,-12.598655363928676,5.86085939783689
1699732591,10.5906328276,0.6568298037,0.873380249,0.08888089215781124,-0.5677992389050552,-0.09896016858807849,-69.83338205203157,-11.824028061970184,6.518561824028062
1699732591,10.5906328276,0.6568298037,0.873380249,0.08888089215781124,-0.5677992389050552,-0.09896016858807849,-69.64337912890967,-12.116340251388483,7.643963753288512
1699732591,10.2951192365,-3.4025937372,-0.6807580296999999,-1.7718146233933434,-0.4517348436474323,0.22418754241867164,-69.3802981584332,-12.028646594562993,8.798596901490791
1699732591,10.2951192365,-3.4025937372,-0.6807580296999999,-1.7718146233933434,-0.4517348436474323,0.22418754241867164,-69.05875475007308,-11.89710610932476,8.886290558316281
1699732591,9.9433743143,-0.3960121403,0.4163511324,-1.7327192481486706,-0.5074762966330013,0.18356500407850362,-68.73721134171295,-11.72171879567378,8.506284712072494
1699732591,9.9433743143,-0.3960121403,0.4163511324,-1.7327192481486706,-0.5074762966330013,0.18356500407850362,-69.10260157848582,-12.130955860859398,8.433206664717918
1699732591,8.636893174699999,4.1611185014,-1.8137595308,-0.4204280001897841,-0.2820670237379336,-0.05543602036646989,-69.02952353113125,-11.707103186202865,9.368605670856475
1699732591,8.636893174699999,4.1611185014,-1.8137595308,-0.4204280001897841,-0.2820670237379336,-0.05543602036646989,-69.05875475007308,-12.145571470330314,9.12014030985092
1699732591,8.3377903497,4.0426737827,-2.8199414341,0.09407324668249435,-0.10216721108861807,-0.20922134408282025,-69.33645133002047,-12.84712072493423,8.813212510961707
1699732591,8.3377903497,4.0426737827,-2.8199414341,0.09407324668249435,-0.10216721108861807,-0.20922134408282025,-68.63490207541655,-12.759427068108739,9.44168371821105
1699732591,9.1908316066,2.2396819536,-2.6273192148,0.0007635815477475192,-0.41691552507014545,-0.3678935897047547,-68.41566793335282,-12.861736334405144,11.180941245249928
1699732591,9.1908316066,2.2396819536,-2.6273192148,0.0007635815477475192,-0.41691552507014545,-0.3678935897047547,-68.69336451330021,-13.344051446945338,10.888629055831627
1699732591,9.7818587888,-1.1054840412,-2.4311077616,-0.6988298324985296,-0.9640980621860178,-0.4068362486398782,-68.63490207541655,-13.592516807950892,11.89710610932476
1699732591,9.7818587888,-1.1054840412,-2.4311077616,-0.6988298324985296,-0.9640980621860178,-0.4068362486398782,-68.18181818181817,-14.294066062554808,12.686349020754164
1699732591,10.0175518149,-4.0450666053,-1.1868400096,-1.6785049582585967,-1.0622946492263488,-0.5204571829447091,-68.1964337912891,-14.425606547793043,12.920198772288805
1699732591,10.0175518149,-4.0450666053,-1.1868400096,-1.6785049582585967,-1.0622946492263488,-0.5204571829447091,-68.24028061970185,-14.104063139432915,13.475591932183573
1699732591,9.754341328899999,-4.1814574935,-0.0538385085,-1.4243850191682221,-0.8019133414444446,-0.3506366467256608,-67.36334405144694,-14.542531423560362,14.133294358374746
1699732591,9.754341328899999,-4.1814574935,-0.0538385085,-1.4243850191682221,-0.5212207644924566,-0.08613199858592016,-67.15872551885414,-14.644840689856768,13.97252265419468
1699732591,9.1872423727,0.3780659708,0.1387837108,-0.13744467859455345,-0.5212207644924566,-0.08613199858592016,-67.43642209880151,-14.104063139432915,14.644840689856768
1699732591,9.1872423727,0.3780659708,0.1387837108,0.31398473243377983,-0.4749477226989569,-0.04627304179349966,-67.88950599239988,-14.089447529962,14.717918737211342
1699732591,9.104689993,3.1752755902,-0.35174492220000003,0.31398473243377983,-0.4749477226989569,-0.04627304179349966,-67.6118094124525,-14.337912890967552,15.024846536100556
1699732591,9.104689993,3.1752755902,-0.35174492220000003,-0.30176742766981957,-0.5271767005648872,-0.10949759394699425,-67.74334989769073,-14.410990938322128,14.732534346682257
1699732591,9.332008140000001,2.8163522002,-0.610169763,-0.30176742766981957,-0.5271767005648872,-0.10949759394699425,-67.62642502192342,-14.220988015200234,15.682548962291728
1699732591,9.332008140000001,2.8163522002,-0.610169763,-0.9428704951586367,-0.5531384731883029,-0.24465152789830513,-66.88102893890675,-14.893306050862321,16.077170418006432
1699732591,9.8404829425,1.3579268255,-0.3684946804,-0.9428704951586367,-0.5531384731883029,-0.24465152789830513,-66.76410406313943,-15.27331189710611,16.9248757673195
1699732591,9.8404829425,-0.6269195211999999,-0.7310073043,-1.2997685105758272,-0.5119050696099369,-0.34895676732061626,-67.14410990938322,-15.98947676118094,17.991815258696285
1699732591,10.064211855599998,-0.6269195211999999,-0.7310073043,-1.2997685105758272,-0.5119050696099369,-0.34895676732061626,-66.85179771996492,-15.551008477053493,16.57410114001754
1699732591,9.799804958300001,-1.8305092889999999,-1.0983055734,-1.240056433541971,-0.4540255882906749,-0.3804163270878141,-66.60333235895936,-16.13563285589009,18.254896229172758
1699732591,9.799804958300001,-1.8305092889999999,-1.0983055734,-1.240056433541971,-0.4540255882906749,-0.3804163270878141,-66.58871674948846,-16.179479684302837,18.10874013446361
1699732591,9.495916488099999,-2.1702900981999997,-0.8470592004,-0.9836457498083542,-0.42409319161897213,-0.3402519376762946,-66.57410114001753,-16.19409529377375,18.664133294358376
1699732591,9.495916488099999,-2.1702900981999997,-0.8470592004,-0.9836457498083542,-0.42409319161897213,-0.3402519376762946,-66.53025431160479,-16.57410114001754,18.62028646594563
1699732591,9.463613383,-1.7910277161,-0.4701896409,-0.7641924129857172,-0.40989057483086827,-0.26603181123523567,-66.2379421221865,-16.42794504530839,19.321835720549547
1699732591,9.463613383,-1.7910277161,-0.4701896409,-0.7641924129857172,-0.40989057483086827,-0.26603181123523567,-66.00409237065186,-16.968722595732242,19.146448406898568
1699732591,9.5880401582,-1.2729816232,-0.6460621019999999,-0.5899431037897334,-0.38133262494511105,-0.22831088277650824,-66.36948260742473,-17.187956737795968,19.643379128909675
1699732591,9.5880401582,-1.2729816232,-0.6460621019999999,-0.5899431037897334,-0.38133262494511105,-0.22831088277650824,-66.12101724641917,-17.23180356620871,20.257234726688104
1699732591,9.379864592,-0.6592226263,-0.7489534738,-0.4230241774521256,-0.36071592315592804,-0.2428189321837111,-65.69716457176264,-17.14410990938322,19.950306927798888
1699732591,9.379864592,-0.6592226263,-0.7489534738,-0.4230241774521256,-0.36071592315592804,-0.2428189321837111,-65.66793335282082,-17.34872844197603,19.847997661502482
1699732591,9.3499543095,-0.0047856452,-0.6161518195,-0.3703370506575468,-0.36239580256097265,-0.2751947898082059,-65.77024261911721,-17.743349897690734,19.59953230049693
1699732591,9.3499543095,-0.0047856452,-0.6161518195,-0.3703370506575468,-0.36239580256097265,-0.2751947898082059,-65.21484945922245,-18.137971353405437,19.906460099386145
1699732591,9.564111932200001,0.0849452023,-0.6592226263,-0.4256203547144672,-0.35842517851268546,-0.33429600160386386,-65.91639871382637,-18.167202572347264,20.87109032446653
1699732591,9.564111932200001,0.0849452023,-0.6592226263,-0.4256203547144672,-0.35842517851268546,-0.33429600160386386,-64.93715287927506,-17.75796550716165,21.10494007600117
1699732591,9.6442714893,-0.0921236701,-0.4486542375,-0.5294674452081298,-0.3316998243415223,-0.3933972133995219,-64.49868459514761,-18.44489915229465,20.798012277111955
1699732591,9.6442714893,-0.0921236701,-0.4486542375,-0.5294674452081298,-0.3316998243415223,-0.4416555672171651,-64.84945922244958,-19.08798596901491,20.973399590762934
1699732591,9.3954179389,-0.3218346397,-0.5659025448999999,-0.6290384790344062,-0.2953533426687404,-0.4416555672171651,-64.95176848874597,-18.766442560654777,20.681087401344637
1699732591,9.3954179389,-0.3218346397,-0.5659025448999999,-0.6250678549861192,-0.20861047884462225,-0.4807509424618381,-64.87869044139141,-19.48260742472961,21.061093247588424
1699732591,9.376275358100001,-0.5300102059,-1.0432706536,-0.6250678549861192,-0.20861047884462225,-0.4807509424618381,-64.26483484361299,-19.5703010815551,21.061093247588424
1699732591,9.376275358100001,-0.5300102059,-1.0432706536,-0.5763513522398275,-0.16569719586121168,-0.46303585055409563,-64.74714995615317,-19.584916691026017,22.14264834843613
1699732591,9.5030949559,-0.59820565,-1.2969098492,-0.5763513522398275,-0.16569719586121168,-0.46303585055409563,-64.46945337620579,-20.37415960245542,22.128032738965214
1699732591,9.5030949559,-0.59820565,-1.2969098492,-0.5456553740203772,-0.10567968620825664,-0.4332561701919424,-64.83484361297866,-20.418006430868168,21.938029815843322
1699732591,9.2434737038,-0.6472585133,-1.6450655375,-0.5456553740203772,-0.10567968620825664,-0.4332561701919424,-64.63022508038586,-20.739549839228296,22.040339082139727
1699732592,9.2434737038,-0.6472585133,-2.0410776778,-0.6145304296272035,-0.012522737383059314,-0.4248567731667197,-64.32329728149664,-21.07570885705934,21.938029815843322
1699732592,9.2614198733,-0.9320044027,-2.0410776778,-0.6145304296272035,-0.012522737383059314,-0.4248567731667197,-64.16252557731657,-21.55802396959953,21.99649225372698
1699732592,9.5162554802,-0.6197410534,-1.4009976323,-0.6892087049969109,-0.026572637861613665,-0.36942075280024983,-64.16252557731657,-21.5287927506577,21.90879859690149
1699732592,9.5162554802,-0.6197410534,-1.4009976323,-0.6892087049969109,-0.026572637861613665,-0.36942075280024983,-64.00175387313651,-21.70418006430868,22.347266881028936
1699732592,10.408778309999999,0.0729810893,-0.9379864592,-0.6284276137962083,-0.04092797095926703,-0.3672827244665567,-63.75328851213096,-22.157263957907045,22.05495469161064
1699732592,10.408778309999999,0.0729810893,-0.9379864592,-0.6284276137962083,-0.04092797095926703,-0.3672827244665567,-63.91406021631102,-22.215726395790707,22.391113709441683
1699732592,12.137592638500001,-0.42592242280000003,-1.507478238,-0.6230825429619757,0.024587325837470118,-0.5154175447295755,-63.78251973107278,-22.814966384098216,21.64571762642502
1699732592,12.137592638500001,-0.42592242280000003,-1.507478238,-0.6230825429619757,0.024587325837470118,-0.5154175447295755,-63.19789535223619,-22.727272727272727,21.33878982753581
1699732592,13.818550515,-1.7383856189,-2.0949161863,-0.6736316414228614,0.10125091323132103,-0.5224424949688526,-62.75942706810874,-22.639579070447237,21.499561531715873
1699732592,13.818550515,-1.7383856189,-2.0949161863,-0.6736316414228614,0.10125091323132103,-0.5224424949688526,-63.43174510377083,-23.136509792458344,20.286465945629935
1699732592,13.8592284992,-2.4598216327999998,-1.1054840412,-0.7244861725028462,0.17684548645832546,-0.3550654197025964,-62.993276819643384,-23.194972230342007,20.783396667641043
1699732592,13.8592284992,-2.4598216327999998,-1.1054840412,-0.7244861725028462,0.17684548645832546,-0.3550654197025964,-63.15404852382345,-23.6772873428822,19.964922537269807
1699732592,13.0265262344,-1.8879370314,0.41874395499999995,-0.6600398898729556,0.377362000896824,-0.12568552275924166,-62.5255773165741,-23.721134171294946,20.388775211926337
1699732592,13.0265262344,-1.8879370314,0.41874395499999995,-0.6600398898729556,0.377362000896824,-0.12568552275924166,-63.066354866997955,-23.165741011400176,18.91259865536393
1699732592,12.3661071968,-1.7599210223,0.6975077879,-0.39385536232817037,0.7942775259669694,0.19792033717615698,-62.67173341128325,-23.15112540192926,18.927214264834845
1699732592,12.3661071968,-1.7599210223,0.6975077879,-0.39385536232817037,0.7942775259669694,0.19792033717615698,-62.86173633440515,-22.858813212510963,18.82490499853844
1699732592,11.3312114223,-2.165504453,0.8255237969999999,-0.22815816646695872,1.3052662977196092,0.5013676442510211,-62.84712072493422,-22.595732242034494,17.684887459807076
1699732592,11.3312114223,-2.165504453,0.8255237969999999,-0.22815816646695872,1.3052662977196092,0.5013676442510211,-62.291727565039466,-22.02572347266881,16.720257234726688
1699732592,10.1001041946,-1.4165509792000002,1.1054840412,0.11713340942446944,1.7208073760038092,0.876591616814152,-62.467114878690445,-21.455714703303126,14.907921660333237
1699732592,10.1001041946,-1.4165509792000002,1.1054840412,0.11713340942446944,1.7208073760038092,0.876591616814152,-62.16018707980123,-20.768781058170124,14.118678748903829
1699732592,9.3056870914,0.7393821834000001,0.6699903279999999,0.6556111168960199,2.0430387891532624,1.2622002984266492,-61.94095293773751,-19.994153756211634,13.066354866997953
1699732592,9.3056870914,0.7393821834000001,0.6699903279999999,0.6556111168960199,2.0430387891532624,1.2622002984266492,-61.60479391990646,-19.39491376790412,12.61327097339959
1699732592,9.6693961266,3.4013973259,-0.3768695595,0.9592111402804336,1.928043408062486,1.4572190257213657,-62.11634025138848,-18.415667933352818,11.780181233557439
1699732592,9.6693961266,3.4013973259,-0.3768695595,0.9592111402804336,1.928043408062486,1.4572190257213657,-61.634025138848294,-18.21104940076001,12.087109032446651
1699732592,10.695917022000001,5.0057848792,-1.3351950108,0.5322163387800208,1.3026701204572677,1.3956743529729156,-61.151710026308095,-17.55334697456884,12.218649517684888
1699732592,10.695917022000001,5.0057848792,-1.3351950108,-0.42363504269032365,0.7771732992974251,1.1991284625827041,-61.531715872551885,-16.983338205203157,11.370944168371821
1699732592,10.8191473859,4.8406801198,-0.3625126239,-0.42363504269032365,0.7771732992974251,1.1991284625827041,-61.020169541069855,-17.0271850336159,11.736334405144696
1699732592,9.7555377402,3.1429724850999996,1.2825529136,-0.8271115325201128,0.6333145357017924,1.2186761502050407,-61.13709441683718,-16.01870798012277,11.458637825197311
1699732592,9.7555377402,3.1429724850999996,1.2825529136,-0.8271115325201128,0.6333145357017924,1.2186761502050407,-60.874013446360706,-15.536392867582578,11.268634902075418
1699732592,9.4085784632,1.2765708571,1.7192430381,-0.9529497715889039,0.5516113100928078,1.1282680949517343,-60.420929552762345,-15.784858228588133,10.786319789535224
1699732592,9.4085784632,1.2765708571,1.7192430381,-0.9529497715889039,0.5516113100928078,1.1282680949517343,-59.86553639286758,-15.083308973984217,11.882490499853844
1699732592,9.7160561673,-0.1902293967,1.2574282763000002,-0.8860600280062212,0.5102251902048923,1.0958922373272395,-59.997076878105815,-15.054077755042385,10.742472961122479
1699732592,9.7160561673,-0.1902293967,1.2574282763000002,-0.8860600280062212,0.5102251902048923,1.0958922373272395,-59.80707395498393,-14.498684595147617,10.435545162233264
1699732592,9.2590270507,-1.2837493249,1.2119646469,-0.498313318060031,0.5380195585429021,1.0801624574436406,-59.28091201403098,-14.32329728149664,10.464776381175096
1699732592,9.2590270507,-1.2837493249,1.2119646469,-0.498313318060031,0.5380195585429021,1.0801624574436406,-59.23706518561824,-13.70944168371821,10.114001753873136
1699732592,9.2674019298,-0.7621139981,1.3710873497999998,0.18600846503129567,0.5739078912870355,1.102153606018769,-59.23706518561824,-13.504823151125404,10.070154925460391
1699732592,9.2674019298,-0.7621139981,1.3710873497999998,0.18600846503129567,0.5739078912870355,1.102153606018769,-59.41245249926922,-12.978661210172465,9.047062262496345
1699732592,9.1118684608,0.15672988029999999,1.3004990831,0.7111998535720394,0.5786420968830701,1.1108584356630908,-58.57936275942707,-12.657117801812333,8.842443729903538
1699732592,9.1118684608,0.15672988029999999,1.3004990831,0.7111998535720394,0.5786420968830701,1.1108584356630908,-58.55013154048524,-12.087109032446651,8.579362759427068
1699732592,8.5232341012,-0.0275174599,0.9786644433999999,0.8952230065791914,0.5338962181850654,0.9476047007546714,-58.40397544577609,-12.028646594562993,8.944752996199941
1699732592,8.5232341012,-0.0275174599,0.9786644433999999,0.8952230065791914,0.5338962181850654,0.9476047007546714,-58.14089447529962,-11.882490499853844,8.0239695995323
1699732592,8.419146318100001,-0.6089733517,0.9164510558,0.8381071068076771,0.42012256757068506,0.8217664616858802,-58.3162817889506,-11.22478807366267,7.263957907044724
1699732592,8.419146318100001,-0.6089733517,0.9164510558,0.8381071068076771,0.42012256757068506,0.8217664616858802,-57.80473545746858,-10.903244665302543,7.6147325343466825
1699732592,8.4933238187,-0.6281159325,0.9308079913999999,0.9529497715889039,0.30527990278945816,0.7903069019186824,-57.410114001753875,-10.640163694826073,7.3808827828120425
1699732592,8.4933238187,-0.6281159325,0.9308079913999999,0.9529497715889039,0.30527990278945816,0.7903069019186824,-57.32242034492838,-10.391698333820521,6.474714995615318
1699732592,8.111668614,0.29551359110000003,1.2406785181,1.1601858036475805,0.33185254065107184,0.819628433352187,-57.36626717334112,-10.260157848582285,7.147033031277404
1699732592,8.111668614,0.29551359110000003,1.2406785181,1.1601858036475805,0.33185254065107184,0.819628433352187,-57.3370359543993,-10.172464191756795,6.6939491376790405
1699732592,7.2191457842,1.2777672683999999,1.1593225497000001,1.0859656772065218,0.22556198920461717,0.8420777308559642,-56.650102309266295,-9.967845659163988,6.971645717626425
1699732592,7.2191457842,1.2777672683999999,1.1593225497000001,1.0859656772065218,0.22556198920461717,0.8420777308559642,-56.70856474714996,-9.748611517100263,6.313943291435253
1699732592,6.6185473116,1.4213366244,1.0923235169,0.8564330639536175,-0.05635231822376691,0.7008151445226731,-56.56240865244081,-9.909383221280327,8.301666179479685
1699732592,6.6185473116,1.4213366244,1.0923235169,0.8564330639536175,-0.05635231822376691,0.7008151445226731,-55.89009061677872,-9.821689564454838,7.512423268050278
1699732592,6.2524454538,1.0432706536,1.3375878334,0.6105598055789163,-0.37094791589574483,0.4360050637638334,-56.41625255773166,-9.514761765565623,8.257819351066939
1699732592,6.2524454538,1.0432706536,1.3375878334,0.6105598055789163,-0.37094791589574483,0.4360050637638334,-55.90470622624964,-9.207833966676409,8.22858813212511
1699732592,6.448656907,0.2380858487,1.8017954178,0.4117231705454623,-0.6699664499936733,0.16432274907526612,-56.065477930429694,-9.514761765565623,8.19935691318328
1699732592,6.448656907,0.2380858487,1.8017954178,0.4117231705454623,-0.6699664499936733,0.16432274907526612,-55.99239988307513,-9.558608593978368,8.535515931014324
1699732592,6.8614188055,-0.2213360905,2.4753749797,0.3205515337444086,-0.8113817526365139,-0.08964447370555875,-55.90470622624964,-9.997076878105817,8.550131540485237
1699732592,7.1976103808000005,-0.2979064137,3.2207392196,0.4415028509076156,-0.7573201790559895,-0.477391183651749,-55.93393744519146,-10.172464191756795,9.383221280327389
1699732592,7.1976103808000005,-0.2979064137,3.2207392196,0.4415028509076156,-0.7573201790559895,-0.477391183651749,-55.81701256942414,-10.669394913767904,8.623209587839813
1699732592,7.7826555065,-0.885344362,3.7148570865,0.5742133239061344,-0.6210972309378321,-0.8491026810952413,-56.021631102016954,-11.151710026308097,9.44168371821105
1699732592,7.7826555065,-0.885344362,3.7148570865,0.5742133239061344,-0.6210972309378321,-0.8491026810952413,-55.56854720841859,-11.63402513884829,9.23706518561824
1699732592,9.7698946758,-2.6787649007,4.2987058009,0.5485569839018177,-0.48365255234327864,-1.094212357922195,-56.094709149371525,-11.8386436714411,8.754750073078048
1699732592,9.7698946758,-2.6787649007,4.2987058009,0.5485569839018177,-0.48365255234327864,-1.094212357922195,-55.7731657410114,-12.423268050277697,9.690149079216603
1699732592,12.8841532897,-5.036891573,5.0201418148,0.6418666490365645,-0.3543018381548489,-1.014189011718255,-55.78778135048231,-12.861736334405144,8.754750073078048
1699732592,12.8841532897,-5.036891573,5.0201418148,0.6418666490365645,-0.3543018381548489,-1.014189011718255,-56.4600993861444,-12.890967553346973,9.514761765565623
1699732592,14.0243332586,-6.9571317095,4.9208396769,0.6901250028542077,-0.16401731645616713,-0.40637809971122973,-55.99239988307513,-12.759427068108739,9.880152002338498
1699732592,14.0243332586,-6.9571317095,4.9208396769,0.6901250028542077,-0.16401731645616713,-0.40637809971122973,-55.52470038000584,-12.043262204033908,9.485530546623794
1699732592,12.7190485303,-6.339783478699999,5.7954163372,0.2712241657599188,0.10613783513690517,0.25595253480496843,-55.62700964630225,-12.452499269219526,9.777842736042093
1699732592,12.7190485303,-6.339783478699999,5.7954163372,0.2712241657599188,0.10613783513690517,0.25595253480496843,-55.29085062847121,-12.262496346097631,10.128617363344052
1699732592,9.834500886,-4.0522450731,5.2845487121,-0.13836097645185047,0.28909197397721076,0.37980546184961606,-55.61239403683133,-12.233265127155803,9.397836889798304
1699732592,9.834500886,-4.0522450731,5.2845487121,-0.13836097645185047,0.28909197397721076,0.37980546184961606,-55.597778427360424,-12.642502192341421,9.529377375036539
1699732592,6.824330055200001,0.0011964113,1.4931213024,0.04077525464971753,0.2466368399224487,0.016187928812247405,-55.96316866413329,-12.569424144986845,9.41245249926922
1699732592,6.824330055200001,0.0011964113,1.4931213024,0.04077525464971753,0.2466368399224487,0.016187928812247405,-55.72931891259866,-12.84712072493423,10.304004676995032
1699732592,7.0420769118,3.4564322457,-1.8771693297,0.38576139792204667,-0.32543845564999263,-0.30573805171810664,-55.24700380005846,-13.665594855305466,10.610932475884244
1699732592,7.0420769118,3.4564322457,-1.8771693297,0.38576139792204667,-0.32543845564999263,-0.30573805171810664,-55.466237942122184,-13.446360713241742,10.347851505407775
1699732592,11.4508525523,4.115654872,-1.2610175101999999,0.5900958200992829,-0.9436340767063841,-0.457690779719863,-55.320081847413036,-13.753288512130958,10.844782227418884
1699732592,11.4508525523,4.115654872,-1.2610175101999999,0.5900958200992829,-0.9436340767063841,-0.457690779719863,-55.217772581116634,-13.592516807950892,10.289389067524116
1699732592,15.5222402062,5.4855458105,3.8668013215999997,1.389107551662287,-1.1430815769780363,-0.8886562052685628,-55.495469161064015,-14.089447529962,10.830166617947969
1699732592,15.5222402062,5.4855458105,3.8668013215999997,1.389107551662287,-1.1430815769780363,-0.8886562052685628,-55.93393744519146,-14.820228003507745,10.216311020169542
1699732592,13.2478623249,1.5972090855,3.5246276898,1.0946705068508435,-0.4715879638888678,-1.1340713147146155,-55.65624086524408,-14.542531423560362,11.502484653610056
1699732592,13.2478623249,1.5972090855,3.5246276898,1.0946705068508435,-0.4715879638888678,-1.1340713147146155,-55.78778135048231,-14.907921660333237,12.569424144986845
1699732592,11.1122681544,-4.4673997942,-1.3495519463999999,-0.8576547944300136,-0.40653081602077923,-0.2790126975469435,-55.919321835720545,-15.0686933645133,12.467114878690442
1699732592,11.1122681544,-4.4673997942,-1.3495519463999999,-0.8576547944300136,-0.40653081602077923,-0.2790126975469435,-55.99239988307513,-14.878690441391406,12.364805612394036
1699732592,9.786644434,-4.0031922098,-1.3220344865,-1.2217304763960306,-0.4990768996077785,0.08292495608538057,-55.641625255773164,-11.356328558900906,13.110201695410698
1699732592,9.786644434,-4.0031922098,-1.3220344865,-1.2217304763960306,-0.4990768996077785,0.08292495608538057,-55.597778427360424,-15.03946214557147,13.329435837474424
1699732592,7.155735985300001,0.0526420972,-1.3962119871,-0.579558394740367,-0.3741549583962844,0.03420845333908886,-55.80239695995323,-15.638702133878981,12.510961707103185
1699732592,7.155735985300001,0.0526420972,-1.3962119871,-0.579558394740367,-0.3741549583962844,0.03420845333908886,-55.30546623794213,-15.448699210757088,12.803273896521485
1699732592,7.0073809841,2.6021945774999997,-2.7565316351999996,0.17394387657688487,-0.28420505207162666,-0.09590584239708841,-55.56854720841859,-16.179479684302837,13.636363636363635
1699732592,7.0073809841,2.6021945774999997,-2.7565316351999996,0.17394387657688487,-0.28420505207162666,-0.09590584239708841,-55.6854720841859,-15.726395790704473,13.70944168371821
1699732592,8.3593257531,2.9383861528,-2.4538395763,0.6702718826127724,-0.43264530495374437,-0.39629882328096244,-55.320081847413036,-16.13563285589009,13.76790412160187
1699732592,8.3593257531,2.9383861528,-2.4538395763,0.8979719001510826,-0.7493789309594153,-0.6453791241562032,-55.23238819058754,-16.515638702133877,13.534054370067231
1699732592,10.0713903234,1.2646067441000002,-1.4847464232999998,0.8979719001510826,-0.7493789309594153,-0.6453791241562032,-55.24700380005846,-16.617947968430283,14.747149956153171
1699732592,10.0713903234,-2.1200408236,-1.1808579531,0.03787364476827695,-1.077566280181299,-0.5719225792628918,-55.37854428529669,-16.895644548377668,15.054077755042385
1699732592,10.685149320299999,-2.1200408236,-1.1808579531,0.03787364476827695,-1.077566280181299,-0.5719225792628918,-55.34931306635487,-17.392575270388775,15.638702133878981
1699732592,10.116853952800001,-4.3896330597,-0.9786644433999999,-0.5062545661566052,-0.9115636517009884,-0.5542074873551495,-55.75855013154049,-17.670271850336157,15.404852382344345
1699732592,10.116853952800001,-4.3896330597,-0.9786644433999999,-0.5062545661566052,-0.9115636517009884,-0.5542074873551495,-55.6854720841859,-17.991815258696285,16.83718211049401
1699732592,9.2973122123,-2.691925425,-0.4366901245,0.03268129024359382,-0.6818783221385346,-0.4543310209097739,-55.51008477053493,-18.327974276527332,16.954106986261326
1699732592,9.2973122123,-2.691925425,-0.4366901245,0.03268129024359382,-0.6818783221385346,-0.4543310209097739,-55.17392575270389,-18.137971353405437,15.98947676118094
1699732592,9.1597249128,1.8137595308,-0.2931207685,0.7826710864412072,-0.5656612105713621,-0.3075706474327007,-55.115463314820225,-18.254896229172758,16.66179479684303
1699732592,9.1597249128,1.8137595308,-0.2931207685,0.7826710864412072,-0.5656612105713621,-0.3075706474327007,-54.530838935983624,-18.634902075416544,17.37795966091786
1699732593,9.2434737038,3.2231320422,-0.5347958510999999,0.5823072883122582,-0.5978843518863075,-0.27427849195090886,-54.42852966968723,-18.751826951183865,17.187956737795968
1699732593,9.2434737038,3.2231320422,-0.5347958510999999,0.5823072883122582,-0.5978843518863075,-0.27427849195090886,-54.852382344343766,-18.488745980707396,16.76410406313943
1699732593,9.165706969299999,1.6175480776,-0.5371886737,-0.013439035240356337,-0.642019365346114,-0.3159700444579235,-54.67699503069278,-18.91259865536393,18.401052323881906
1699732593,9.165706969299999,1.6175480776,-0.5371886737,-0.013439035240356337,-0.642019365346114,-0.3159700444579235,-54.516223326512716,-19.219526454253142,17.55334697456884
1699732593,9.4983093107,-0.4630111731,-0.8697910151,-0.27275132885541387,-0.5881105080751392,-0.3877467099461902,-54.77930429698918,-19.336451330020463,18.488745980707396
1699732593,9.4983093107,-0.4630111731,-0.8697910151,-0.27275132885541387,-0.5881105080751392,-0.3877467099461902,-54.25314235603624,-19.584916691026017,18.371821104940075
1699732593,9.2793660428,-1.160518961,-1.2658031554,-0.18173240836390955,-0.5086980271093973,-0.3820962064928586,-54.31160479391991,-19.935691318327976,18.24028061970184
1699732593,9.2793660428,-1.160518961,-1.2658031554,-0.18173240836390955,-0.5086980271093973,-0.3820962064928586,-53.887752119263375,-19.921075708857057,19.117217187956737
1699732593,8.961120637,-0.6161518195,-1.0719845248,-0.00015271630954950385,-0.4694499355551748,-0.3162754770770224,-53.80005846243788,-20.096463022508036,19.614147909967848
1699732593,8.961120637,-0.6161518195,-1.0719845248,-0.00015271630954950385,-0.4694499355551748,-0.3162754770770224,-53.47851505407776,-20.24261911721719,19.219526454253142
1699732593,9.2374916473,0.1854437515,-0.37567314820000003,-0.035430183815484885,-0.4818199566286846,-0.2583959957577605,-53.90236772873429,-20.418006430868168,19.292604501607716
1699732593,9.2374916473,0.1854437515,-0.37567314820000003,-0.035430183815484885,-0.4818199566286846,-0.2583959957577605,-53.580824320374155,-20.52031569716457,19.80415083308974
1699732593,9.104689993,0.4271188341,-0.3768695595,-0.08964447370555875,-0.3978259863764575,-0.34651330636782424,-53.59543992984508,-21.002630809704765,20.24261911721719
1699732593,9.104689993,0.4271188341,-0.3768695595,-0.08964447370555875,-0.3978259863764575,-0.34651330636782424,-53.62467114878691,-21.04647763811751,19.5703010815551
1699732593,9.054440718399999,0.490528633,-1.0157531937,0.020311269170084013,-0.3846923837552002,-0.5122105022290359,-53.887752119263375,-21.294942999123062,20.03800058462438
1699732593,9.054440718399999,0.490528633,-1.0157531937,0.020311269170084013,-0.3846923837552002,-0.5122105022290359,-53.785442852966966,-21.572639579070447,21.36802104647764
1699732593,8.901300072,0.4821537539,-1.5469598109,0.2040289895581371,-0.478002048889947,-0.6395759043933221,-53.63928675825782,-22.011107863197896,21.35340543700672
1699732593,8.901300072,0.4821537539,-1.5469598109,0.2040289895581371,-0.478002048889947,-0.6395759043933221,-53.44928383513593,-21.85033615901783,20.783396667641043
1699732593,8.757730716,0.179461695,-1.1593225497000001,0.17791450062517197,-0.5123632185385854,-0.6893614213064604,-52.96696872259573,-22.25957322420345,22.274188833674362
1699732593,8.757730716,0.179461695,-1.1593225497000001,0.17791450062517197,-0.5123632185385854,-0.6893614213064604,-53.30312774042678,-22.49342297573809,21.777258111663254
1699732593,9.200402897,-0.09092725880000001,0.09690931529999999,-0.07406741013150937,-0.5018257931796696,-0.5971207703385599,-53.04004676995031,-22.61034785150541,21.791873721134174
1699732593,9.200402897,-0.09092725880000001,0.09690931529999999,-0.19471329467561738,-0.40378192244888816,-0.5057964172279568,-52.67465653317743,-23.06343174510377,21.51417714118679
1699732593,10.151549880500001,0.42592242280000003,0.1734796385,-0.19471329467561738,-0.40378192244888816,-0.5057964172279568,-53.17158725518855,-23.458053200818473,22.14264834843613
1699732593,10.151549880500001,0.42592242280000003,-0.8267202082999999,-0.42516220578581865,-0.23747386134947845,-0.4932736798448974,-52.47003800058463,-23.721134171294946,22.23034200526162
1699732593,10.6253287553,0.849452023,-0.8267202082999999,-0.42516220578581865,-0.23747386134947845,-0.4932736798448974,-52.74773458053201,-24.203449283835134,21.981876644256065
1699732593,10.8143617407,-0.0251246373,-1.4644074312,-0.7454083069111282,-0.10537425358915764,-0.6152940111749509,-52.908506284712075,-25.270388775211927,22.05495469161064
1699732593,10.8143617407,-0.0251246373,-1.4644074312,-0.7454083069111282,-0.10537425358915764,-0.6152940111749509,-52.8354282373575,-25.22654194679918,22.201110786319788
1699732593,11.5369941659,-2.0913269524,-2.2887348169,-0.81260348311291,-0.011911872144861299,-0.7971791358484099,-52.426191172171876,-25.679625840397545,21.16340251388483
1699732593,11.5369941659,-2.0913269524,-2.2887348169,-0.81260348311291,-0.011911872144861299,-0.7971791358484099,-52.38234434375914,-25.913475591932183,21.616486407483194
1699732593,11.9736842904,-3.8081771679,-2.0003996936,-0.6472117198707973,0.06246097060574707,-0.8402451351413701,-52.47003800058463,-26.5127155802397,21.777258111663254
1699732593,11.9736842904,-3.8081771679,-2.0003996936,-0.6472117198707973,0.06246097060574707,-0.8402451351413701,-52.38234434375914,-26.9073370359544,21.967261034785153
1699732593,13.0492580491,-4.8000021356,-0.9834500885999999,-0.5597052744989316,0.17684548645832546,-0.7418958317914897,-52.952353113124815,-27.448114586378253,21.55802396959953
1699732593,13.0492580491,-4.8000021356,-0.9834500885999999,-0.5597052744989316,0.17684548645832546,-0.7418958317914897,-52.58696287635194,-27.199649225372696,21.090324466530255
1699732593,14.423934632799998,-4.961517661099999,-0.3529413335,-0.20967949301146876,0.35567628494079445,-0.43127085816779887,-52.20695703010816,-27.974276527331188,20.944168371821103
1699732593,14.423934632799998,-4.961517661099999,-0.3529413335,-0.20967949301146876,0.35567628494079445,-0.43127085816779887,-52.426191172171876,-27.57965507161649,20.768781058170124
1699732593,13.3543429306,-3.4839497056,0.4366901245,0.377667433515923,0.754724001793648,-0.02871066619530672,-52.85004384682841,-27.433498976907337,19.74568839520608
1699732593,13.3543429306,-3.4839497056,0.4366901245,0.377667433515923,0.754724001793648,-0.02871066619530672,-53.15697164571762,-27.097339959076294,19.65799473838059
1699732593,12.0406833232,-1.5026925928000001,0.7142575461,0.7373143425050045,1.2316570365167483,0.359799625298631,-53.332358959368605,-27.038877521192635,19.219526454253142
1699732593,12.0406833232,-1.5026925928000001,0.7142575461,0.7373143425050045,1.2316570365167483,0.359799625298631,-53.27389652148494,-26.67348728441976,18.137971353405437
1699732593,10.947163395,-0.08853443620000001,-0.059820565,0.9279042968227853,1.6300938881314038,0.7913759160855289,-53.72698041508331,-26.366559485530544,17.538731365097927
1699732593,10.947163395,-0.08853443620000001,-0.059820565,0.9279042968227853,1.6300938881314038,0.7913759160855289,-53.80005846243788,-25.57731657410114,16.705641625255772
1699732593,9.8967142736,0.5455635528,-0.8650053699,1.1320860026904718,1.932014032110773,1.1452196053117292,-54.60391698333821,-25.12423268050278,16.807950891552178
1699732593,9.8967142736,0.5455635528,-0.8650053699,1.1320860026904718,1.932014032110773,1.1452196053117292,-54.26775796550716,-24.612686349020755,16.0479391990646
1699732593,9.81057266,1.2179467034,-0.8781658942,1.2423471781852138,1.872607387696016,1.4631749617937961,-54.5016077170418,-23.560362467114878,15.200233849751536
1699732593,9.81057266,1.2179467034,-0.8781658942,1.2423471781852138,1.872607387696016,1.4631749617937961,-54.2092955276235,-23.06343174510377,14.17714118678749
1699732593,10.612168230999998,2.4370898181,-1.2071790017,1.3697125803495,1.490053032274509,1.631010185988701,-54.662379421221864,-22.551885413621747,14.294066062554808
1699732593,10.612168230999998,2.4370898181,-1.2071790017,1.3697125803495,1.490053032274509,1.631010185988701,-55.33469745688395,-22.1134171294943,13.270973399590764
1699732593,11.461620254,3.4049865597999998,-1.6701901747999999,1.1977540157967586,1.0221302598148292,1.4492777776247914,-55.34931306635487,-21.748026892721427,12.496346097632271
1699732593,11.461620254,3.4049865597999998,-1.6701901747999999,1.1977540157967586,1.0221302598148292,1.4492777776247914,-55.217772581116634,-21.64571762642502,12.949429991230636
1699732593,11.0356978312,3.3954152694,-1.0193424276,0.7409795339341926,0.9399688852771961,1.2828170002158321,-54.7939199064601,-21.33878982753581,12.496346097632271
1699732593,11.0356978312,3.3954152694,-1.0193424276,0.7409795339341926,0.9399688852771961,1.2828170002158321,-54.560070154925455,-20.651856182402806,11.98479976615025
1699732593,10.0199446375,2.7696921595,-0.0023928226,0.3833179369692546,0.9586002750422356,1.3112222337920398,-54.41391406021631,-19.614147909967848,11.794796843028355
1699732593,10.0199446375,2.7696921595,-0.0023928226,0.3833179369692546,0.9586002750422356,1.3112222337920398,-54.443145279158145,-19.65799473838059,11.5463314820228
1699732593,9.750752095,1.6223337227999999,0.6388836341999999,-0.30497447017035917,0.8762861841950531,1.3358095596295099,-54.516223326512716,-19.014907921660335,12.627886582870506
1699732593,9.750752095,1.6223337227999999,0.9439685157,-0.8634580141928946,0.6546948190387228,1.2880093547405154,-54.54545454545454,-19.248757673194973,12.233265127155803
1699732593,9.7208418125,-0.36370903520000003,0.9439685157,-0.8634580141928946,0.6546948190387228,1.2880093547405154,-54.57468576439638,-18.91259865536393,12.145571470330314
1699732593,9.037690960199999,-2.1631116304,0.6017948839,-0.35140022827340833,0.5224424949688526,1.1514809740032588,-54.07775504238527,-18.357205495469163,11.40017538731365
1699732593,9.037690960199999,-2.1631116304,0.6017948839,-0.35140022827340833,0.5224424949688526,1.1514809740032588,-53.94621455714703,-18.2987430575855,10.800935399006137
1699732593,8.3461652288,-2.3844477209,-0.0729810893,0.6850853646390742,0.4528038578142789,1.1036807691142643,-53.90236772873429,-17.451037708272434,10.844782227418884
1699732593,8.3461652288,-2.3844477209,-0.0729810893,0.6850853646390742,0.4528038578142789,1.1036807691142643,-54.42852966968723,-16.676410406313945,9.704764688687519
1699732593,8.4394853102,-1.8747765071,-0.1280160091,1.2664763550940352,0.35598171755989344,1.2044735334169367,-54.58930137386729,-16.58871674948845,10.610932475884244
1699732593,8.4394853102,-1.8747765071,-0.1280160091,1.2664763550940352,0.35598171755989344,1.2044735334169367,-54.340836012861736,-16.45717626425022,9.163987138263666
1699732593,8.7708912403,-0.9128618219,0.17228322719999997,1.6256651151544683,0.22082778360858255,1.3045027161718619,-54.384682841274476,-15.726395790704473,9.368605670856475
1699732593,8.7708912403,-0.9128618219,0.17228322719999997,1.6256651151544683,0.22082778360858255,1.3045027161718619,-53.785442852966966,-15.434083601286176,9.967845659163988
1699732593,8.5471623272,-0.311066938,-0.0059820565,1.933846627825367,0.08903360846736075,1.2429580434234118,-54.063139432914355,-14.615609470914936,8.564747149956153
1699732593,8.5471623272,-0.311066938,-0.0059820565,1.933846627825367,0.08903360846736075,1.2429580434234118,-53.8146740719088,-13.97252265419468,8.506284712072494
1699732593,8.0339018795,-0.1256231865,-0.2943171798,2.1713204891748457,-0.008704829644321718,1.0801624574436406,-53.683133586670564,-14.074831920491086,7.673194972230342
1699732593,8.0339018795,-0.1256231865,-0.2943171798,2.1713204891748457,-0.008704829644321718,1.0801624574436406,-53.63928675825782,-13.680210464776382,7.99473838059047
1699732593,7.9345997416,0.35772697870000003,-0.1148554848,2.3901629607592842,-0.07345654489331135,0.9399688852771961,-54.0046769950307,-13.241742180648933,7.687810581701257
1699732593,7.9345997416,0.35772697870000003,-0.1148554848,2.3901629607592842,-0.07345654489331135,0.9399688852771961,-53.43466822566501,-13.417129494299912,6.343174510377082
1699732593,7.539784012599999,1.1330015010999999,-0.071784678,2.434297974219091,-0.18448130193580065,0.8549059008581225,-53.74159602455423,-13.168664133294358,6.299327681964338
1699732593,7.539784012599999,1.1330015010999999,-0.071784678,2.434297974219091,-0.18448130193580065,0.8549059008581225,-53.536977491961416,-12.510961707103185,6.6501023092662965
1699732593,7.0743800169,1.7012968686,-0.0095712904,2.246151480854102,-0.38133262494511105,0.7266242008365392,-53.72698041508331,-13.02250803858521,6.737795966091786
1699732593,7.0743800169,1.7012968686,-0.0095712904,2.246151480854102,-0.38133262494511105,0.7266242008365392,-53.90236772873429,-12.07249342297574,6.3724057293189125
1699732593,6.7669023128,2.0015961049,0.7944171031999999,1.9228510535378027,-0.5542074873551495,0.5239696580643476,-53.0254311604794,-12.481730488161356,6.635486699795382
1699732593,6.7669023128,2.0015961049,0.7944171031999999,1.9228510535378027,-0.5542074873551495,0.5239696580643476,-52.77696579947384,-12.496346097632271,7.10318620286466
1699732593,7.106683122,1.7491533206,1.8113667082,1.5186109821602662,-0.7513642429835589,0.29565877528783946,-53.24466530254311,-12.744811458637825,7.395498392282958
1699732593,7.106683122,1.7491533206,1.8113667082,1.5186109821602662,-0.7513642429835589,0.29565877528783946,-53.960830166617946,-12.920198772288805,7.366267173341129
1699732593,7.9190463947000005,0.4618147618,2.2576281231,1.1811079380558627,-0.9225592259885527,0.029626964052603743,-53.25928091201403,-12.247880736626717,7.965507161648641
1699732593,7.9190463947000005,0.4618147618,2.2576281231,1.1811079380558627,-0.9225592259885527,0.029626964052603743,-53.39082139725227,-12.803273896521485,8.28705057000877
1699732593,8.9635134596,-0.6293123438,3.0269205889999995,1.13269686792867,-0.972955608139889,-0.2428189321837111,-53.5223618824905,-12.730195849166911,7.950891552177726
1699732593,8.9635134596,-0.6293123438,3.0269205889999995,1.13269686792867,-0.972955608139889,-0.2428189321837111,-53.15697164571762,-12.832505115463313,8.696287635194388
1699732593,10.191031453399999,-1.3220344865,3.7232319655999997,1.2611312842598026,-0.955087799922597,-0.5015203605605706,-53.56620871090324,-13.168664133294358,8.988599824612686
1699732593,10.191031453399999,-1.3220344865,3.7232319655999997,1.2611312842598026,-0.955087799922597,-0.5015203605605706,-53.507746273019585,-13.25635779011985,9.163987138263666
1699732593,10.4949199236,-2.3940190112999997,3.8608192651000004,1.4341588629793904,-0.7432702785774352,-0.6382014576073765,-53.77082724349606,-13.431745103770828,8.915521777258112
1699732593,10.4949199236,-2.3940190112999997,3.8608192651000004,1.4341588629793904,-0.7432702785774352,-0.6382014576073765,-53.71236480561239,-13.373282665887167,8.097047646886875
1699732593,11.521440818999999,-3.2458638569,4.9746781854,1.6924021424276015,-0.4335616028110414,-0.5337435018755159,-54.136217480268925,-13.504823151125404,8.140894475299621
1699732593,11.521440818999999,-3.2458638569,4.0115670889,1.795332935063967,-0.003817907738737596,-0.179136231101568,-54.282373574978074,-14.00175387313651,7.673194972230342
1699732593,11.0608224685,-5.2666025426,4.0115670889,1.795332935063967,-0.003817907738737596,-0.179136231101568,-53.71236480561239,-13.621748026892721,7.322420344928384
1699732593,12.215359372999998,-6.563512391800001,2.2660030021999997,1.2733485890237628,0.11942415406771201,0.5702426998578473,-53.536977491961416,-13.227126571178019,6.767027185033616
1699732593,12.215359372999998,-6.563512391800001,2.2660030021999997,1.2733485890237628,0.11942415406771201,0.5702426998578473,-53.536977491961416,-12.598655363928676,7.804735457468577
1699732593,12.6664064331,-5.124229597899999,3.9003008379999997,0.9856310618324977,-0.22922718063380523,0.8275696814487612,-54.019292604501615,-12.189418298743057,7.263957907044724
1699732593,12.6664064331,-5.124229597899999,3.9003008379999997,0.9856310618324977,-0.22922718063380523,0.8275696814487612,-54.106986261327094,-12.35019000292312,7.000876936568255
1699732593,6.9822563468,-2.5579273594000003,2.6344976826,1.1838568316277538,-0.09834930334988047,0.4932736798448974,-53.43466822566501,-12.218649517684888,6.971645717626425
1699732593,6.9822563468,-2.5579273594000003,2.6344976826,1.1838568316277538,-0.09834930334988047,0.4932736798448974,-53.20081847413037,-12.233265127155803,6.562408652440807
1699732593,4.0893338234,-0.9535398061,-1.9166509025999998,0.6108652381980153,-0.3135265835051314,0.4308127092391503,-53.18620286465946,-12.320958783981292,6.854720841859105
1699732593,4.0893338234,-0.9535398061,-1.9166509025999998,0.6108652381980153,-0.3135265835051314,0.4308127092391503,-53.37620578778135,-12.247880736626717,7.030108155510084
1699732593,7.3052873978,0.1459621786,-2.6297120374,0.5067127150852537,-1.0974194004227344,0.27198774730766634,-53.49313066354867,-11.999415375621163,8.155510084770535
1699732594,7.3052873978,0.1459621786,-2.6297120374,0.5067127150852537,-1.0974194004227344,0.27198774730766634,-54.106986261327094,-12.204033908213972,8.389359836305173
1699732594,13.3866460357,4.0546378957,-0.42592242280000003,2.181247049295563,-1.6769777951631015,-0.5033529562751646,-54.39929845074539,-12.35019000292312,8.433206664717918
1699732594,13.3866460357,4.0546378957,-0.42592242280000003,2.181247049295563,-1.6769777951631015,-0.5033529562751646,-54.69161064016369,-12.715580239695996,8.097047646886875
1699732594,17.771493450199998,7.4261249391,5.458028350599999,3.546989005596776,-1.1059715137575068,-1.1256719176893928,-54.76468868751827,-12.993276819643379,7.278573516515639
1699732594,17.771493450199998,7.4261249391,5.458028350599999,3.546989005596776,-1.1059715137575068,-1.1256719176893928,-54.75007307804736,-13.519438760596318,7.702426191172172
1699732594,16.1479633161,3.8560336199000003,4.4662033829,2.4054345917142346,-0.17974709633976602,-1.0963503862558879,-54.39929845074539,-13.373282665887167,7.4539608301666185
1699732594,16.1479633161,3.8560336199000003,4.4662033829,2.4054345917142346,-0.17974709633976602,-1.0963503862558879,-54.73545746857644,-13.519438760596318,7.892429114294067
1699732594,11.335997067500001,-1.2287144051,-2.1152551784,-0.45127669471878384,-0.18157969205436006,-0.20861047884462225,-54.472376498099976,-13.037123648056124,8.345513007892428
1699732594,11.335997067500001,-1.2287144051,-2.1152551784,-0.45127669471878384,-0.18157969205436006,-0.20861047884462225,-54.983922829581985,-13.460976322712655,8.930137386729028
1699732594,8.7673020064,-1.5756736821000001,-3.1537401868,-1.3252721342705944,-0.2029599753912906,0.012217304763960306,-54.896229172756506,-13.957907044723767,9.163987138263666
1699732594,8.7673020064,-1.5756736821000001,-3.1537401868,-1.3252721342705944,-0.2029599753912906,0.012217304763960306,-54.69161064016369,-13.826366559485532,7.804735457468577
1699732594,6.0969119848,0.7405785947,-2.2265214293,-0.558025395093887,-0.12171489871095456,-0.20128009598624608,-54.70622624963462,-14.133294358374746,9.310143232972814
1699732594,6.0969119848,0.7405785947,-2.2265214293,-0.558025395093887,-0.12171489871095456,-0.20128009598624608,-55.115463314820225,-14.191756796258403,9.076293481438176
1699732594,5.6135618196,1.6414763036,-2.9766713144,0.1511891464540088,-0.4416555672171651,-0.3446807106532302,-55.17392575270389,-14.352528500438469,9.12014030985092
1699732594,5.6135618196,1.6414763036,-2.9766713144,0.1511891464540088,-0.4416555672171651,-0.3446807106532302,-54.998538439052915,-14.352528500438469,9.339374451914646
1699732594,7.3866433661999995,0.9044869428,-2.7457639335,0.6904304354733068,-0.7457137395302272,-0.48502699912922415,-55.670856474714995,-14.717918737211342,10.18707980122771
1699732594,7.3866433661999995,0.9044869428,-2.7457639335,0.6904304354733068,-0.7457137395302272,-0.48502699912922415,-54.983922829581985,-14.951768488745982,10.610932475884244
1699732594,11.109875331800001,-1.0073783146,-1.2251251712,0.8466592201424492,-0.9999863949301512,-0.6545421027291733,-55.320081847413036,-15.0686933645133,10.947091493715288
1699732594,11.109875331800001,-1.0073783146,-1.2251251712,0.8466592201424492,-0.9999863949301512,-0.6545421027291733,-55.086232095878394,-15.638702133878981,11.370944168371821
1699732594,12.271590704100001,-2.9156543381000004,-0.5802594805,0.4819726729382341,-1.1187996837596652,-0.6256787202243173,-55.75855013154049,-15.419467991815258,10.59631686641333
1699732594,12.271590704100001,-2.9156543381000004,-0.5802594805,0.5760459196207285,-0.6754642371374555,-0.40179661042474457,-55.4808535515931,-15.565624086524407,11.8386436714411
1699732594,9.8512506442,-2.5256242543,-1.1461620254,0.5760459196207285,-0.6754642371374555,-0.40179661042474457,-55.33469745688395,-15.799473838059047,11.429406606255482
1699732594,9.0759761218,0.2021935097,-0.5838487144,1.2270755472302635,-0.5064072824661547,-0.30161471136027007,-54.88161356328559,-15.536392867582578,11.5463314820228
1699732594,9.0759761218,0.2021935097,-0.5838487144,1.2270755472302635,-0.5064072824661547,-0.30161471136027007,-55.14469453376206,-16.22332651271558,11.780181233557439
1699732594,9.2913301558,3.2099715178999997,-0.0777667345,1.4114041328565146,-0.5612324375944266,-0.1867720465790432,-55.495469161064015,-16.091786027477344,11.999415375621163
1699732594,9.2913301558,3.2099715178999997,-0.0777667345,1.4114041328565146,-0.5612324375944266,-0.1867720465790432,-55.597778427360424,-15.960245542239113,11.955568547208419
1699732594,8.8366938618,2.5854448193,-0.538385085,0.7367034772668065,-0.5523748916405554,-0.22770001753831023,-55.451622332651276,-16.267173341128323,11.63402513884829
1699732594,8.8366938618,2.5854448193,-0.538385085,0.7367034772668065,-0.5523748916405554,-0.22770001753831023,-55.72931891259866,-16.179479684302837,11.926337328266587
1699732594,8.291130309,0.8350950873999999,-1.4189438018,-0.018784106074588972,-0.5412266010434417,-0.3000875482647751,-55.56854720841859,-16.54486992107571,11.80941245249927
1699732594,8.291130309,0.8350950873999999,-1.4189438018,-0.018784106074588972,-0.5412266010434417,-0.3000875482647751,-55.37854428529669,-16.31102016954107,12.247880736626717
1699732594,8.61416136,-0.0394815729,-1.6977076347,-0.1316414588316723,-0.6101016566502677,-0.3645338308946657,-55.52470038000584,-16.062554808535516,12.8178895059924
1699732594,8.61416136,-0.0394815729,-1.6977076347,-0.1316414588316723,-0.6101016566502677,-0.3645338308946657,-55.553931598947685,-16.807950891552178,12.87635194387606
1699732594,9.4372923344,-0.08135596839999999,-2.3030917525,0.33399056898476487,-0.6719517620178169,-0.4627304179349966,-55.40777550423853,-17.20257234726688,12.189418298743057
1699732594,9.4372923344,-0.08135596839999999,-2.3030917525,0.33399056898476487,-0.6719517620178169,-0.4627304179349966,-55.29085062847121,-17.334112832505117,12.61327097339959
1699732594,9.554540641800001,0.24646072779999997,-1.3196416639,0.561690586523075,-0.7322747042898708,-0.4634939994827441,-55.276235019000296,-17.275650394621454,13.97252265419468
1699732594,9.554540641800001,0.24646072779999997,-1.3196416639,0.561690586523075,-0.7322747042898708,-0.4634939994827441,-55.670856474714995,-16.85179771996492,14.162525577316574
1699732594,9.353543543399999,0.3158525832,0.0981057266,0.25747969790046343,-0.7612908031042765,-0.32482759041179465,-55.80239695995323,-16.954106986261326,14.396375328851214
1699732594,9.353543543399999,0.3158525832,0.0981057266,0.25747969790046343,-0.7612908031042765,-0.32482759041179465,-55.261619409529374,-16.778719672610347,14.484068985676704
1699732594,9.4313102779,0.1579262916,-0.4462614149,0.17409659288643436,-0.6630942160639457,-0.2884811087390127,-55.495469161064015,-17.246419175679627,14.995615317158725
1699732594,9.4313102779,0.1579262916,-0.4462614149,0.17409659288643436,-0.6630942160639457,-0.2884811087390127,-55.320081847413036,-17.085647471499563,15.27331189710611
1699732594,9.4229353988,0.1782652837,-1.1222337994,0.17730363538697394,-0.6047565858160352,-0.31581732814837393,-55.24700380005846,-17.78719672610348,15.463314820228003
1699732594,9.4229353988,0.1782652837,-1.1222337994,0.17730363538697394,-0.6047565858160352,-0.31581732814837393,-54.82315112540193,-17.743349897690734,15.171002630809705
1699732594,9.3344009626,0.1052841944,-1.1509476706000001,0.06062837489115302,-0.5410738847338921,-0.30726521481360175,-55.33469745688395,-17.49488453668518,15.945629932768195
1699732594,9.3344009626,0.1052841944,-1.1509476706000001,0.06062837489115302,-0.5410738847338921,-0.30726521481360175,-55.14469453376206,-17.9041216018708,16.208710903244665
1699732594,10.04985492,0.0346959277,-0.9260223462,-0.06047565858160352,-0.5488624165209168,-0.30192014397936906,-54.83776673487284,-17.845659163987136,16.720257234726688
1699732594,10.04985492,0.0346959277,-0.9260223462,-0.06047565858160352,-0.5488624165209168,-0.30192014397936906,-55.20315697164572,-18.517977199649224,16.866413329435836
1699732594,10.313065405999998,0.12323036389999999,-0.7334001269,-0.20051651443849852,-0.5403103031861446,-0.31306843457648287,-55.13007892429115,-18.766442560654777,16.705641625255772
1699732594,10.313065405999998,0.12323036389999999,-0.7334001269,-0.20051651443849852,-0.5403103031861446,-0.31306843457648287,-55.261619409529374,-18.547208418591055,17.436422098801522
1699732594,10.064211855599998,0.1172483074,-0.7621139981,-0.34406984541503216,-0.4741841411512094,-0.3636175330373686,-54.998538439052915,-19.058754750073078,16.997953814674073
1699732594,10.064211855599998,0.1172483074,-0.7621139981,-0.34406984541503216,-0.4741841411512094,-0.3636175330373686,-55.042385267465654,-19.117217187956737,17.3194972230342
1699732594,9.5688975774,-0.2081755662,-1.0420742423,-0.4340197517396899,-0.3732386605389874,-0.43646321269248195,-54.96930722011108,-19.39491376790412,17.991815258696285
1699732594,9.5688975774,-0.2081755662,-1.0420742423,-0.4340197517396899,-0.3732386605389874,-0.43646321269248195,-55.01315404852383,-19.672610347851503,17.670271850336157
1699732594,9.1034935817,-0.7202396026000001,-1.3806586402,-0.3274237676741362,-0.2713768820694683,-0.519540885087412,-55.217772581116634,-19.2779888921368,17.05641625255773
1699732594,9.1034935817,-0.7202396026000001,-1.3806586402,-0.12018773561545952,-0.21532999646480042,-0.5752823380729809,-55.01315404852383,-20.096463022508036,17.831043554516224
1699732594,8.9288175319,-0.9798608547,-1.7252250946,-0.12018773561545952,-0.21532999646480042,-0.5752823380729809,-55.40777550423853,-20.53493130663549,18.50336159017831
1699732594,9.427721044,-1.2251251712,-1.7515461432000001,-0.12935071418842975,-0.21609357801254792,-0.5850561818841492,-55.320081847413036,-20.66647179187372,18.50336159017831
1699732594,9.427721044,-1.2251251712,-1.7515461432000001,-0.12935071418842975,-0.21609357801254792,-0.5850561818841492,-55.320081847413036,-20.856474714995617,18.50336159017831
1699732594,10.1874422195,-1.2023933565,-1.4009976323,-0.17852536586336998,-0.239153740754523,-0.5626068843803721,-54.940076001169246,-21.207249342297573,19.00029231218942
1699732594,10.1874422195,-1.2023933565,-1.4009976323,-0.17852536586336998,-0.239153740754523,-0.5626068843803721,-55.670856474714995,-21.207249342297573,18.79567377959661
1699732594,10.7641124661,-0.8458627891,-1.2179467034,0.047342055960346185,-0.24755313777974572,-0.5650503453331642,-55.07161648640748,-21.4264834843613,18.371821104940075
1699732594,10.7641124661,-0.8458627891,-1.2179467034,0.047342055960346185,-0.24755313777974572,-0.5650503453331642,-55.466237942122184,-21.660333235895937,18.971061093247588
1699732594,11.0057875487,-0.49770710079999997,-1.1868400096,0.3449861432723291,-0.22204951408497858,-0.5835290187886543,-55.10084770534931,-21.864951768488748,17.874890382928967
1699732594,11.0057875487,-0.49770710079999997,-1.1868400096,0.3449861432723291,-0.22204951408497858,-0.5835290187886543,-55.58316281788951,-21.791873721134174,18.839520608009355
1699732594,11.1661066629,-0.8865407733,-1.1078768638,0.38805214256528925,-0.10461067204141013,-0.5569563809270405,-55.36392867582578,-21.806489330605086,18.10874013446361
1699732594,11.1661066629,-0.8865407733,-1.1078768638,0.38805214256528925,-0.10461067204141013,-0.5569563809270405,-54.92546039169833,-21.821104940076,18.430283542823737
1699732594,11.9593273548,-1.6929219895,-1.5684952143000002,0.18967365646048376,0.10430523942231112,-0.46303585055409563,-55.276235019000296,-21.894182987430575,18.342589885998244
1699732594,11.9593273548,-1.6929219895,-1.5684952143000002,0.18967365646048376,0.10430523942231112,-0.46303585055409563,-55.1885413621748,-22.08418591055247,18.26951183864367
1699732594,13.1449709531,-2.5088744961000002,-1.0013962581,-0.060781091200702526,0.20616701789183017,-0.2948951937400919,-55.07161648640748,-22.420344928383514,18.254896229172758
1699732594,13.1449709531,-2.5088744961000002,-1.0013962581,-0.060781091200702526,0.20616701789183017,-0.2948951937400919,-55.07161648640748,-22.08418591055247,17.421806489330606
1699732594,12.6747813122,-1.6570296505,0.2524427843,-0.05726861608106394,0.40882156066402175,0.05482515512827187,-55.51008477053493,-22.332651271558024,17.05641625255773
1699732594,12.6747813122,-1.6570296505,0.2524427843,-0.05726861608106394,0.40882156066402175,0.05482515512827187,-55.62700964630225,-21.689564454837768,17.831043554516224
1699732594,13.1892381712,-1.1282158559,-0.044267218100000005,0.1507309975253603,0.8723155601467658,0.38957930566078425,-55.74393452206957,-21.660333235895937,17.421806489330606
1699732594,13.1892381712,-1.1282158559,-0.044267218100000005,0.1507309975253603,0.8723155601467658,0.38957930566078425,-55.466237942122184,-21.35340543700672,16.237942122186492
1699732594,12.430713406999999,-1.5649059803999998,1.0121639598,0.21868975527488949,1.353677367846802,0.6388123228455745,-55.78778135048231,-21.499561531715873,15.287927506577024
1699732594,12.430713406999999,-1.5649059803999998,1.0121639598,0.21868975527488949,1.353677367846802,0.6388123228455745,-56.10932475884244,-20.608009353990063,14.060216311020168
1699732594,10.5714902468,-1.4033904549,1.1150553316,0.44257186507446217,1.968971379021753,0.9439395093254832,-55.90470622624964,-20.19877228880444,13.431745103770828
1699732594,10.5714902468,-1.4033904549,1.1150553316,0.44257186507446217,1.968971379021753,0.9439395093254832,-55.96316866413329,-19.5703010815551,12.394036831335868
1699732594,9.5282195932,0.5084748025,-1.1928220661,1.117577953283269,2.2812762320504887,1.30816790760105,-56.08009353990061,-18.868751826951183,11.414790996784566
1699732594,9.5282195932,0.5084748025,-1.1928220661,1.117577953283269,2.2812762320504887,1.30816790760105,-56.357790119848,-18.459514761765565,11.590178310435546
1699732594,9.4444708022,2.4622144554,-2.8115665549999997,1.3480268643934703,2.0244073993882226,1.5135713439451324,-55.948553054662376,-17.889505992399883,10.932475884244374
1699732594,9.4444708022,2.4622144554,-2.8115665549999997,1.3480268643934703,2.0244073993882226,1.5135713439451324,-55.977784273604215,-17.436422098801522,10.5670856474715
1699732594,10.3561362128,3.6287154729,-2.8307091358,1.0517572238674329,1.4808900537015386,1.434922444527138,-56.10932475884244,-17.041800643086816,9.251680795089156
1699732594,10.3561362128,3.6287154729,-2.8307091358,1.0517572238674329,1.4808900537015386,1.434922444527138,-55.62700964630225,-16.734872844197604,9.602455422391113
1699732594,10.914860289900002,3.5665020853000002,-1.1282158559,0.3657555613710617,1.05878217410671,1.269072532356377,-55.17392575270389,-16.39871382636656,9.792458345513008
1699732594,10.914860289900002,3.5665020853000002,-1.1282158559,-0.23319780468209236,0.932333069799721,1.247234100090798,-55.52470038000584,-15.565624086524407,9.821689564454838
1699732594,10.5367943191,2.2109680824,0.7800601676,-0.23319780468209236,0.932333069799721,1.247234100090798,-55.17392575270389,-15.141771411867873,9.675533469745687
1699732594,10.4315101247,0.4725824635,1.0600204118,-0.4856378643674222,0.8426885960941621,1.1901182003192834,-55.02776965799474,-15.30254311604794,8.681672025723474
1699732594,10.4315101247,0.4725824635,1.0600204118,-0.4856378643674222,0.8426885960941621,1.1901182003192834,-54.896229172756506,-14.17714118678749,8.535515931014324
1699732594,10.497312746199999,-0.9978070242,0.3158525832,-0.46975536817427377,0.7800749091788656,1.1029171875665167,-54.77930429698918,-14.294066062554808,8.243203741596025
1699732594,10.497312746199999,-0.9978070242,0.3158525832,-0.46975536817427377,0.7800749091788656,1.1029171875665167,-54.57468576439638,-14.191756796258403,7.790119847997662
1699732594,10.262816131400001,-1.5469598109,-0.059820565,-0.06475171524898962,0.7220427115500541,1.115134492330477,-54.662379421221864,-13.475591932183573,7.848582285881321
1699732594,10.262816131400001,-1.5469598109,-0.059820565,-0.06475171524898962,0.7220427115500541,1.115134492330477,-55.13007892429115,-13.227126571178019,7.307804735457468
1699732594,9.7172525786,-1.4153545679,-0.227318147,0.539546721638397,0.6369797271309806,1.1837041153182044,-54.58930137386729,-13.358667056416252,7.16164864074832
1699732594,9.7172525786,-1.4153545679,-0.227318147,0.539546721638397,0.6369797271309806,1.1837041153182044,-54.618532592809125,-12.890967553346973,6.240865244080678
1699732594,9.108279226899999,-0.6735795618999999,0.1734796385,1.2101240368702684,0.5647449127140652,1.2373075399700801,-54.91084478222742,-12.291727565039462,6.825489622917276
1699732594,9.108279226899999,-0.6735795618999999,0.1734796385,1.2101240368702684,0.5647449127140652,1.2373075399700801,-54.39929845074539,-12.145571470330314,5.875475007307805
1699732594,8.4203427294,0.3146561719,0.5120640364,1.6847663269501263,0.5137376653245309,1.2495248447340404,-53.87313650979246,-11.780181233557439,5.7731657410114
1699732594,8.4203427294,0.3146561719,0.5120640364,1.6847663269501263,0.5137376653245309,1.2495248447340404,-53.93159894767612,-11.444022215726395,4.7646886875182695
1699732594,7.7802626839,0.1040877831,0.2667997199,1.673770752662562,0.3732386605389874,1.1632401298385708,-53.5223618824905,-10.8593978368898,5.378544285296697
1699732595,7.7802626839,0.1040877831,0.2667997199,1.673770752662562,0.3732386605389874,1.1632401298385708,-53.8146740719088,-10.128617363344052,5.451622332651271
1699732595,7.651050263499999,0.1471585899,0.2584248408,1.6247488172971714,0.20143281229579554,1.0648908264886903,-53.43466822566501,-10.09938614440222,5.553931598947677
1699732595,7.651050263499999,0.1471585899,0.2584248408,1.6247488172971714,0.20143281229579554,1.0648908264886903,-52.96696872259573,-9.865536392867583,5.057000876936568
1699732595,7.7814590952,0.6005984726,0.35892339,1.4404202316709203,-0.00839939702522271,1.04030350065122,-52.8354282373575,-9.5878398129202,5.422391113709442
1699732595,7.7814590952,0.6005984726,0.35892339,1.4404202316709203,-0.00839939702522271,1.04030350065122,-53.24466530254311,-8.798596901490791,5.437006723180357
1699732595,7.8436724828,0.921236701,0.2440679052,1.3070988934342034,-0.2307543437293003,0.8994990632465776,-53.3177433498977,-9.485530546623794,4.983922829581994
1699732595,7.8436724828,0.921236701,0.2440679052,1.3070988934342034,-0.2307543437293003,0.8994990632465776,-52.8354282373575,-8.535515931014324,5.977784273604209
1699732595,6.987041992,1.2598210989,0.49292145559999995,1.3202324960554606,-0.3448334269627797,0.6136141317699064,-52.806197018415666,-8.710903244665303,5.74393452206957
1699732595,6.987041992,1.2598210989,0.49292145559999995,1.3202324960554606,-0.3448334269627797,0.6136141317699064,-52.937737503653906,-9.23706518561824,6.387021338789828
1699732595,6.339783478699999,1.1796615418,1.0899306943,1.2484558305671938,-0.43188172340599684,0.3277292002932352,-53.20081847413037,-8.593978368897984,5.188541362174803
1699732595,6.339783478699999,1.1796615418,1.0899306943,1.2484558305671938,-0.43188172340599684,0.3277292002932352,-52.89389067524116,-8.389359836305173,6.401636948260743
1699732595,6.1639110176,1.411765334,1.6366906583999998,1.0195340825524877,-0.5551237852124464,0.09682214025438543,-52.68927214264835,-8.257819351066939,6.591639871382636
1699732595,6.1639110176,1.411765334,1.6366906583999998,1.0195340825524877,-0.5551237852124464,0.09682214025438543,-53.24466530254311,-8.769365682548964,7.176264250219234
1699732595,7.0863441299,1.0803594039,2.0267207422,0.6105598055789163,-0.7321219879803214,-0.08506298441907365,-52.981584332066646,-8.477053493130663,7.088570593393745
1699732595,7.0863441299,1.0803594039,2.0267207422,0.6105598055789163,-0.7321219879803214,-0.08506298441907365,-52.981584332066646,-8.988599824612686,7.4539608301666185
1699732595,8.7242311996,-0.33140593009999997,2.5316063108,0.5316054735418229,-0.7394523708386975,-0.3046690375512602,-53.083893598363055,-9.32475884244373,7.760888629055832
1699732595,8.7242311996,-0.33140593009999997,2.5316063108,0.5316054735418229,-0.7394523708386975,-0.3046690375512602,-53.28851213095586,-9.295527623501899,8.330897398421515
1699732595,9.7088776995,-1.6677973521999998,3.2123643404999997,0.9268352826559387,-0.6210972309378321,-0.5247332396120952,-53.43466822566501,-9.485530546623794,8.696287635194388
1699732595,9.7088776995,-1.6677973521999998,3.2123643404999997,1.214247377228105,-0.49403726139264487,-0.6058255999828817,-53.785442852966966,-9.368605670856475,8.637825197310727
1699732595,10.6181502875,-3.0556344602,4.1599220901,1.214247377228105,-0.49403726139264487,-0.6058255999828817,-53.8146740719088,-9.529377375036539,7.16164864074832
1699732595,10.6181502875,-3.0556344602,4.366901245,1.25884053961656,-0.2499965987325378,-0.5386304237811,-53.99006138555977,-9.032446653025431,8.097047646886875
1699732595,11.139785614300001,-4.9519463707,4.366901245,1.25884053961656,-0.2499965987325378,-0.5386304237811,-54.18006430868167,-9.368605670856475,8.520900321543408
1699732595,10.942377749799999,-4.42672181,3.1310083721,1.3579534245141882,-0.12186761502050406,-0.30558533540855715,-53.916983338205206,-9.003215434083602,8.491669102601579
1699732595,10.942377749799999,-4.42672181,3.1310083721,1.3579534245141882,-0.12186761502050406,-0.30558533540855715,-54.2092955276235,-9.339374451914646,8.389359836305173
1699732595,9.762716208,-3.780659708,2.7134608283999997,1.1675161865059567,-0.26710082540208224,-0.04138611988791554,-54.26775796550716,-9.090909090909092,9.602455422391113
1699732595,9.762716208,-3.780659708,2.7134608283999997,1.1675161865059567,-0.26710082540208224,-0.04138611988791554,-53.56620871090324,-8.754750073078048,9.12014030985092
1699732595,9.0831545896,-3.3762726886,3.0269205889999995,0.9033169709853152,-0.26374106659199315,0.25717426528136444,-54.09237065185618,-8.140894475299621,9.32475884244373
1699732595,9.0831545896,-3.3762726886,3.0269205889999995,0.9033169709853152,-0.26374106659199315,0.25717426528136444,-53.77082724349606,-7.541654486992108,9.704764688687519
1699732595,9.6897351187,-2.3006989299,2.8259234905999997,0.6997461303558266,-0.2849686336193742,0.2932153143350474,-54.18006430868167,-7.220111078631978,9.894767611809414
1699732595,9.6897351187,-2.3006989299,2.8259234905999997,0.6997461303558266,-0.2849686336193742,0.2932153143350474,-54.516223326512716,-7.088570593393745,10.2747734580532
1699732595,9.564111932200001,-1.9369898947,3.0137600647,0.7309002575039253,-0.3877467099461902,0.09315694882519734,-53.94621455714703,-6.89856767027185,10.68401052323882
1699732595,9.564111932200001,-1.9369898947,3.0137600647,0.7309002575039253,-0.3877467099461902,0.09315694882519734,-53.94621455714703,-6.606255480853552,10.844782227418884
1699732595,8.074579863699999,-2.7146572396999997,1.4105689227,0.5071708640139022,-0.4338670354301404,0.0956004097779894,-53.82928968137971,-6.299327681964338,12.174802689272141
1699732595,8.074579863699999,-2.7146572396999997,1.4105689227,0.5071708640139022,-0.4338670354301404,0.0956004097779894,-53.72698041508331,-5.495469161064016,12.043262204033908
1699732595,9.0532443071,-1.9226329591,-1.2741780345,0.51709742413462,-0.7814493559648111,0.1473712387152712,-53.84390529085062,-4.998538439052909,13.358667056416252
1699732595,9.0532443071,-1.9226329591,-1.2741780345,0.51709742413462,-0.7814493559648111,0.1473712387152712,-53.683133586670564,-4.866997953814674,12.90558316281789
1699732595,15.5342043192,0.16869399329999998,-0.37567314820000003,1.1003210103041752,-0.9665415231388097,-0.05390885727097486,-53.332358959368605,-4.2823735749780765,12.540192926045016
1699732595,15.5342043192,0.16869399329999998,-0.37567314820000003,1.1003210103041752,-0.9665415231388097,-0.05390885727097486,-53.62467114878691,-3.9462145571470333,12.043262204033908
1699732595,18.412769906999998,2.8666014748,4.9088755639,1.9663752017594114,-0.6721044783273664,-0.36010505791773006,-54.03390821397252,-3.5223618824905,11.648640748319206
1699732595,18.412769906999998,2.8666014748,4.9088755639,1.9663752017594114,-0.6721044783273664,-0.36010505791773006,-54.54545454545454,-3.478515054077755,10.640163694826073
1699732595,13.649856521699999,3.9852460403000003,5.3084769381,2.488817696728264,-0.02550362369476714,-0.6504187623713368,-54.91084478222742,-3.1569716457176265,10.8593978368898
1699732595,13.649856521699999,3.9852460403000003,5.3084769381,2.488817696728264,-0.02550362369476714,-0.6504187623713368,-54.7939199064601,-3.010815551008477,11.268634902075418
1699732595,8.578269021,-0.42831524540000004,-1.6235301341000001,0.36865717125250225,0.18509216717399865,-0.15195272800175633,-54.866997953814675,-3.1131248173048816,10.990938322128033
1699732595,8.578269021,-0.42831524540000004,-1.6235301341000001,0.36865717125250225,0.18509216717399865,-0.15195272800175633,-54.88161356328559,-3.040046769950307,10.8593978368898
1699732595,6.4331035601,-1.3663017045999999,-2.0362920326,-1.131475137452274,-0.10430523942231112,-0.07467827536970736,-54.720841859105526,-3.288512130955861,12.43788365974861
1699732595,6.4331035601,-1.3663017045999999,-2.0362920326,-1.131475137452274,-0.10430523942231112,-0.07467827536970736,-55.320081847413036,-3.43466822566501,11.853259280912013
1699732595,5.7128639575,-1.0157531937,-3.3930224468000003,-0.5369505443760555,-0.3854559653029477,-0.5332853529468674,-55.320081847413036,-3.770827243496054,11.502484653610056
1699732595,5.7128639575,-1.0157531937,-3.3930224468000003,-0.5369505443760555,-0.3854559653029477,-0.5332853529468674,-55.23238819058754,-3.6685179771996492,12.028646594562993
1699732595,7.3926254227,-1.8999011444,-5.0907300815,0.7081455273810492,-0.8385652557363256,-0.5679519552146047,-55.217772581116634,-2.981584332066647,11.736334405144696
1699732595,7.3926254227,-1.8999011444,-5.0907300815,0.7081455273810492,-0.8385652557363256,-0.5679519552146047,-54.852382344343766,-2.8792750657702424,10.62554808535516
1699732595,11.023733718199999,-1.9298114269,-4.1862431387,2.0752619304682076,-0.6443101099893567,-0.3975205537573585,-54.940076001169246,-3.054662379421222,10.523238819058754
1699732595,11.023733718199999,-2.2384855423,-0.2165504453,1.8118262964953136,-0.9769262321881761,-0.260992173020102,-54.720841859105526,-3.098509207833967,10.990938322128033
1699732595,12.6735849009,-2.2384855423,-0.2165504453,1.8118262964953136,-0.9769262321881761,-0.260992173020102,-54.998538439052915,-3.2446653025431162,11.5463314820228
1699732595,9.7710910871,-3.4875389395,0.21894326790000002,0.4505131131710363,-0.8206974475190336,-0.11178833859023682,-54.54545454545454,-3.2446653025431162,10.786319789535224
1699732595,9.7710910871,-3.4875389395,0.21894326790000002,0.4505131131710363,-0.8206974475190336,-0.11178833859023682,-54.03390821397252,-3.1277404267757962,11.122478807366267
1699732595,8.7840517646,-1.6941184008,-0.7070790783,0.7055493501187077,-0.30314187445576507,-0.049480084294039245,-53.960830166617946,-3.390821397252265,9.997076878105817
1699732595,8.7840517646,-1.6941184008,-0.7070790783,0.7055493501187077,-0.30314187445576507,-0.049480084294039245,-53.97544577608886,-3.741596024554224,9.23706518561824
1699732595,9.4133641084,1.1018948073,-1.7563317884,1.9457584999702284,-0.15424347264499888,-0.2503020313516368,-53.85852090032154,-4.150833089739843,8.389359836305173
1699732595,9.4133641084,1.1018948073,-1.7563317884,1.9457584999702284,-0.15424347264499888,-0.2503020313516368,-53.90236772873429,-3.873136509792458,7.731657410114002
1699732595,9.5377908836,0.33260234139999995,-2.5914268758000003,2.4101687973102695,-0.14431691252428114,-0.5688682530719018,-53.87313650979246,-4.048523823443437,7.585501315404852
1699732595,9.5377908836,0.33260234139999995,-2.5914268758000003,2.4101687973102695,-0.14431691252428114,-0.5688682530719018,-53.72698041508331,-4.326220403390821,6.810874013446361
1699732595,9.1812603162,-0.7920242806,-2.4981067944,1.9017762028199714,-0.27641652028460195,-0.4043927876870862,-54.296989184449,-4.370067231803566,6.123940368313359
1699732595,9.1812603162,-0.7920242806,-2.4981067944,1.9017762028199714,-0.27641652028460195,-0.4043927876870862,-53.87313650979246,-4.574685764396375,5.787781350482315
1699732595,8.7792661194,-1.0791629926,-1.208375413,1.1319332863809224,-0.33857205827125,-0.18066339419706304,-53.43466822566501,-4.355451622332652,6.153171587255189
1699732595,8.7792661194,-1.0791629926,-1.208375413,1.1319332863809224,-0.33857205827125,-0.18066339419706304,-53.361590178310436,-4.004676995030692,5.4077755042385265
1699732595,9.095118702599999,0.3565305674,-0.5156532703,1.3591751549905842,-0.3581197458935865,-0.06841690667817772,-53.04004676995031,-4.589301373867291,4.662379421221865
1699732595,9.095118702599999,0.3565305674,-0.5156532703,1.3591751549905842,-0.3581197458935865,-0.06841690667817772,-53.21543408360129,-4.501607717041801,4.180064308681672
1699732595,8.9814596291,1.5050854154,-1.5302100526999998,2.3499985713477654,-0.258243279448211,-0.20830504622552323,-53.59543992984508,-4.647763811750949,4.413914060216311
1699732595,8.9814596291,1.5050854154,-1.5302100526999998,2.3499985713477654,-0.258243279448211,-0.20830504622552323,-53.332358959368605,-5.0862320958783975,4.2823735749780765
1699732595,9.4217389875,0.7429714173,-1.9692929998,2.725833409149094,-0.19593502515201341,-0.4150829293555514,-53.30312774042678,-5.422391113709442,2.7331189710610935
1699732595,9.4217389875,0.7429714173,-1.9692929998,2.725833409149094,-0.19593502515201341,-0.4150829293555514,-53.18620286465946,-5.7731657410114,1.4469453376205788
1699732595,9.9684989516,0.1866401628,-1.5900306177,2.483319909584482,-0.2816088748092851,-0.44883323376599177,-53.18620286465946,-5.817012569424145,2.7769657994738384
1699732595,9.9684989516,0.1866401628,-1.5900306177,2.483319909584482,-0.2816088748092851,-0.44883323376599177,-53.42005261619409,-5.7293189125986554,1.826951183864367
1699732595,9.9756774194,-0.3337987527,-1.0265208954,1.9391916986595998,-0.3494149162492648,-0.37552940518222994,-53.2300496930722,-6.78164279450453,0.8184741303712365
1699732595,9.9756774194,-0.3337987527,-1.0265208954,1.9391916986595998,-0.3494149162492648,-0.37552940518222994,-53.24466530254311,-6.313943291435253,0.8769365682548963
1699732595,9.6693961266,-0.5060819799,-1.1904292435000001,1.612531512533211,-0.3689626038716013,-0.32803463291233426,-52.61619409529378,-7.044723764981,0.950014615609471
1699732595,9.6693961266,-0.5060819799,-1.1904292435000001,1.612531512533211,-0.3689626038716013,-0.32803463291233426,-53.04004676995031,-6.737795966091786,0.3215434083601286
1699732595,9.2829552767,0.1926222193,-0.9379864592,1.7273741773144378,-0.37690385196817544,-0.2680171232593792,-52.06080093539901,-6.883952060800935,0.3946214557147033
1699732595,9.2829552767,0.1926222193,-0.9379864592,1.7273741773144378,-0.37690385196817544,-0.2680171232593792,-51.973107278573515,-7.483192049108448,-0.5846243788365975
1699732595,9.2829552767,0.7920242806,0.021535403399999997,1.859626501384308,-0.2461786909938002,-0.24770585408929524,-51.82695118386437,-7.468576439637532,-1.417714118678749
1699732595,9.2829552767,0.7920242806,0.021535403399999997,1.859626501384308,-0.2461786909938002,-0.24770585408929524,-52.09003215434084,-7.483192049108448,-2.1631102016954107
1699732595,9.595218626,0.9631110964999999,-0.6652046827999999,2.1352794401211628,-0.06688974358268268,-0.32391129255449763,-52.148494592224495,-8.184741303712364,-1.7977199649225375
1699732595,9.595218626,0.9631110964999999,-0.6652046827999999,2.099696539996128,0.08200865822808356,-0.44257186507446217,-51.373867290266006,-8.155510084770535,-2.8500438468284126
1699732595,9.7794659662,0.2739781877,-2.1116659445,2.099696539996128,0.08200865822808356,-0.44257186507446217,-51.88541362174802,-8.827828120432622,-3.303127740426776
1699732595,9.7794659662,0.2739781877,-1.9680965885,1.3550518146327475,0.028863382504856226,-0.4095851422117693,-51.81233557439345,-8.593978368897984,-2.762350190002923
1699732595,10.561918956400001,-0.7034898444000001,-1.9680965885,1.3550518146327475,0.028863382504856226,-0.4095851422117693,-52.016954106986255,-9.193218357205495,-3.43466822566501
1699732595,11.00698396,-1.5134602944999997,-0.5563312545,0.6412557837983667,-0.019089538693687978,-0.3164281933865719,-51.417714118678745,-9.23706518561824,-4.063139432914353
1699732595,11.00698396,-1.5134602944999997,-0.5563312545,0.6412557837983667,-0.019089538693687978,-0.3164281933865719,-51.05232388190587,-9.280912014030985,-4.691610640163694
1699732595,10.6384892796,-1.0229316615,0.4534398827,0.795651972752915,0.0555887366760194,-0.24174991801686457,-50.90616778719672,-9.558608593978368,-4.67699503069278
1699732595,10.6384892796,-1.0229316615,0.4534398827,0.795651972752915,0.0555887366760194,-0.24174991801686457,-50.570008769365685,-10.114001753873136,-4.413914060216311
1699732595,9.8799645154,0.179461695,-0.0131605243,1.6226107889634782,0.21395554967885486,-0.24007003861182005,-50.482315112540185,-9.909383221280327,-5.305466237942122
1699732595,9.8799645154,0.179461695,-0.0131605243,1.6226107889634782,0.21395554967885486,-0.24007003861182005,-50.160771704180064,-10.786319789535224,-5.7731657410114
1699732595,10.0474620974,-0.107677017,-1.0731809361,1.9033033659154663,0.29611692421648794,-0.24633140730334968,-49.73691902952353,-10.640163694826073,-6.357790119847998
1699732595,10.0474620974,-0.107677017,-1.0731809361,1.9033033659154663,0.29611692421648794,-0.24633140730334968,-50.32154340836013,-12.028646594562993,-7.527038877521193
1699732595,10.279565889599999,-1.5326028753,-0.7070790783,1.706757475525255,0.28832839242946323,-0.24007003861182005,-49.912306343174514,-11.458637825197311,-7.4539608301666185
1699732595,10.279565889599999,-1.5326028753,-0.7070790783,1.706757475525255,0.28832839242946323,-0.24007003861182005,-49.57614732534347,-12.087109032446651,-8.37474422683426
1699732595,11.0512511781,-1.7910277161,0.3421736318,1.5401439818067464,0.3578143132744875,-0.10873401239924674,-49.10844782227419,-11.72171879567378,-8.827828120432622
1699732595,11.0512511781,-1.7910277161,0.3421736318,1.5401439818067464,0.3578143132744875,-0.10873401239924674,-49.15229465068693,-12.481730488161356,-8.827828120432622
1699732595,12.987044661499999,-0.8458627891,1.8795621523000001,1.3422236446305893,0.6354525640354854,0.1275181184738357,-48.859982461268636,-12.67173341128325,-9.383221280327389
1699732596,12.987044661499999,-0.8458627891,1.8795621523000001,1.3422236446305893,0.6354525640354854,0.1275181184738357,-48.40689856767027,-13.358667056416252,-10.494007600116925
