timestamp,acc-x,acc-y,acc-z,gyr-x,gyr-y,gyr-z,mag-x,mag-y,mag-z
1699733607,9.607182739,1.9513468303000001,0.7022934331,-1.1096367051866949,0.38453966744565066,0.5193881687778625,-70.82724349605378,-21.923414206372406,-0.029231218941829874
1699733607,9.607182739,1.9513468303000001,0.7022934331,-1.1096367051866949,0.38453966744565066,0.5193881687778625,-70.60800935399007,-21.54340836012862,-0.7600116924875767
1699733607,9.3475614869,0.9547362173999999,1.2526426310999998,-1.3457361197502278,0.21227567027381034,0.558330827712986,-70.16954106986262,-20.944168371821103,-1.0815551008477053
1699733607,9.3475614869,0.9547362173999999,1.2526426310999998,-1.3457361197502278,0.21227567027381034,0.558330827712986,-69.90646009938615,-20.856474714995617,-0.8769365682548963
1699733607,9.2267239456,0.41156548719999997,1.4021940436,-1.2823588512871835,0.14004085585689502,0.5926919973616244,-70.14030985092077,-20.06723180356621,-0.3946214557147033
1699733607,9.2267239456,0.41156548719999997,1.4021940436,-1.2823588512871835,0.14004085585689502,0.5926919973616244,-70.30108155510085,-19.292604501607716,-0.8330897398421515
1699733607,9.096315113900001,-0.0382851616,0.8769694829,-1.1649200092436154,0.09804387073078145,0.6137668480794559,-70.56416252557732,-19.234142063724057,-0.6577024261911721
1699733607,9.096315113900001,-0.0382851616,0.8769694829,-1.1649200092436154,0.09804387073078145,0.6137668480794559,-69.55568547208418,-19.044139140602162,-0.35077462730195846
1699733607,9.1908316066,-0.21415762270000002,1.1688938401,-1.055422415296621,-0.028099800957108706,0.6618724855875496,-69.70184156679333,-17.977199649225373,0.33615901783104357
1699733607,9.1908316066,-0.21415762270000002,1.1688938401,-1.055422415296621,-0.1430951820478851,0.712268867738886,-69.6726103478515,-17.831043554516224,1.0523238819058756
1699733607,9.4289174553,0.0263210486,1.938186306,-0.8904888009831569,-0.1430951820478851,0.712268867738886,-69.33645133002047,-17.538731365097927,1.2130955860859398
1699733607,9.4289174553,0.0263210486,1.938186306,-0.6443101099893567,-0.16111570657472654,0.719599250597262,-69.62876351943876,-16.691026015784857,1.4615609470914936
1699733607,9.767501853199999,0.2440679052,2.1248264688,-0.6443101099893567,-0.16111570657472654,0.719599250597262,-69.30722011107862,-16.471791873721134,0.7015492546039169
1699733607,9.767501853199999,0.41754754369999997,1.8101702968999998,-0.32482759041179465,-0.09224065096790032,0.6678284216599804,-69.13183279742765,-16.384098216895644,0.7307804735457468
1699733607,9.937392257800001,0.41754754369999997,1.8101702968999998,-0.32482759041179465,-0.09224065096790032,0.6678284216599804,-69.90646009938615,-16.03332358959369,1.0377082724349607
1699733607,10.0235338714,0.6640082715,1.5780665047,0.040622538340168025,0.018020524526841452,0.5728388771201889,-68.95644548377668,-15.726395790704473,0.1169248757673195
1699733607,10.0235338714,0.6640082715,1.5780665047,0.040622538340168025,0.018020524526841452,0.5728388771201889,-68.57643963753289,-15.50716164864075,1.0523238819058756
1699733607,9.923035322199999,1.052841944,1.4344971487,0.279470846475592,0.1113301896615883,0.47067166603157085,-69.05875475007308,-15.171002630809705,0.45308389359836304
1699733607,9.923035322199999,1.052841944,1.4344971487,0.279470846475592,0.1113301896615883,0.47067166603157085,-69.21952645425314,-14.92253726980415,-0.05846243788365975
1699733607,9.3607220112,1.1114660977,1.5266208188,0.3159700444579235,0.13301590561761784,0.32696561874548774,-68.5910552470038,-15.083308973984217,0.3653902367728734
1699733607,9.3607220112,1.1114660977,1.5266208188,0.3159700444579235,0.13301590561761784,0.32696561874548774,-68.85413621748026,-14.659456299327683,-0.3069277988892137
1699733607,8.872586200799999,1.2634103328,1.6414763036,0.2848159173098247,0.08857545953871222,0.17043140145724628,-69.10260157848582,-14.937152879275065,-0.8477053493130663
1699733607,8.872586200799999,1.2634103328,1.6414763036,0.2848159173098247,0.08857545953871222,0.17043140145724628,-68.38643671441099,-14.820228003507745,-1.3154048523823443
1699733607,8.6093757148,1.4057832774999999,1.7838492483,0.08811731061006371,-0.019394971312786988,0.03268129024359382,-68.47413037123648,-14.469453376205788,-0.7600116924875767
1699733607,8.6093757148,1.4057832774999999,1.7838492483,0.08811731061006371,-0.019394971312786988,0.03268129024359382,-69.11721718795674,-14.498684595147617,-0.40923706518561825
1699733607,8.9204426528,0.6089733517,1.9357934834,-0.20662516682047868,-0.1395827069282465,-0.0873537290623162,-68.81028938906752,-14.776381175095002,-0.29231218941829873
1699733607,8.9204426528,0.6089733517,1.9357934834,-0.20662516682047868,-0.1395827069282465,-0.0873537290623162,-68.69336451330021,-15.258696287635196,-0.1607717041800643
1699733607,9.1860459614,-0.2201396792,1.9549360641999998,-0.2762638039750524,-0.13332133823671685,-0.18173240836390955,-68.69336451330021,-15.27331189710611,0.5261619409529378
1699733607,8.9575314031,-0.8650053699,1.8245272325,-0.22388210979957263,-0.047342055960346185,-0.2464841236128992,-68.79567377959661,-14.92253726980415,-0.04384682841274481
1699733607,8.9575314031,-0.8650053699,1.8245272325,-0.15775594776463747,0.002596177262341565,-0.24740042147019622,-68.72259573224203,-15.741011400175386,0.19000292312189418
1699733607,8.4430745441,-0.9272187574999999,1.7024932798999999,-0.15775594776463747,0.002596177262341565,-0.24740042147019622,-68.57643963753289,-16.19409529377375,0.43846828412744815
1699733607,8.5208412786,-1.2047861791,1.8340985228999998,-0.06230825429619756,-0.014660765716752368,-0.26129760563920107,-68.64951768488746,-15.81408944752996,-0.17538731365097923
1699733607,8.5208412786,-1.2047861791,1.8340985228999998,-0.06230825429619756,-0.019700403931885994,-0.277943683380097,-68.83952060800935,-15.974861151710027,-0.20461853259280913
1699733607,8.846265152199999,-0.9966106129000001,1.8891334427000002,0.19211711741327583,-0.019700403931885994,-0.277943683380097,-68.86875182695118,-15.98947676118094,-1.0669394913767904
1699733607,8.9192462415,-1.2227323486,1.8197415872999998,0.2823724563570326,-0.050243665841786765,-0.24556782575560218,-68.85413621748026,-16.179479684302837,-0.7746273019584917
1699733607,8.9192462415,-1.2227323486,1.8197415872999998,0.2823724563570326,-0.050243665841786765,-0.24556782575560218,-68.60567085647472,-16.647179187372114,-0.8184741303712365
1699733607,8.7110706753,-1.5302100526999998,1.5732808595,0.2864957967148692,-0.08659014751456867,-0.17730363538697394,-68.69336451330021,-16.57410114001754,-0.8915521777258111
1699733607,8.7110706753,-1.5302100526999998,1.5732808595,0.2864957967148692,-0.08659014751456867,-0.17730363538697394,-68.72259573224203,-15.974861151710027,-1.7977199649225375
1699733607,8.4969130526,-1.4679966650999998,1.4009976323,0.2901609881440573,-0.1230893454969001,-0.08277223977583108,-68.64951768488746,-16.19409529377375,-1.2130955860859398
1699733607,8.4969130526,-1.4679966650999998,1.4009976323,0.2901609881440573,-0.1230893454969001,-0.08277223977583108,-68.47413037123648,-16.48640748319205,-0.8330897398421515
1699733607,8.458627890999999,-1.2765708571,1.4739787216,0.2863430804053197,-0.21273381920245885,-0.029321531433504737,-68.51797719964922,-15.857936275942707,-0.8915521777258111
1699733607,8.458627890999999,-1.2765708571,1.4739787216,0.2863430804053197,-0.21273381920245885,-0.029321531433504737,-68.2987430575855,-16.237942122186492,-0.482315112540193
1699733607,8.9994057986,-1.2263215825,1.8472590472,0.2984076688597305,-0.3347541505325124,-0.03252857393404432,-68.7810581701257,-16.0479391990646,-1.417714118678749
1699733607,8.9994057986,-1.2263215825,1.8472590472,0.2984076688597305,-0.3347541505325124,-0.03252857393404432,-68.94182987430575,-16.208710903244665,-0.5261619409529378
1699733607,9.4707918508,-1.1198409768,2.4801606249,0.37904188030186853,-0.38835757518438824,-0.06612616203493515,-68.98567670271851,-16.384098216895644,-0.5261619409529378
1699733607,9.4707918508,-1.1198409768,2.4801606249,0.37904188030186853,-0.38835757518438824,-0.06612616203493515,-68.57643963753289,-16.807950891552178,0.1169248757673195
1699733607,9.5054877785,-0.7860422241,2.9216363945999997,0.4627304179349966,-0.3515529445829578,-0.12415835966374661,-68.13797135340543,-16.515638702133877,0.24846536100555394
1699733607,9.5054877785,-0.7860422241,2.9216363945999997,0.4627304179349966,-0.3515529445829578,-0.12415835966374661,-68.43028354282373,-16.676410406313945,-0.19000292312189418
1699733607,9.4013999954,-0.34576286570000003,3.062812928,0.4691445029360758,-0.31581732814837393,-0.21288653551200834,-68.47413037123648,-17.261034785150542,-0.029231218941829874
1699733607,9.4013999954,-0.34576286570000003,3.062812928,0.4691445029360758,-0.32543845564999263,-0.3159700444579235,-68.50336159017832,-16.895644548377668,0.3653902367728734
1699733607,9.2255275343,0.4414757697,2.6967110702,0.36407568196601714,-0.32543845564999263,-0.3159700444579235,-68.73721134171295,-17.246419175679627,-0.7307804735457468
1699733607,9.2255275343,0.4414757697,2.6967110702,0.13744467859455345,-0.496786154964536,-0.40561451816348215,-68.83952060800935,-17.58257819351067,-0.40923706518561825
1699733607,11.0476619442,1.6366906583999998,1.6307086019,0.13744467859455345,-0.496786154964536,-0.40561451816348215,-68.60567085647472,-17.334112832505117,0.8038585209003215
1699733607,11.0476619442,1.6366906583999998,1.6307086019,-0.11209377120933582,-0.7041749033327621,-0.536797828066506,-68.51797719964922,-18.225665010230927,1.2130955860859398
1699733607,12.6687992557,2.1738793321000003,1.6618152957,-0.11209377120933582,-0.7041749033327621,-0.536797828066506,-68.79567377959661,-18.67874890382929,1.4469453376205788
1699733607,12.1758778001,0.9583254512999999,1.9130616687,-0.1673770752662562,-0.6378960249882775,-0.6157521601035995,-68.21104940076002,-18.73721134171295,2.2215726395790703
1699733607,12.1758778001,0.9583254512999999,1.9130616687,-0.1673770752662562,-0.6378960249882775,-0.6157521601035995,-68.48874598070739,-18.971061093247588,2.6308097047646886
1699733607,11.928220661,-0.0753739119,2.2301106632,0.23029619480065178,-0.5439754946153327,-0.4694499355551748,-68.91259865536394,-19.321835720549547,2.762350190002923
1699733607,11.928220661,-0.0753739119,2.2301106632,0.23029619480065178,-0.5439754946153327,-0.4694499355551748,-69.073370359544,-18.85413621748027,1.9731072785735166
1699733607,11.655438884599999,-1.8317057003,2.0650059038,0.6556111168960199,-0.3816380575642101,-0.30283644183666614,-69.08798596901491,-18.868751826951183,2.7038877521192632
1699733607,11.655438884599999,-1.8317057003,2.0650059038,0.6556111168960199,-0.3816380575642101,-0.30283644183666614,-68.69336451330021,-18.82490499853844,2.7769657994738384
1699733607,11.796615418,-3.2027930501,-0.0646062102,0.7157813428585245,-0.3711006322052943,0.045356743936202634,-68.4010523238819,-18.196433791289095,2.747734580532008
1699733607,11.796615418,-3.2027930501,-0.0646062102,0.7157813428585245,-0.3711006322052943,0.045356743936202634,-68.25489622917276,-18.079508915521778,2.762350190002923
1699733607,10.2065848003,-1.0947163395,-0.1136590735,0.2907718533822553,-0.40408735506798715,0.32436944148314617,-67.72873428821981,-17.96258403975446,2.8792750657702424
1699733607,10.2065848003,-1.0947163395,-0.1136590735,0.2907718533822553,-0.40408735506798715,0.32436944148314617,-68.03566208710903,-17.801812335574393,2.6892721426483486
1699733607,8.0087772422,2.5100709074,0.39361931769999997,0.010231992739816757,-0.3356704483898095,0.25747969790046343,-67.96258403975446,-17.64104063139433,2.820812627886583
1699733607,8.0087772422,2.5100709074,0.39361931769999997,0.010231992739816757,-0.3356704483898095,0.25747969790046343,-67.8018123355744,-17.81642794504531,3.1277404267757962
1699733607,7.4105715922,4.6803610056,0.7501498851,-0.010537425358915765,-0.3152064629101759,0.011301006906663283,-68.03566208710903,-17.684887459807076,4.092370651856182
1699733607,7.4105715922,4.6803610056,0.7501498851,-0.010537425358915765,-0.3152064629101759,0.011301006906663283,-67.699503069278,-18.079508915521778,3.9023677287342884
1699733607,7.3447689707,5.204389154999999,0.8721838377000001,0.2299907621815528,-0.22113321622768156,-0.2464841236128992,-67.699503069278,-18.225665010230927,3.332358959368606
1699733607,7.3447689707,5.204389154999999,0.8721838377000001,0.3233004273162996,-0.2516764781375823,-0.2953533426687404,-67.4218064893306,-18.73721134171295,3.800058462437884
1699733607,8.2109707519,4.713860522,0.430708068,0.3233004273162996,-0.2516764781375823,-0.2953533426687404,-67.34872844197604,-18.488745980707396,4.501607717041801
1699733607,8.2109707519,4.713860522,0.430708068,0.08261952346628157,-0.4807509424618381,-0.34132095184314104,-67.31949722303419,-18.810289389067524,4.574685764396375
1699733607,9.5521478192,3.2614172038,-0.33499516399999996,0.08261952346628157,-0.4807509424618381,-0.34132095184314104,-67.49488453668519,-18.591055247003798,4.6039169833382045
1699733607,9.5521478192,3.2614172038,-1.4715858990000001,-0.40637809971122973,-0.6548475353482724,-0.47907106305679353,-67.53873136509793,-19.365682548962294,5.4077755042385265
1699733607,10.3800644388,1.2586246876,-1.4715858990000001,-0.40637809971122973,-0.6548475353482724,-0.47907106305679353,-67.43642209880151,-19.921075708857057,5.173925752703887
1699733607,10.478170165399998,-0.4725824635,-2.5040888509,-0.8167268234707465,-0.579252962121268,-0.5030475236560656,-67.699503069278,-19.672610347851503,5.524700380005846
1699733607,10.478170165399998,-0.4725824635,-2.5040888509,-0.8167268234707465,-0.579252962121268,-0.5030475236560656,-70.88570593393744,-19.584916691026017,6.503946214557146
1699733607,10.2364950828,-1.0001998468,-2.5734807063,-0.8949175739600924,-0.48823404162976375,-0.3691153201811508,-67.12949429991231,-19.847997661502482,6.547793042969892
1699733607,10.2364950828,-1.0001998468,-2.5734807063,-0.8949175739600924,-0.48823404162976375,-0.3691153201811508,-66.7348728441976,-19.818766442560655,6.313943291435253
1699733607,9.9972128228,-0.4701896409,-1.7527425545,-0.8672759219316323,-0.6142249970081045,-0.16172657181292455,-66.91026015784858,-19.643379128909675,7.293189125986553
1699733607,9.9972128228,-0.4701896409,-1.7527425545,-0.8672759219316323,-0.6142249970081045,-0.16172657181292455,-66.54486992107572,-19.102601578485825,8.038585209003216
1699733607,9.8069834261,0.95712904,-0.5886343596,-0.5728388771201889,-0.694401059521594,0.04337143191205909,-66.77871967261034,-19.45337620578778,7.6585793627594265
1699733607,9.8069834261,0.95712904,-0.5886343596,-0.5728388771201889,-0.694401059521594,0.04337143191205909,-66.67641040631395,-19.760304004676996,8.19935691318328
1699733607,9.5485585853,1.1940184774,-0.5491527867,-0.17562375598192942,-0.5821545720027086,0.018478673455489966,-66.64717918737212,-19.467991815258696,8.652440806781643
1699733607,9.5485585853,1.1940184774,-0.5491527867,-0.17562375598192942,-0.5821545720027086,0.018478673455489966,-66.79333528208127,-19.30722011107863,8.710903244665303
1699733607,9.5425765288,0.7513462964000001,-1.1461620254,0.07712173632249944,-0.44700063805139767,-0.015729779883598895,-66.53025431160479,-19.74568839520608,9.163987138263666
1699733607,9.5425765288,0.7513462964000001,-1.1461620254,0.07712173632249944,-0.44700063805139767,-0.015729779883598895,-66.28178895059924,-19.614147909967848,9.456299327681965
1699733607,9.522237536699999,1.0277173067,-1.1545369045,0.09773843811168245,-0.38713584470799217,0.05742133239061344,-66.42794504530839,-19.59953230049693,9.26629640456007
1699733608,9.522237536699999,1.0277173067,-1.1545369045,0.09773843811168245,-0.38713584470799217,0.05742133239061344,-66.26717334112833,-19.584916691026017,8.827828120432622
1699733608,9.6107719729,1.6833506991,-0.7621139981,-0.04108068726881653,-0.4211915817375316,0.1389718416900485,-66.32563577901198,-19.541069862613274,9.690149079216603
1699733608,9.6107719729,1.6833506991,-0.7621139981,-0.04108068726881653,-0.4211915817375316,0.1389718416900485,-65.82870505700087,-19.058754750073078,10.552470038000585
1699733608,9.3152583818,2.0614166699,-0.5276173833,-0.23991732230227053,-0.4204280001897841,0.17363844395778588,-66.150248465361,-18.79567377959661,10.698626132709734
1699733608,9.3152583818,2.0614166699,-0.5276173833,-0.23991732230227053,-0.4204280001897841,0.17363844395778588,-66.0479391990646,-19.08798596901491,9.733995907629348
1699733608,9.1130648721,2.0207386857,-0.8638089586000001,-0.35842517851268546,-0.29718593838333446,0.13469578502266238,-65.63870213387898,-18.73721134171295,9.850920783396667
1699733608,9.1130648721,2.0207386857,-0.8638089586000001,-0.41386119887915535,-0.22968532956245377,0.0319177086958463,-65.60947091493715,-18.693364513300203,10.377082724349606
1699733608,9.1034935817,1.6175480776,-1.4859428346,-0.41386119887915535,-0.22968532956245377,0.0319177086958463,-65.56562408652441,-19.131832797427652,9.543992984507454
1699733608,9.037690960199999,1.004985492,-1.8257236438,-0.5703954161673968,-0.2750420734986564,-0.012980886311707827,-65.463314820228,-19.526454253142354,11.049400760011691
1699733608,9.037690960199999,1.004985492,-1.8257236438,-0.5703954161673968,-0.2750420734986564,-0.012980886311707827,-65.91639871382637,-19.161064016369483,10.71324174218065
1699733608,9.2279203569,1.0516455327,-1.8472590472,-0.6013968270059462,-0.3078760800517997,-0.006414085001079161,-65.8579362759427,-19.234142063724057,11.064016369482607
1699733608,9.2279203569,1.0516455327,-1.8472590472,-0.6013968270059462,-0.3078760800517997,-0.006414085001079161,-65.78485822858812,-19.424144986845953,11.385559777842737
1699733608,9.5904329808,1.6319050132,-1.55533469,-0.5372559769951545,-0.32162054791125505,0.008857545953871221,-65.56562408652441,-19.234142063724057,11.370944168371821
1699733608,9.5904329808,1.6319050132,-1.55533469,-0.5372559769951545,-0.32162054791125505,0.008857545953871221,-65.39023677287344,-19.5703010815551,12.35019000292312
1699733608,9.9517491934,1.9657037659,-1.2634103328,-0.5299255941367783,-0.35689801541719046,-0.026878070480712675,-65.56562408652441,-18.62028646594563,11.765565624086523
1699733608,9.9517491934,1.9657037659,-1.2634103328,-0.5299255941367783,-0.35689801541719046,-0.026878070480712675,-65.05407775504239,-19.08798596901491,11.31248173048816
1699733608,9.964909717700001,1.7982061838999999,-1.0935199281999999,-0.54168474997209,-0.35796702958403703,-0.1154535300194249,-65.56562408652441,-19.65799473838059,11.970184156679334
1699733608,9.964909717700001,1.7982061838999999,-1.0935199281999999,-0.54168474997209,-0.35796702958403703,-0.1154535300194249,-65.74101140017538,-19.336451330020463,11.619409529377375
1699733608,9.7962157244,1.2957134379000002,-1.1617153723,-0.5697845509291989,-0.3152064629101759,-0.19822576979525597,-65.47793042969892,-19.950306927798888,11.531715872551885
1699733608,9.7962157244,1.2957134379000002,-1.1617153723,-0.5697845509291989,-0.3152064629101759,-0.19822576979525597,-65.17100263080971,-19.8626132709734,11.60479391990646
1699733608,9.7112705221,0.9367900479,-1.3256237203999999,-0.6160575927226984,-0.2910772860013543,-0.2423607832550626,-64.84945922244958,-19.774919614147908,11.429406606255482
1699733608,9.7112705221,0.9367900479,-1.3256237203999999,-0.6160575927226984,-0.2910772860013543,-0.2423607832550626,-65.2586962876352,-19.906460099386145,13.285589009061678
1699733608,9.7651090306,0.7142575461,-1.4440684390999998,-0.7079928110714997,-0.2803871443328891,-0.25014931504208726,-65.31715872551885,-21.207249342297573,13.124817304881613
1699733608,9.7651090306,0.7142575461,-1.4440684390999998,-0.7079928110714997,-0.2803871443328891,-0.25014931504208726,-65.15638702133879,-20.52031569716457,13.110201695410698
1699733608,9.6478607232,0.5192425042,-1.3842478741,-0.7994698804916526,-0.30283644183666614,-0.239153740754523,-65.28792750657702,-20.69570301081555,14.133294358374746
1699733608,9.6478607232,0.5192425042,-1.3842478741,-0.7994698804916526,-0.30283644183666614,-0.239153740754523,-64.83484361297866,-21.061093247588424,13.577901198479978
1699733608,9.5377908836,0.5072783912000001,-1.1545369045,-0.8365799437121819,-0.32711833505503723,-0.2067778831300282,-64.83484361297866,-21.07570885705934,14.074831920491086
1699733608,9.5377908836,0.5072783912000001,-1.1545369045,-0.8365799437121819,-0.32711833505503723,-0.2067778831300282,-65.02484653610055,-21.01724641917568,14.454837766734874
1699733608,9.5210411254,0.6771687957999999,-1.0301101293000001,-0.8026769229921922,-0.3129157182669334,-0.1792889474111175,-64.92253726980415,-21.061093247588424,14.513300204618531
1699733608,9.5210411254,0.6771687957999999,-1.0301101293000001,-0.8026769229921922,-0.3129157182669334,-0.1792889474111175,-65.0686933645133,-21.33878982753581,13.987138263665594
1699733608,9.385846648500001,0.8422735552,-1.0109675485,-0.7260133355983411,-0.2738203430222604,-0.18173240836390955,-64.76176556562409,-21.36802104647764,15.448699210757088
1699733608,9.385846648500001,0.8422735552,-1.0109675485,-0.7260133355983411,-0.2738203430222604,-0.21991148575128552,-64.76176556562409,-22.157263957907045,15.492546039169833
1699733608,9.5138626576,0.921236701,-1.2490533972,-0.6655376770167377,-0.23014347849110228,-0.21991148575128552,-64.87869044139141,-22.639579070447237,15.565624086524407
1699733608,9.5138626576,0.921236701,-1.2490533972,-0.6986771161889801,-0.2189951878939885,-0.26419921552064163,-64.84945922244958,-22.566501023092663,15.755627009646304
1699733608,9.5772724565,0.9020941202,-1.4560325521,-0.6986771161889801,-0.2189951878939885,-0.26419921552064163,-64.64484068985676,-22.946506869336453,16.121017246419175
1699733608,9.5772724565,0.9020941202,-1.4560325521,-0.7820602212030092,-0.2429716484932606,-0.31581732814837393,-64.73253434668226,-22.639579070447237,15.843320666471792
1699733608,9.495916488099999,0.7130611348,-1.4536397294999999,-0.7820602212030092,-0.2429716484932606,-0.31581732814837393,-65.08330897398422,-23.3849751534639,15.974861151710027
1699733608,9.5605226983,0.5838487144,-1.2705888006,-0.8092437243028209,-0.2756529387368544,-0.3578143132744875,-64.82022800350775,-23.341128325051155,16.705641625255772
1699733608,9.5605226983,0.5838487144,-1.2705888006,-0.8092437243028209,-0.2756529387368544,-0.3578143132744875,-64.58637825197312,-23.311897106109324,15.872551885413621
1699733608,9.5066841898,0.5922235935,-0.981057266,-0.7904596182282319,-0.28512134992892363,-0.36239580256097265,-64.65945629932767,-23.706518561824026,16.60333235895937
1699733608,9.5066841898,0.5922235935,-0.981057266,-0.7904596182282319,-0.28512134992892363,-0.36239580256097265,-64.64484068985676,-23.61882490499854,16.983338205203157
1699733608,9.1992064857,0.44985064880000003,-1.0001998468,-0.7318165553612224,-0.2643519318301911,-0.35674529910764097,-64.49868459514761,-23.95498392282958,16.997953814674073
1699733608,9.1992064857,0.44985064880000003,-1.0001998468,-0.7318165553612224,-0.2643519318301911,-0.35674529910764097,-64.93715287927506,-24.437299035369776,17.0271850336159
1699733608,9.4851487864,0.12442677519999999,-1.3148560187,-0.6863070951154702,-0.2270891523001122,-0.36545012875196264,-64.42560654779305,-24.42268342589886,16.734872844197604
1699733608,9.4851487864,0.12442677519999999,-1.3148560187,-0.6863070951154702,-0.2270891523001122,-0.36545012875196264,-64.36714410990938,-24.70038000584624,17.6118094124525
1699733608,9.762716208,0.08614161359999999,-1.3591232368,-0.6710354641605198,-0.25244005968532984,-0.3422372497004381,-64.44022215726396,-24.788073662671735,16.9248757673195
1699733608,9.762716208,0.08614161359999999,-1.3591232368,-0.6710354641605198,-0.25244005968532984,-0.3422372497004381,-64.00175387313651,-24.96346097632271,17.55334697456884
1699733608,9.726823869,0.5060819799,-1.0025926694,-0.6490443155853913,-0.2707660168312703,-0.2977968036215325,-63.75328851213096,-25.241157556270092,16.9248757673195
1699733608,9.726823869,0.5060819799,-1.0025926694,-0.6490443155853913,-0.2707660168312703,-0.2977968036215325,-64.23560362467114,-25.460391698333822,17.699503069277988
1699733608,9.5736832226,1.1114660977,-0.8039883936,-0.6226243940333271,-0.21013764194011728,-0.24159720170731505,-63.5048231511254,-25.665010230926626,17.217187956737796
1699733608,9.5736832226,1.1114660977,-0.8039883936,-0.6226243940333271,-0.21013764194011728,-0.24159720170731505,-63.519438760596316,-25.986553639286758,17.509500146156096
1699733608,9.5904329808,1.3842478741,-1.2430713407,-0.5881105080751392,-0.08185594191853406,-0.218842471584439,-63.943291435252846,-25.94270681087401,17.275650394621454
1699733608,9.5904329808,1.3842478741,-1.2430713407,-0.5881105080751392,-0.08185594191853406,-0.24846943563704274,-63.621748026892725,-26.030400467699504,18.664133294358376
1699733608,10.2843515348,1.0313065406,-2.0362920326,-0.6615670529684506,0.022449297503777062,-0.24846943563704274,-63.73867290266004,-26.074247296112247,16.954106986261326
1699733608,10.2843515348,1.0313065406,-2.0362920326,-0.8788823614573946,0.003817907738737596,-0.25335635754262686,-63.57790119847998,-26.454253142356038,17.129494299912306
1699733608,11.5393869885,0.2691925425,-2.4705893345,-0.8788823614573946,0.003817907738737596,-0.25335635754262686,-63.0078924291143,-26.001169248757673,17.46565331774335
1699733608,11.5393869885,0.2691925425,-2.4705893345,-0.8981246164606321,-0.09804387073078145,-0.1275181184738357,-63.534054370067224,-26.483484361297865,17.14410990938322
1699733608,11.410174568099999,0.251246373,-1.8975083218,-0.8981246164606321,-0.09804387073078145,-0.1275181184738357,-63.490207541654485,-27.02426191172172,17.34872844197603
1699733608,11.410174568099999,0.8590233134,-1.1449656141,-0.6281221811771094,-0.09071348787240527,0.03481931857728687,-63.27097339959076,-26.585793627594274,17.72873428821982
1699733608,11.736794853,0.8590233134,-1.1449656141,-0.6281221811771094,-0.09071348787240527,0.03481931857728687,-62.964045600701546,-26.571178018123355,17.304881613563285
1699733608,11.8396862248,1.2538390423999999,-0.8195417405,-0.36422839827556663,0.05818491393836096,0.10690141668465268,-62.554808535515924,-26.688102893890676,17.480268927214265
1699733608,11.8396862248,1.2538390423999999,-0.8195417405,-0.36422839827556663,0.05818491393836096,0.10690141668465268,-62.59865536392868,-26.9073370359544,16.60333235895937
1699733608,11.8767749751,0.8279166196,-0.9547362173999999,-0.2306016274197508,0.3255911719595422,0.07910704834664298,-62.39403683133587,-26.55656240865244,16.93949137679041
1699733608,11.8767749751,0.8279166196,-0.9547362173999999,-0.2306016274197508,0.3255911719595422,0.07910704834664298,-62.540192926045016,-26.264250219234142,16.676410406313945
1699733608,11.9832555808,0.5778666579,-0.8147560952999999,-0.22556198920461717,0.4550946024575214,0.0675006088208807,-62.890967553346975,-25.84039754457761,16.354866997953817
1699733608,11.9832555808,0.5778666579,-0.8147560952999999,-0.22556198920461717,0.4550946024575214,0.0675006088208807,-62.62788658287051,-26.790412160187078,16.03332358959369
1699733608,10.8717894831,1.1150553316,0.2081755662,-0.3643811145851162,0.4717406801984173,0.18570303241219668,-62.26249634609763,-25.75270388775212,16.60333235895937
1699733608,10.8717894831,1.1150553316,0.2081755662,-0.3643811145851162,0.4717406801984173,0.18570303241219668,-62.11634025138848,-26.074247296112247,14.674071908798597
1699733608,9.732805925500001,1.4775679554999999,1.0145567824000001,-0.5106833391335408,0.6081163446261243,0.31535917921972545,-61.89710610932476,-25.665010230926626,14.820228003507745
1699733608,9.732805925500001,1.4775679554999999,1.0145567824000001,-0.5106833391335408,0.6081163446261243,0.31535917921972545,-62.58403975445776,-25.065770242619116,13.987138263665594
1699733608,8.9144605963,1.6438691261999998,0.9475577495999999,-0.46761733984058074,0.9268352826559387,0.37155878113394286,-62.20403390821397,-25.299619994153755,12.467114878690442
1699733608,8.9144605963,1.6438691261999998,0.9475577495999999,-0.46761733984058074,0.9268352826559387,0.37155878113394286,-61.94095293773751,-25.3434668225665,11.867874890382929
1699733608,8.3078800672,1.9441683625,0.753739119,-0.4999931974650756,1.2139419446090058,0.4331034538823929,-62.07249342297574,-25.285004384682843,11.51710026308097
1699733608,8.3078800672,1.9441683625,0.753739119,-0.4999931974650756,1.2139419446090058,0.4331034538823929,-62.3209587839813,-24.27652733118971,11.137094416837181
1699733608,7.7659057483,2.4454646972,0.7166503687,-0.7667885902480588,1.3591751549905842,0.5575672461652385,-61.94095293773751,-24.495761473253435,10.435545162233264
1699733608,7.7659057483,2.4454646972,0.7166503687,-0.9873109412375424,1.3410019141541931,0.7031058891659157,-62.21864951768489,-24.27652733118971,10.157848582285881
1699733608,7.9226356286,2.7218357075,0.1292124204,-0.9873109412375424,1.3410019141541931,0.7031058891659157,-62.07249342297574,-23.662671733411283,9.704764688687519
1699733608,7.9226356286,2.7218357075,0.1292124204,-0.8982773327701816,1.1223121588793035,0.7979427173961575,-61.312481730488166,-23.03420052616194,9.076293481438176
1699733608,8.805587167999999,2.5459632464,-0.6472585133,-0.8982773327701816,1.1223121588793035,0.7979427173961575,-61.69248757673195,-22.62496346097632,8.623209587839813
1699733608,8.805587167999999,2.5459632464,-0.6472585133,-0.6824891873767326,0.9033169709853152,0.7829765190603062,-61.56094709149371,-22.668810289389068,8.447822274188834
1699733608,9.564111932200001,2.6524438520999998,-0.8542376682,-0.6824891873767326,0.9033169709853152,0.7829765190603062,-61.16632563577902,-22.4057293189126,8.842443729903538
1699733608,10.0414800409,3.1369904286000003,-0.41874395499999995,-0.6533203722527774,0.7250970377410443,0.7585419095323855,-61.37094416837182,-21.938029815843322,8.667056416252558
1699733608,10.0414800409,3.1369904286000003,-0.41874395499999995,-0.6533203722527774,0.7250970377410443,0.7585419095323855,-61.28325051154633,-20.944168371821103,8.944752996199941
1699733608,10.2676017766,2.9802605483,0.5718846014,-0.8747590210995579,0.5422956152102881,0.793819377038321,-61.21017246419176,-21.36802104647764,8.155510084770535
1699733608,10.2676017766,2.9802605483,0.5718846014,-0.8747590210995579,0.5422956152102881,0.793819377038321,-60.74247296112247,-20.885705933937444,8.082432037415959
1699733608,10.265208954,2.2420747762,1.3375878334,-1.2446379228284563,0.4343251843587889,0.7903069019186824,-60.757088570593396,-20.403390821397252,8.272434960537854
1699733608,10.265208954,2.2420747762,1.3375878334,-1.2446379228284563,0.4343251843587889,0.7903069019186824,-60.71324174218064,-20.18415667933353,8.009353990061385
1699733608,10.3190474625,1.1078768638,1.6725829974,-1.5157093722788255,0.32818734922188375,0.7292203780988809,-60.49400760011693,-20.081847413037124,8.360128617363344
1699733608,10.3190474625,1.1078768638,1.6725829974,-1.5157093722788255,0.32818734922188375,0.7292203780988809,-60.479391990646015,-19.789535223618827,8.097047646886875
1699733608,10.1072826624,0.1256231865,1.4715858990000001,-1.3020592552190697,0.2528982086139784,0.6641632302307922,-60.523238819058754,-19.102601578485825,8.491669102601579
1699733608,10.1072826624,0.1256231865,1.4715858990000001,-1.3020592552190697,0.2528982086139784,0.6641632302307922,-60.11400175387314,-19.5703010815551,7.980122771119556
1699733608,9.4803631412,-0.044267218100000005,1.1150553316,-0.7990117315630041,0.24755313777974572,0.6488915992758418,-59.573224203449286,-18.91259865536393,7.833966676410406
1699733608,9.4803631412,-0.044267218100000005,1.1150553316,-0.7990117315630041,0.24755313777974572,0.6488915992758418,-59.6901490792166,-19.014907921660335,7.877813504823152
1699733608,9.038887371500001,0.12442677519999999,0.8985048863,-0.5566509483079415,0.23655756349218146,0.7214318463118561,-59.719380298158434,-18.415667933352818,7.833966676410406
1699733608,9.038887371500001,0.12442677519999999,0.8985048863,-0.5566509483079415,0.23655756349218146,0.7214318463118561,-59.88015200233849,-18.167202572347264,7.585501315404852
1699733608,9.153742856300001,0.4331008906,1.0743773474,-0.4686863540074273,0.18539759979309767,0.8115344689460634,-59.45629932768196,-17.684887459807076,8.403975445776089
1699733608,9.153742856300001,0.4331008906,1.0743773474,-0.4686863540074273,0.18539759979309767,0.8115344689460634,-59.14937152879275,-16.968722595732242,8.126278865828706
1699733608,9.355936366,1.3064811396,1.6677973521999998,-0.19181168479417682,0.12568552275924166,0.8338310501402909,-58.418591055247006,-17.6118094124525,8.623209587839813
1699733609,9.355936366,1.3064811396,1.6677973521999998,-0.19181168479417682,0.12568552275924166,0.8338310501402909,-59.33937445191464,-16.501023092662965,8.506284712072494
1699733609,9.399007172800001,1.6546368279,2.0374884439,0.07406741013150937,0.09758572180213294,0.7870998594181428,-58.520900321543415,-16.66179479684303,8.038585209003216
1699733609,9.399007172800001,1.6546368279,2.0374884439,0.07406741013150937,0.09758572180213294,0.7870998594181428,-58.33089739842151,-16.325635779011986,7.819351066939491
1699733609,9.286544510599999,1.1521440819,1.7012968686,0.29153543493000283,0.11285735275708332,0.6707300315414209,-57.731657410114,-15.448699210757088,8.126278865828706
1699733609,9.037690960199999,0.8602197247000001,1.0899306943,0.4757113042467045,0.1547016215736474,0.5244278069929962,-57.907044723764976,-15.697164571762642,7.556270096463022
1699733609,9.037690960199999,0.8602197247000001,1.0899306943,0.4757113042467045,0.1547016215736474,0.5244278069929962,-58.37474422683427,-15.492546039169833,7.936275942706811
1699733609,8.8378902731,0.7848458128,1.0432706536,0.4141666314982544,0.09361509775384584,0.43631049638293246,-57.965507161648645,-15.09792458345513,7.424729611224788
1699733609,8.8378902731,0.7848458128,1.0432706536,0.4141666314982544,0.09361509775384584,0.43631049638293246,-58.06781642794504,-14.849459222449577,6.664717918737212
1699733609,8.8366938618,0.7704888772,1.4225330357,0.26267205242514663,-0.026572637861613665,0.3535382566071014,-57.51242326805027,-14.630225080385854,7.6147325343466825
1699733609,8.8366938618,0.7704888772,1.4225330357,0.26267205242514663,-0.026572637861613665,0.3535382566071014,-57.67319497223035,-15.0686933645133,7.10318620286466
1699733609,9.0484586619,0.3840480273,1.7670994901,0.1866193302694937,-0.14416419621473162,0.2420553506359636,-57.26395790704473,-15.054077755042385,7.088570593393745
1699733609,9.0484586619,0.3840480273,1.7670994901,0.1866193302694937,-0.14416419621473162,0.2420553506359636,-57.61473253434668,-14.630225080385854,6.78164279450453
1699733609,9.379864592,-0.020338992099999998,1.8711872732,0.24877486825614176,-0.18768834443634022,0.1235474944255486,-57.483192049108446,-14.86407483192049,7.044723764981
1699733609,9.379864592,-0.020338992099999998,1.8711872732,0.24877486825614176,-0.18768834443634022,0.1235474944255486,-57.38088278281205,-14.820228003507745,8.0239695995323
1699733609,9.4061856406,-0.263210486,1.7958133612999998,0.2837469031429781,-0.18982637277003328,0.06520986417763813,-57.044723764981,-14.498684595147617,8.842443729903538
1699733609,9.4061856406,-0.263210486,1.7958133612999998,0.2837469031429781,-0.18982637277003328,0.06520986417763813,-57.36626717334112,-14.454837766734874,7.512423268050278
1699733609,9.175278259699999,-0.7477570625,1.8233308212,0.2822197400474831,-0.20540343634408267,0.05238169417547982,-56.927798889213676,-14.659456299327683,8.593978368897984
1699733609,9.175278259699999,-0.7477570625,1.8233308212,0.2822197400474831,-0.20540343634408267,0.037568212149177944,-56.957030108155514,-14.352528500438469,7.7755042385267465
1699733609,8.5627156741,-0.8578269021,1.8352949342,0.42516220578581865,-0.12843441633113273,0.037568212149177944,-57.000876936568254,-14.557147033031278,8.783981292019877
1699733609,8.5627156741,-0.8578269021,1.8352949342,0.6058255999828817,-0.07208209810736581,-0.018173240836390957,-56.70856474714996,-14.396375328851214,8.447822274188834
1699733609,8.3318082932,-0.4582255279,1.5445669883000002,0.6058255999828817,-0.07208209810736581,-0.018173240836390957,-56.533177433498984,-14.571762642502192,7.7755042385267465
1699733609,8.3318082932,-0.4582255279,1.5445669883000002,0.6609561877302526,-0.12064588454410802,-0.09911288489762798,-57.10318620286466,-14.68868751826951,7.19087985969015
1699733609,8.6428752312,-0.191425808,1.4213366244,0.6609561877302526,-0.12064588454410802,-0.09911288489762798,-56.69394913767904,-14.586378251973105,7.585501315404852
1699733609,8.6428752312,-0.191425808,1.4213366244,0.7073819458333018,-0.17379116026733535,-0.20876319515417174,-56.34317451037708,-14.805612394036832,8.213972522654196
1699733609,8.9551385805,-0.4510470601,1.7599210223,0.7073819458333018,-0.17379116026733535,-0.20876319515417174,-56.620871090324464,-15.404852382344345,7.6147325343466825
1699733609,8.9551385805,-0.4510470601,1.7599210223,0.8181012702566921,-0.1780672169347215,-0.2762638039750524,-57.30780473545747,-15.375621163402514,7.687810581701257
1699733609,9.096315113900001,-0.7441678286,2.0434705004000002,0.8181012702566921,-0.1780672169347215,-0.2762638039750524,-56.8401052323882,-15.857936275942707,5.86085939783689
1699733609,9.0269232585,-1.1593225497000001,2.1990039694,0.8246680715673207,-0.15790866407418697,-0.2516764781375823,-56.28471207249343,-15.784858228588133,6.503946214557146
1699733609,9.0269232585,-1.1593225497000001,2.1990039694,0.8246680715673207,-0.15790866407418697,-0.2516764781375823,-56.357790119848,-15.843320666471792,7.512423268050278
1699733609,8.8247297488,-1.6091731985,2.2348963083999998,0.758694625841935,-0.12202033133005356,-0.1828014225307561,-56.89856767027185,-15.682548962291728,7.643963753288512
1699733609,8.8247297488,-1.6091731985,2.2348963083999998,0.758694625841935,-0.12202033133005356,-0.1828014225307561,-56.503946214557146,-15.463314820228003,8.213972522654196
1699733609,9.3284189061,-1.6163516663,2.0865413072,0.6345362661781885,-0.09819658704033096,-0.10064004799312304,-55.99239988307513,-15.653317743349898,6.98626132709734
1699733609,9.3284189061,-1.6163516663,2.0865413072,0.6345362661781885,-0.09819658704033096,-0.10064004799312304,-56.70856474714996,-15.682548962291728,6.95703010815551
1699733609,9.870393225,-1.172483074,2.3533410271,0.5812382741454116,-0.10064004799312304,-0.019089538693687978,-56.38702133878982,-15.30254311604794,6.577024261911722
1699733609,9.870393225,-1.172483074,2.3533410271,0.5812382741454116,-0.10064004799312304,-0.019089538693687978,-56.59163987138264,-15.609470914937154,6.86933645133002
1699733609,9.5533442305,-0.6269195211999999,2.8259234905999997,0.6427829468938616,-0.06246097060574707,0.04214970143566306,-56.577024261911724,-14.820228003507745,6.752411575562702
1699733609,9.5533442305,-0.6269195211999999,2.8259234905999997,0.6427829468938616,-0.06246097060574707,0.04214970143566306,-56.050862320958785,-15.15638702133879,7.351651563870214
1699733609,8.9946201534,-0.022731814700000002,2.8283163132,0.6527095070145794,-0.029932396671702752,0.03405573702953935,-55.93393744519146,-15.229465068693365,7.234726688102894
1699733609,8.9946201534,-0.022731814700000002,2.8283163132,0.6527095070145794,-0.029932396671702752,0.03405573702953935,-55.74393452206957,-15.229465068693365,6.98626132709734
1699733609,8.7888374098,0.6185446421,2.4825534475,0.5105306228239913,-0.0635299847725936,-0.09590584239708841,-55.30546623794213,-15.609470914937154,6.6939491376790405
1699733609,8.7888374098,0.6185446421,2.4825534475,0.5105306228239913,-0.0635299847725936,-0.09590584239708841,-55.6854720841859,-15.828705057000878,6.825489622917276
1699733609,8.5986080131,0.9056833541,2.6153551018,0.28970283921540874,-0.16982053621904827,-0.2631302013537951,-55.29085062847121,-15.682548962291728,7.527038877521193
1699733609,8.5986080131,0.9056833541,2.6153551018,0.28970283921540874,-0.16982053621904827,-0.2631302013537951,-55.20315697164572,-16.25255773165741,7.234726688102894
1699733609,9.2015993083,1.3471591237999998,2.4897319153,0.18127425943526107,-0.3277292002932352,-0.4508185457901353,-55.51008477053493,-16.48640748319205,7.6585793627594265
1699733609,9.2015993083,1.3471591237999998,2.4897319153,0.18127425943526107,-0.3277292002932352,-0.4508185457901353,-55.15931014323298,-16.734872844197604,8.535515931014324
1699733609,10.930413636799999,2.3892333661,1.4428720278,0.12064588454410802,-0.48808132532021425,-0.6311765073680994,-54.82315112540193,-17.11487869044139,9.134755919321835
1699733609,10.930413636799999,2.3892333661,1.4428720278,0.12064588454410802,-0.48808132532021425,-0.6311765073680994,-55.115463314820225,-17.451037708272434,9.397836889798304
1699733609,11.935399128799999,2.3760728418,1.4799607781,-0.09254608358699933,-0.6407976348697182,-0.7675521717958063,-55.58316281788951,-17.538731365097927,9.909383221280327
1699733609,11.935399128799999,2.3760728418,1.4799607781,-0.09254608358699933,-0.6407976348697182,-0.7675521717958063,-55.75855013154049,-17.860274773458055,9.193218357205495
1699733609,10.998609080900001,1.0624132344,2.4550359876,-0.10842857978014774,-0.6520986417763813,-0.8856018790775727,-55.34931306635487,-18.605670856474717,10.289389067524116
1699733609,10.998609080900001,1.0624132344,2.4550359876,-0.10842857978014774,-0.6520986417763813,-0.8856018790775727,-55.33469745688395,-18.64951768488746,10.640163694826073
1699733609,10.9328064594,0.1148554848,2.1714865095,0.24938573349433976,-0.5494732817591148,-0.7363980446477075,-55.1885413621748,-18.62028646594563,10.669394913767904
1699733609,10.9328064594,0.1148554848,2.1714865095,0.24938573349433976,-0.5222897786593031,-0.4338670354301404,-55.39315989476761,-18.839520608009355,9.733995907629348
1699733609,12.908081515700001,-1.2358928729,3.1872397032,0.4575380634103135,-0.5222897786593031,-0.4338670354301404,-55.261619409529374,-18.591055247003798,11.151710026308097
1699733609,12.908081515700001,-1.2358928729,3.1872397032,0.3362813136280074,-0.49128836782075386,-0.046883907031697675,-55.261619409529374,-18.430283542823737,10.77170418006431
1699733609,12.9236348626,-4.5750768112,2.0123638066000002,0.3362813136280074,-0.49128836782075386,-0.046883907031697675,-54.560070154925455,-17.991815258696285,10.669394913767904
1699733609,12.9236348626,-4.5750768112,2.0123638066000002,0.1514945790731078,-0.4929682472257984,0.6012441106963965,-54.58930137386729,-17.845659163987136,10.62554808535516
1699733609,11.5130659399,-4.582255279,-0.5551348432,0.1514945790731078,-0.4929682472257984,0.6012441106963965,-54.25314235603624,-17.75796550716165,10.727857351651563
1699733609,11.5130659399,-4.582255279,-0.5551348432,-0.000916297857297023,-0.34788775315376974,0.6905831517828563,-54.63314820228003,-17.480268927214265,11.458637825197311
1699733609,9.786644434,-0.041874395499999995,-0.5922235935,-0.000916297857297023,-0.34788775315376974,0.6905831517828563,-54.18006430868167,-17.58257819351067,11.414790996784566
1699733609,9.786644434,-0.041874395499999995,-0.5922235935,-0.02199114857512855,-0.318566221720265,0.47983464460454106,-54.516223326512716,-16.93949137679041,10.8593978368898
1699733609,7.7240313528,3.7926238210000003,0.5431707302,-0.02199114857512855,-0.318566221720265,0.47983464460454106,-54.18006430868167,-17.509500146156096,11.40017538731365
1699733609,6.989434814599999,6.017948839,1.2526426310999998,0.377972866135022,-0.2701551515930723,0.21609357801254792,-54.106986261327094,-17.29026600409237,11.69248757673195
1699733609,6.989434814599999,6.017948839,1.2526426310999998,0.377972866135022,-0.2701551515930723,0.21609357801254792,-53.85852090032154,-17.158725518854137,11.794796843028355
1699733609,6.915257314,6.2309100503999995,1.0971091621,0.7473936189352718,-0.2150245638457014,-0.0320704250053958,-53.97544577608886,-17.246419175679627,11.867874890382929
1699733609,6.915257314,6.2309100503999995,1.0971091621,0.7473936189352718,-0.2150245638457014,-0.0320704250053958,-53.916983338205206,-17.34872844197603,11.122478807366267
1699733609,7.9944203065999995,5.3252266963,0.24646072779999997,0.5722280118819909,-0.28878654135811177,-0.29565877528783946,-54.07775504238527,-17.75796550716165,11.560947091493716
1699733609,7.9944203065999995,5.3252266963,0.24646072779999997,0.5722280118819909,-0.28878654135811177,-0.29565877528783946,-54.106986261327094,-17.860274773458055,12.58403975445776
1699733609,9.9003035075,2.87138712,-1.5254244074999999,-0.027183503099811684,-0.5145012468722785,-0.5285511473508328,-54.42852966968723,-15.0686933645133,13.577901198479978
1699733609,9.9003035075,2.87138712,-1.5254244074999999,-0.027183503099811684,-0.5145012468722785,-0.5285511473508328,-54.23852674656533,-19.219526454253142,13.490207541654486
1699733609,10.4733845202,0.0143569356,-2.9407789753999998,-0.8231409084718257,-0.6210972309378321,-0.7179193711922175,-54.019292604501615,-19.643379128909675,13.25635779011985
1699733609,10.4733845202,0.0143569356,-2.9407789753999998,-0.8231409084718257,-0.6210972309378321,-0.7179193711922175,-54.2092955276235,-19.731072785735165,13.592516807950892
1699733609,10.052247742599999,-1.3160524299999998,-3.0687949845,-1.0177014868378935,-0.477391183651749,-0.6924157474974504,-53.43466822566501,-19.526454253142354,14.32329728149664
1699733609,10.052247742599999,-1.3160524299999998,-3.0687949845,-1.0177014868378935,-0.477391183651749,-0.6924157474974504,-53.82928968137971,-20.53493130663549,14.060216311020168
1699733609,9.5485585853,-1.3686945272,-2.2420747762,-0.7545712854840985,-0.5697845509291989,-0.5251913885407437,-53.56620871090324,-20.651856182402806,14.703303127740428
1699733609,9.5485585853,-1.3686945272,-2.2420747762,-0.7545712854840985,-0.5697845509291989,-0.5251913885407437,-53.75621163402514,-20.286465945629935,14.790996784565916
1699733609,9.8644111685,0.6113661743,-0.7393821834000001,-0.3781255824445715,-0.7447974416729302,-0.16691892633760771,-53.42005261619409,-20.72493422975738,15.682548962291728
1699733609,9.8644111685,0.6113661743,-0.7393821834000001,-0.3781255824445715,-0.7447974416729302,-0.16691892633760771,-53.683133586670564,-20.52031569716457,16.31102016954107
1699733609,10.2305130263,1.6342978358,0.2380858487,-0.23655756349218146,-0.6979135346412325,-0.02672535417116317,-53.47851505407776,-20.66647179187372,16.57410114001754
1699733609,10.2305130263,1.6342978358,0.2380858487,-0.23655756349218146,-0.6979135346412325,-0.02672535417116317,-53.49313066354867,-20.34492838351359,15.697164571762642
1699733609,9.9732845968,0.1471585899,-0.7465606512,-0.14080443740464255,-0.49571714079768947,-0.1359175154990584,-53.083893598363055,-20.271850336159016,16.354866997953817
1699733609,9.9732845968,0.1471585899,-0.7465606512,-0.14080443740464255,-0.49571714079768947,-0.1359175154990584,-53.17158725518855,-20.827243496053786,15.770242619117218
1699733609,9.7926264905,-0.32901310749999996,-1.6079767872,0.16798794050445423,-0.3518583772020568,-0.14019357216644454,-53.405437006723176,-20.35954399298451,15.317158725518853
1699733609,9.7926264905,-0.32901310749999996,-1.6079767872,0.16798794050445423,-0.3518583772020568,-0.14019357216644454,-52.806197018415666,-20.505700087693658,16.778719672610347
1699733609,9.5868437469,0.28953153460000003,-1.4715858990000001,0.27305676147451285,-0.29245173278729986,-0.017867808217291947,-52.6454253142356,-20.330312774042678,16.647179187372114
1699733609,9.5868437469,0.28953153460000003,-1.4715858990000001,0.27305676147451285,-0.29245173278729986,-0.017867808217291947,-52.61619409529378,-20.432622040339083,16.76410406313943
1699733609,9.4803631412,1.0145567824000001,-1.3579268255,0.23640484718263194,-0.2901609881440573,0.06490443155853913,-53.30312774042678,-20.35954399298451,16.997953814674073
1699733609,9.4803631412,1.0145567824000001,-1.3579268255,0.23640484718263194,-0.2901609881440573,0.06490443155853913,-52.99619994153756,-20.257234726688104,17.11487869044139
1699733609,9.320044027,1.5290136414,-1.3232308977999998,0.2544253717094734,-0.29260444909684935,0.06032294227205401,-53.30312774042678,-20.388775211926337,17.187956737795968
1699733609,9.320044027,1.5290136414,-1.3232308977999998,0.2544253717094734,-0.3089450942186463,0.0039706240482871,-53.17158725518855,-20.388775211926337,18.152586962876352
1699733609,9.3355973739,1.91425808,-1.148554848,0.22800545015740925,-0.3089450942186463,0.0039706240482871,-52.981584332066646,-20.69570301081555,17.96258403975446
1699733609,9.3355973739,1.91425808,-1.148554848,0.01634064512179691,-0.3660609939901607,-0.06444628262989062,-52.82081262788658,-20.476468868751827,18.26951183864367
1699733609,9.5042913672,1.6486547714,-0.9379864592,0.01634064512179691,-0.3660609939901607,-0.06444628262989062,-52.6454253142356,-20.593393744519144,18.371821104940075
1699733609,9.5042913672,1.6486547714,-0.9379864592,-0.14110987002374156,-0.396756972209611,-0.11575896263852391,-52.67465653317743,-20.651856182402806,18.44489915229465
1699733609,9.8021977809,1.1282158559,-0.8518448456000001,-0.14110987002374156,-0.396756972209611,-0.11575896263852391,-52.5431160479392,-20.973399590762934,18.70798012277112
1699733609,9.8021977809,1.1282158559,-0.8518448456000001,-0.09743300549258344,-0.3590360437508835,-0.11591167894807342,-52.6454253142356,-21.280327389652147,18.517977199649224
1699733609,9.6239324972,1.0971091621,-0.8422735552,-0.09743300549258344,-0.3590360437508835,-0.11591167894807342,-52.22157263957907,-21.01724641917568,18.21104940076001
1699733609,9.6239324972,1.4931213024,-0.9296115801,-0.0679587577495292,-0.280692576951988,-0.08261952346628157,-52.630809704764694,-20.768781058170124,18.956445483776672
1699733610,9.407382051899999,1.4931213024,-0.9296115801,-0.0679587577495292,-0.280692576951988,-0.08261952346628157,-52.39695995323005,-20.8418591055247,19.146448406898568
1699733610,9.456434915200001,1.6534404165999999,-1.1078768638,-0.20769418098732523,-0.24434609527920614,-0.05345070834232634,-52.74773458053201,-21.090324466530255,18.576439637532886
1699733610,9.456434915200001,1.6534404165999999,-1.1078768638,-0.20769418098732523,-0.24434609527920614,-0.05345070834232634,-52.41157556270096,-21.499561531715873,18.941829874305757
1699733610,9.5521478192,1.6043875533,-1.2143574695,-0.2984076688597305,-0.24404066266010713,-0.07880161572754397,-52.74773458053201,-20.69570301081555,19.541069862613274
1699733610,9.5521478192,1.6043875533,-1.2143574695,-0.2984076688597305,-0.24404066266010713,-0.07880161572754397,-52.2508038585209,-21.382636655948552,20.37415960245542
1699733610,9.6897351187,1.3674981159,-1.2765708571,-0.377972866135022,-0.25228734337578035,-0.12110403347275654,-51.870798012277106,-21.148786904413914,19.921075708857057
1699733610,9.6897351187,1.3674981159,-1.2765708571,-0.377972866135022,-0.25228734337578035,-0.12110403347275654,-51.81233557439345,-21.382636655948552,19.409529377375037
1699733610,9.8620183459,1.1054840412,-1.1018948073,-0.4815145240095856,-0.3000875482647751,-0.15134186276355832,-51.81233557439345,-22.23034200526162,19.438760596316868
1699733610,9.8620183459,1.1054840412,-1.1018948073,-0.4815145240095856,-0.3000875482647751,-0.15134186276355832,-52.2508038585209,-22.02572347266881,20.19877228880444
1699733610,9.799804958300001,0.8697910151,-0.8901300072,-0.5432119130675852,-0.337655760413953,-0.16355916752751862,-51.78310435545163,-22.43496053785443,20.06723180356621
1699733610,9.799804958300001,0.8697910151,-0.8901300072,-0.5432119130675852,-0.337655760413953,-0.16355916752751862,-51.16924875767319,-22.303420052616193,20.66647179187372
1699733610,9.6646104814,0.7034898444000001,-0.9619146851999999,-0.5342016508041645,-0.2950479100496414,-0.1718058482431918,-51.25694241449869,-22.814966384098216,20.491084478222742
1699733610,9.6646104814,0.7034898444000001,-0.9619146851999999,-0.5342016508041645,-0.2950479100496414,-0.1718058482431918,-51.6661794796843,-22.44957614732534,20.98801520023385
1699733610,9.5258267706,0.5970092387,-1.2813565023,-0.4517348436474323,-0.21624629432209744,-0.1751656070532809,-51.76848874598071,-22.551885413621747,21.455714703303126
1699733610,9.5258267706,0.5970092387,-1.2813565023,-0.4517348436474323,-0.21624629432209744,-0.1751656070532809,-51.62233265127156,-22.756503946214558,21.221864951768488
1699733610,9.439685157,0.7668996433,-1.4500504956,-0.3483459020824182,-0.19715675562840945,-0.17974709633976602,-51.79771996492254,-23.048816135632855,21.4264834843613
1699733610,9.439685157,0.7668996433,-1.4500504956,-0.3483459020824182,-0.19715675562840945,-0.17974709633976602,-51.84156679333528,-23.019584916691027,20.213387898275357
1699733610,9.5342016497,0.8769694829,-1.3818550514999999,-0.32803463291233426,-0.24755313777974572,-0.18539759979309767,-51.40309850920784,-23.32651271558024,21.55802396959953
1699733610,9.5342016497,0.8769694829,-1.3818550514999999,-0.32803463291233426,-0.24755313777974572,-0.18539759979309767,-51.30078924291143,-23.26805027769658,21.441099093832214
1699733610,9.732805925500001,0.7633104094,-1.0743773474,-0.3611740720845766,-0.29581149159738895,-0.2034181243199391,-51.40309850920784,-23.487284419760304,22.011107863197896
1699733610,9.732805925500001,0.7633104094,-1.0743773474,-0.3611740720845766,-0.29581149159738895,-0.2034181243199391,-51.651563870213394,-23.47266881028939,22.069570301081555
1699733610,9.8153583052,0.4474578262,-0.9068797654,-0.38087447601646257,-0.2884811087390127,-0.2309070600388498,-51.33002046185325,-23.47266881028939,21.952645425314234
1699733610,9.8153583052,0.4474578262,-0.9068797654,-0.38087447601646257,-0.2884811087390127,-0.2309070600388498,-51.81233557439345,-24.028061970184154,22.1134171294943
1699733610,9.8500542329,0.23928226,-0.9619146851999999,-0.3953825254236654,-0.23655756349218146,-0.2437352300410081,-51.21309558608594,-24.291142940660627,22.522654194679916
1699733610,9.8500542329,0.23928226,-0.9619146851999999,-0.3953825254236654,-0.23655756349218146,-0.2437352300410081,-51.15463314820228,-24.437299035369776,22.128032738965214
1699733610,9.7591269741,0.29551359110000003,-1.1066804525,-0.41111230530726434,-0.18555031610264716,-0.2386955918258745,-51.72464191756796,-24.466530254311607,22.05495469161064
1699733610,9.7591269741,0.29551359110000003,-1.1066804525,-0.4474587869800462,-0.1786780821729195,-0.23655756349218146,-51.06693949137679,-24.466530254311607,23.048816135632855
1699733610,9.799804958300001,0.3361915753,-1.0755737587,-0.4474587869800462,-0.1786780821729195,-0.23655756349218146,-51.24232680502777,-24.59807073954984,23.648056123940368
1699733610,9.799804958300001,0.3361915753,-1.0755737587,-0.4645630136495907,-0.17638733752967692,-0.2390010244449735,-50.93539900613856,-25.548085355159312,22.639579070447237
1699733610,9.7651090306,0.24646072779999997,-0.9343972253,-0.4645630136495907,-0.17638733752967692,-0.2390010244449735,-51.12540192926045,-25.109617071031863,22.668810289389068
1699733610,9.646664311899999,0.0825523797,-0.9870393224999999,-0.437684943168878,-0.1270599695451872,-0.23884830813542401,-51.16924875767319,-25.48962291727565,23.136509792458344
1699733610,9.646664311899999,0.0825523797,-0.9870393224999999,-0.437684943168878,-0.1270599695451872,-0.23884830813542401,-51.53463899444607,-25.781935106693947,23.165741011400176
1699733610,9.5605226983,0.155533469,-1.0468598875,-0.33964107243809655,-0.07880161572754397,-0.2307543437293003,-51.695410698626134,-25.32885121309559,23.648056123940368
1699733610,9.5605226983,0.155533469,-1.0468598875,-0.33964107243809655,-0.07880161572754397,-0.2307543437293003,-50.9792458345513,-25.57731657410114,23.282665887167493
1699733610,9.5258267706,0.5335994398,-0.9272187574999999,-0.1942551457469689,-0.06612616203493515,-0.219453336822637,-51.1838643671441,-26.059631686641332,22.508038585209004
1699733610,9.5258267706,0.5335994398,-0.9272187574999999,-0.1942551457469689,-0.06612616203493515,-0.219453336822637,-51.2715580239696,-26.16194095293774,22.88804443145279
1699733610,9.3009014462,0.8542376682,-0.933200814,-0.12461650859239512,-0.048411070127192715,-0.22937989694335476,-51.19847997661503,-26.19117217187957,23.165741011400176
1699733610,9.3009014462,0.8542376682,-0.933200814,-0.12461650859239512,-0.048411070127192715,-0.22937989694335476,-51.60771704180064,-26.30809704764689,23.165741011400176
1699733610,9.2494557603,0.8542376682,-1.0456634762,-0.20158552860534507,-0.030543261909900768,-0.2565634000431664,-51.520023384975154,-26.6150248465361,23.136509792458344
1699733610,9.2494557603,0.8542376682,-1.0456634762,-0.20158552860534507,-0.030543261909900768,-0.2565634000431664,-50.76001169248757,-26.96579947383806,25.796550716164862
1699733610,9.330811728699999,0.7274180704000001,-1.0935199281999999,-0.3196352358871115,-0.028405233576207712,-0.2808452932615375,-50.59923998830751,-26.731949722303423,23.253434668225665
1699733610,9.330811728699999,0.7274180704000001,-1.0935199281999999,-0.3196352358871115,-0.028405233576207712,-0.2808452932615375,-50.613855597778425,-27.667348728441976,22.361882490499855
1699733610,9.5617191096,0.6675975054,-1.0779665813,-0.3759875541108785,-0.03023782929080176,-0.29733865469288395,-50.86232095878398,-28.00350774627302,22.31803566208711
1699733610,9.5617191096,0.6675975054,-1.0779665813,-0.3759875541108785,-0.03023782929080176,-0.29733865469288395,-50.55539315989477,-27.974276527331188,23.136509792458344
1699733610,9.9074819753,0.5479563754,-1.3411770673,-0.396756972209611,-0.0004581489286485115,-0.30161471136027007,-50.570008769365685,-28.515054077755043,23.15112540192926
1699733610,9.9074819753,0.5479563754,-1.3411770673,-0.396756972209611,-0.0004581489286485115,-0.30161471136027007,-50.73078047354574,-28.325051154633147,22.61034785150541
1699733610,10.750951941799999,0.0131605243,-2.0231315083,-0.45097126209968486,0.0678060414399797,-0.316122760767473,-50.84770534931307,-28.19351066939491,22.522654194679916
1699733610,10.750951941799999,0.0131605243,-2.0231315083,-0.45097126209968486,0.0678060414399797,-0.316122760767473,-50.73078047354574,-28.529669687225955,23.048816135632855
1699733610,10.609775408399999,-0.3278166962,-2.2767707039,-0.41263946840275934,0.09407324668249435,-0.2541199390903744,-51.22771119555686,-28.982753580824323,22.698041508330896
1699733610,10.609775408399999,-0.3278166962,-2.2767707039,-0.41263946840275934,0.09407324668249435,-0.2541199390903744,-50.83308973984215,-28.485822858813215,22.581116632563578
1699733610,10.8287186763,0.0873380249,-1.9525432416,-0.13377948716536536,0.1195768703772615,-0.1072068493037517,-50.02923121894183,-29.026600409237062,23.428821981876645
1699733610,10.8287186763,0.0873380249,-1.9525432416,-0.13377948716536536,0.1195768703772615,-0.1072068493037517,-50.08769365682549,-28.310435545162232,22.31803566208711
1699733610,11.523833641600001,1.1629117836,-1.4177473905,0.25335635754262686,0.07009678608322227,0.06444628262989062,-50.204618532592804,-28.515054077755043,22.43496053785443
1699733610,11.523833641600001,1.1629117836,-1.4177473905,0.25335635754262686,0.07009678608322227,0.06444628262989062,-50.73078047354574,-28.281204326220404,22.31803566208711
1699733610,11.6231357795,2.0793628394,-0.8099704500999999,0.5572618135461395,0.12018773561545952,0.15042556490626127,-50.30692779888921,-27.94504530838936,22.97573808827828
1699733610,11.6231357795,2.0793628394,-0.8099704500999999,0.5572618135461395,0.12018773561545952,0.15042556490626127,-49.85384390529085,-28.383513592516806,23.428821981876645
1699733610,11.8133651762,2.3186450994000003,-0.4414757697,0.6107125218884658,0.2344195351584884,0.13209960776032081,-50.08769365682549,-27.74042677579655,22.4057293189126
1699733610,11.8133651762,2.3186450994000003,-0.4414757697,0.6107125218884658,0.2344195351584884,0.13209960776032081,-49.94153756211634,-28.20812627886583,21.73341128325051
1699733610,11.1972133567,2.3808584870000002,0.1339980656,0.4279110993577097,0.3732386605389874,0.09590584239708841,-50.394621455714706,-27.871967261034786,22.215726395790707
1699733610,11.1972133567,2.3808584870000002,0.1339980656,0.4279110993577097,0.5627596006899216,0.11194105489978631,-50.52616194095294,-27.901198479976614,21.294942999123062
1699733610,10.0965149607,2.1140587671,0.7812565789,-0.005039638215133627,0.5627596006899216,0.11194105489978631,-50.84770534931307,-28.047354574685762,20.81262788658287
1699733610,10.0965149607,2.1140587671,0.7812565789,-0.46761733984058074,0.779311327631118,0.21624629432209744,-50.993861444022215,-28.164279450453083,21.01724641917568
1699733610,9.3260260835,1.3998012210000002,0.9152546444999999,-0.46761733984058074,0.779311327631118,0.21624629432209744,-51.140017538731364,-27.8865828705057,22.14264834843613
1699733610,9.3260260835,1.3998012210000002,0.9152546444999999,-0.6919575985688019,0.9940304588577205,0.3825543554215071,-51.05232388190587,-28.471207249342296,20.1549254603917
1699733610,9.068797654,0.9355936366,1.0025926694,-0.6919575985688019,0.9940304588577205,0.3825543554215071,-50.891552177725806,-27.871967261034786,19.74568839520608
1699733610,9.068797654,0.9355936366,1.0025926694,-0.7932085118001229,1.1927143775816251,0.5902485364088323,-51.15463314820228,-27.667348728441976,18.751826951183865
1699733610,9.038887371500001,1.1138589203,1.2969098492,-0.7932085118001229,1.1927143775816251,0.5902485364088323,-51.549254603916985,-27.8865828705057,18.576439637532886
1699733610,9.0436730167,1.7790636031,0.9882357338,-0.7982481500152565,1.3504703253462624,0.7573201790559895,-51.446945337620576,-27.871967261034786,17.524115755627008
1699733610,9.0436730167,1.7790636031,0.9882357338,-0.7982481500152565,1.3504703253462624,0.7573201790559895,-51.91464484068986,-27.5942706810874,17.874890382928967
1699733610,9.1776710823,2.4789642136,0.1591227029,-0.6068946141497282,1.3607023180860793,0.8057312491831822,-51.593101432329725,-27.521192633732827,17.0271850336159
1699733610,9.1776710823,2.4789642136,0.1591227029,-0.6068946141497282,1.3607023180860793,0.8057312491831822,-51.563870213387894,-27.696579947383803,16.807950891552178
1699733610,9.4253282214,2.8821548217,-0.5946164161,-0.3908010361371803,1.2599095537834066,0.7612908031042765,-51.563870213387894,-26.892721426483483,16.0479391990646
1699733610,9.4253282214,2.8821548217,-0.5946164161,-0.3908010361371803,1.2599095537834066,0.7612908031042765,-51.82695118386437,-26.541946799181527,16.106401636948263
1699733610,10.0462656861,3.3248270027,-0.6891329087999999,-0.2628247687346961,1.0635163797027447,0.6681338542790792,-51.88541362174802,-26.366559485530544,15.594855305466238
1699733610,10.0462656861,3.3248270027,-0.6891329087999999,-0.2628247687346961,1.0635163797027447,0.6681338542790792,-52.2508038585209,-25.95732242034493,15.419467991815258
1699733610,10.864611015300001,3.134597606,0.1004985492,-0.37278051161033887,0.778089597154722,0.634688982487738,-52.10464776381175,-26.381175095001463,15.551008477053493
1699733610,10.864611015300001,3.134597606,0.1004985492,-0.37278051161033887,0.778089597154722,0.634688982487738,-52.19234142063725,-25.89885998246127,14.86407483192049
1699733610,10.683952909,2.1930219129,1.088734283,-0.6052147347446838,0.5517640264023573,0.6484334503471934,-52.148494592224495,-29.771996492253727,14.469453376205788
1699733610,10.683952909,2.1930219129,1.088734283,-0.6052147347446838,0.5517640264023573,0.6484334503471934,-52.016954106986255,-26.176556562408653,14.980999707687811
1699733610,9.8452685877,0.9930213789999999,1.3555340029,-0.9011789426516221,0.4954117081785905,0.6059783162924312,-51.98772288804443,-25.708857059339373,14.674071908798597
1699733610,9.8452685877,0.9930213789999999,1.3555340029,-0.9011789426516221,0.4954117081785905,0.6059783162924312,-51.75387313650979,-25.60654779304297,14.454837766734874
1699733610,9.3810610033,0.4606183505,1.4919248910999998,-0.8324566033543453,0.43295073757284336,0.6479753014185448,-51.84156679333528,-25.60654779304297,14.060216311020168
1699733610,9.3810610033,0.4606183505,1.4919248910999998,-0.8324566033543453,0.43295073757284336,0.6479753014185448,-52.10464776381175,-25.358082432037417,13.987138263665594
1699733610,9.2015993083,0.8518448456000001,1.2514462198,-0.42684208519086325,0.40271290828204165,0.6913467333306038,-51.91464484068986,-24.86115171002631,14.630225080385854
1699733610,9.2015993083,0.8518448456000001,1.2514462198,-0.42684208519086325,0.40271290828204165,0.6913467333306038,-52.20695703010816,-24.9488453668518,13.490207541654486
1699733610,8.85344362,1.2382856955,0.9463613382999999,-0.1580613803837365,0.3506366467256608,0.6907358680924058,-52.09003215434084,-24.451914644840688,13.227126571178019
1699733610,8.85344362,1.2382856955,0.9463613382999999,-0.1580613803837365,0.3506366467256608,0.6907358680924058,-51.75387313650979,-24.817304881613563,13.227126571178019
1699733610,8.4526458345,1.304088317,0.9355936366,-0.16920967098085024,0.2299907621815528,0.6577491452297131,-51.9584916691026,-24.96346097632271,13.402513884828998
1699733610,8.4526458345,1.304088317,0.9355936366,-0.16920967098085024,0.2299907621815528,0.6577491452297131,-52.45542239111371,-24.68576439637533,13.05173925752704
1699733610,8.4418781328,1.1030912186,1.0863414604,-0.36392296565646765,0.04123340357836603,0.6372851597500795,-51.476176556562415,-24.466530254311607,12.920198772288805
1699733610,8.4418781328,1.1030912186,1.0863414604,-0.36392296565646765,0.04123340357836603,0.6372851597500795,-52.119263373282664,-24.13037123648056,13.373282665887167
1699733610,8.739784546500001,0.31345976059999997,1.3375878334,-0.5297728778272288,-0.14706580609617217,0.6400340533219706,-51.53463899444607,-24.24729611224788,13.548669979538147
1699733610,8.739784546500001,0.31345976059999997,1.3375878334,-0.5297728778272288,-0.14706580609617217,0.6400340533219706,-51.75387313650979,-23.633440514469452,13.650979245834552
1699733610,9.0077806777,-0.5551348432,1.4991033588999998,-0.37140606482439337,-0.21823160634624097,0.6276640322484608,-51.81233557439345,-23.80882782812043,14.118678748903829
1699733610,9.0077806777,-0.5551348432,1.4991033588999998,-0.37140606482439337,-0.21823160634624097,0.6276640322484608,-51.33002046185325,-23.32651271558024,13.460976322712655
1699733610,9.397810761499999,-0.8063812161999999,1.4943177136999999,0.11209377120933582,-0.18524488348354815,0.6436992447511587,-51.15463314820228,-23.048816135632855,13.402513884828998
1699733610,9.397810761499999,-0.8063812161999999,1.4943177136999999,0.11209377120933582,-0.18524488348354815,0.6067418978401787,-51.549254603916985,-22.595732242034494,13.548669979538147
1699733610,9.5928258034,-0.0586241537,1.4368899712999998,0.756251164889143,-0.07880161572754397,0.6067418978401787,-51.563870213387894,-22.522654194679916,14.03098509207834
1699733611,9.121439751199999,1.1581261384000001,1.4081761001,1.171181377935145,0.03237585762449481,0.49938233222687756,-51.2715580239696,-22.478807366267173,13.884828997369189
1699733611,9.121439751199999,1.1581261384000001,1.4081761001,1.171181377935145,0.03237585762449481,0.49938233222687756,-51.33002046185325,-21.894182987430575,13.694826074247295
1699733611,8.8031943454,1.7635102562,1.5002997702,1.0711521951802199,0.01679879405044542,0.38438695113610116,-51.9584916691026,-22.201110786319788,13.344051446945338
1699733611,8.8031943454,1.7635102562,1.5002997702,1.0711521951802199,0.01679879405044542,0.38438695113610116,-51.35925168079509,-22.1134171294943,13.97252265419468
1699733611,9.0185483794,1.507478238,1.6893327556000002,0.7090618252383463,-0.09697485656393494,0.23686299611128042,-51.98772288804443,-21.87956737795966,13.534054370067231
1699733611,9.0185483794,1.507478238,1.6893327556000002,0.7090618252383463,-0.09697485656393494,0.23686299611128042,-51.373867290266006,-22.44957614732534,13.329435837474424
1699733611,9.5940222147,0.526420972,1.9848463467,0.39828413530510604,-0.1951714436042659,0.09361509775384584,-51.6661794796843,-22.157263957907045,13.344051446945338
1699733611,9.5940222147,0.526420972,1.9848463467,0.39828413530510604,-0.1951714436042659,0.09361509775384584,-50.93539900613856,-22.05495469161064,13.621748026892721
1699733611,9.954142016,-0.3768695595,2.0709879603,0.2554943858763199,-0.18982637277003328,-0.0004581489286485115,-51.096170710318624,-22.274188833674362,13.884828997369189
1699733611,9.954142016,-0.3768695595,2.0709879603,0.2554943858763199,-0.18982637277003328,-0.0004581489286485115,-50.74539608301666,-22.376498099970767,13.548669979538147
1699733611,10.0247302827,-1.3148560187,2.1631116304,0.20830504622552323,-0.14889840181076625,-0.02550362369476714,-50.993861444022215,-21.762642502192342,13.94329143525285
1699733611,10.0247302827,-1.3148560187,2.1631116304,0.20830504622552323,-0.14889840181076625,-0.02550362369476714,-51.06693949137679,-21.967261034785153,13.241742180648933
1699733611,9.6323073763,-1.5421741657,1.9669001771999999,0.3152064629101759,-0.07605272215565291,-0.022143864884678056,-51.33002046185325,-22.040339082139727,13.577901198479978
1699733611,9.6323073763,-1.5421741657,1.9669001771999999,0.3152064629101759,-0.07605272215565291,-0.022143864884678056,-51.12540192926045,-22.05495469161064,13.7971353405437
1699733611,9.153742856300001,-1.3160524299999998,1.7982061838999999,0.48044550984273904,-0.023518311670623588,-0.020158552860534508,-51.520023384975154,-21.87956737795966,13.241742180648933
1699733611,9.153742856300001,-1.3160524299999998,1.7982061838999999,0.48044550984273904,-0.023518311670623588,-0.020158552860534508,-51.08155510084771,-22.011107863197896,12.890967553346973
1699733611,8.9024964833,-1.0719845248,1.7359927963,0.6337726846304409,0.00717766654882668,-0.01634064512179691,-51.08155510084771,-21.952645425314234,12.320958783981292
1699733611,8.9024964833,-1.0719845248,1.7359927963,0.6337726846304409,0.00717766654882668,-0.01634064512179691,-51.446945337620576,-22.391113709441683,12.233265127155803
1699733611,8.73380249,-0.9906285563999999,1.7682959014000001,0.7582364769132866,0.01710422666954443,-0.01710422666954443,-51.12540192926045,-22.274188833674362,13.724057293189126
1699733611,8.73380249,-0.9906285563999999,1.7682959014000001,0.7582364769132866,0.01710422666954443,-0.01710422666954443,-51.46156094709149,-22.171879567377957,13.314820228003507
1699733611,8.9156570076,-0.9367900479,1.8340985228999998,0.8694139502653253,-0.010231992739816757,-0.012675453692608817,-51.12540192926045,-22.28880444314528,13.212510961707103
1699733611,8.9156570076,-0.9367900479,1.8340985228999998,0.8694139502653253,-0.010231992739816757,-0.012675453692608817,-51.53463899444607,-22.08418591055247,13.212510961707103
1699733611,9.1381895094,-1.172483074,1.9501504189999999,0.9230173749172011,-0.029474247743054238,0.010995574287564275,-51.24232680502777,-22.011107863197896,12.993276819643379
1699733611,9.1381895094,-1.172483074,1.9501504189999999,0.9230173749172011,-0.029474247743054238,0.010995574287564275,-51.02309266296404,-21.70418006430868,13.110201695410698
1699733611,9.3942215276,-1.1808579531,2.0650059038,0.9511171758743099,-0.04673119072214818,0.06536258048718764,-51.549254603916985,-21.616486407483194,13.577901198479978
1699733611,9.3942215276,-1.1808579531,2.0650059038,0.9511171758743099,-0.04673119072214818,0.06536258048718764,-50.55539315989477,-21.51417714118679,12.525577316574102
1699733611,9.284151688,-0.9726823869,2.2061824372,0.913548963725132,-0.08093964406123703,0.12629638799743967,-51.06693949137679,-21.689564454837768,13.197895352236188
1699733611,9.284151688,-0.9726823869,2.2061824372,0.913548963725132,-0.08093964406123703,0.12629638799743967,-51.71002630809704,-21.54340836012862,13.124817304881613
1699733611,8.748159425599999,-0.9104689993,2.2157537276,0.7796167602502171,-0.10109819692177155,0.1829541388403056,-50.62847120724933,-21.85033615901783,12.890967553346973
1699733611,8.748159425599999,-0.9104689993,2.2157537276,0.7796167602502171,-0.10109819692177155,0.1829541388403056,-50.38000584624379,-21.5287927506577,12.87635194387606
1699733611,8.4658063588,-0.6592226263,2.0949161863,0.5838344514077531,-0.1316414588316723,0.16111570657472654,-51.11078631978954,-21.791873721134174,12.993276819643379
1699733611,8.4658063588,-0.6592226263,2.0949161863,0.5838344514077531,-0.1316414588316723,0.16111570657472654,-50.2923121894183,-21.85033615901783,12.481730488161356
1699733611,8.410771439,-0.1962114532,2.189432679,0.4375322268593285,-0.17699820276787492,0.04474587869800463,-50.70154925460392,-21.36802104647764,12.803273896521485
1699733611,8.410771439,-0.1962114532,2.189432679,0.36071592315592804,-0.26481008075883966,-0.11178833859023682,-50.86232095878398,-21.51417714118679,13.490207541654486
1699733611,8.4981094639,0.1866401628,2.3724836079,0.36071592315592804,-0.26481008075883966,-0.11178833859023682,-50.90616778719672,-21.499561531715873,14.045600701549255
1699733611,8.4981094639,0.5706881900999999,2.4227328825,0.3645338308946657,-0.3666718592283587,-0.2932153143350474,-50.86232095878398,-21.572639579070447,13.504823151125404
1699733611,8.739784546500001,0.5706881900999999,2.4227328825,0.3645338308946657,-0.3666718592283587,-0.2932153143350474,-50.64308681672026,-22.157263957907045,14.264834843612977
1699733611,9.353543543399999,1.0444670649,1.9298114269,0.4137084825696059,-0.4860960132960707,-0.49205194936850133,-50.59923998830751,-21.821104940076,14.410990938322128
1699733611,9.353543543399999,1.0444670649,1.9298114269,0.4137084825696059,-0.4860960132960707,-0.49205194936850133,-50.686933645133,-22.1134171294943,14.615609470914936
1699733611,10.969895209699999,1.5565311013,0.8602197247000001,0.41905355340383854,-0.639270471774223,-0.6684392868981782,-50.482315112540185,-22.566501023092663,14.995615317158725
1699733611,10.969895209699999,1.5565311013,0.8602197247000001,0.41905355340383854,-0.639270471774223,-0.6684392868981782,-50.52616194095294,-22.829581993569132,15.010230926629639
1699733611,12.177074211399999,1.7012968686,0.7441678286,0.35934147636998254,-0.8184067028757911,-0.7933612281096724,-50.438468284127445,-23.06343174510377,16.36948260742473
1699733611,12.177074211399999,1.7012968686,0.7441678286,0.35934147636998254,-0.8184067028757911,-0.7933612281096724,-51.08155510084771,-23.604209295527625,15.580239695995324
1699733611,11.1996061793,0.7872386353999999,1.9501504189999999,0.32925636338873027,-0.7831292353698556,-0.897208318603335,-51.16924875767319,-23.735749780765858,15.419467991815258
1699733611,11.1996061793,0.7872386353999999,1.9501504189999999,0.32925636338873027,-0.7831292353698556,-0.897208318603335,-50.74539608301666,-23.911137094416837,16.19409529377375
1699733611,11.4317099715,-0.107677017,2.1068802992999998,0.4616614037681501,-0.6126978339126093,-0.7851145473939992,-50.24846536100556,-24.15960245542239,16.267173341128323
1699733611,11.4317099715,-0.107677017,2.1068802992999998,0.4616614037681501,-0.6126978339126093,-0.7851145473939992,-50.33615901783104,-24.466530254311607,16.559485530546624
1699733611,13.7850509986,-1.0061819033000001,4.0450666053,0.7909177671568803,-0.5409211684243426,-0.5178610056823675,-50.13154048523823,-24.641917567962583,15.974861151710027
1699733611,13.7850509986,-1.0061819033000001,4.0450666053,0.7909177671568803,-0.5409211684243426,-0.5178610056823675,-50.160771704180064,-24.671148786904414,15.536392867582578
1699733611,12.8303147812,-3.6035908356,2.9276184511,0.8234463410909246,-0.28832839242946323,-0.03222314131494531,-50.204618532592804,-24.320374159602455,16.0479391990646
1699733611,12.8303147812,-3.6035908356,2.9276184511,0.8234463410909246,-0.28832839242946323,-0.03222314131494531,-50.02923121894183,-23.867290266004094,16.077170418006432
1699733611,10.508080447900001,-3.4612178908999995,0.7405785947,0.15989397609833053,-0.2105957908687658,0.598037068195857,-49.85384390529085,-23.58959368605671,16.778719672610347
1699733611,10.508080447900001,-3.4612178908999995,0.7405785947,0.15989397609833053,-0.2105957908687658,0.598037068195857,-50.26308097047647,-23.648056123940368,16.36948260742473
1699733611,8.757730716,-0.010767701699999998,0.7633104094,-0.08475755179997463,-0.1036943741841131,0.6175847558181935,-50.26308097047647,-23.574978076585793,16.471791873721134
1699733611,8.757730716,-0.010767701699999998,0.7633104094,-0.08475755179997463,-0.1036943741841131,0.6175847558181935,-50.67231803566209,-23.47266881028939,16.968722595732242
1699733611,7.0097738067,3.2386853891,0.5814558918,0.1980730534857065,-0.037720928458727446,0.41386119887915535,-50.07307804735458,-23.370359543992986,16.325635779011986
1699733611,7.0097738067,3.2386853891,0.5814558918,0.1980730534857065,-0.037720928458727446,0.41386119887915535,-50.14615609470915,-23.458053200818473,16.091786027477344
1699733611,7.1318077593,4.0235312019,0.20458633229999998,0.7515169592931085,-0.0755945732270044,0.10170906215996955,-49.75153463899444,-23.58959368605671,16.106401636948263
1699733611,7.1318077593,4.0235312019,0.20458633229999998,0.7515169592931085,-0.0755945732270044,0.10170906215996955,-50.219234142063726,-23.458053200818473,17.29026600409237
1699733611,8.542376681999999,3.5389846254,0.08135596839999999,0.9918924305240273,-0.23640484718263194,-0.18906279122228575,-50.04384682841274,-23.998830751242327,16.58871674948845
1699733611,8.542376681999999,3.5389846254,0.08135596839999999,0.9918924305240273,-0.23640484718263194,-0.18906279122228575,-50.058462437883655,-23.940368313358668,16.793335282081262
1699733611,9.9314102013,1.9920248145,-0.263210486,0.7632761151284202,-0.44486260971770464,-0.4286746809054573,-50.584624378836594,-24.174218064893303,18.44489915229465
1699733611,9.9314102013,1.9920248145,-0.263210486,0.7632761151284202,-0.44486260971770464,-0.4286746809054573,-50.2923121894183,-24.291142940660627,17.3194972230342
1699733611,10.281958712200002,-0.0191425808,-0.8985048863,0.24801128670839426,-0.6233879755810747,-0.5482515512827187,-50.0,-25.02192341420637,17.37795966091786
1699733611,10.281958712200002,-0.0191425808,-0.8985048863,0.24801128670839426,-0.6233879755810747,-0.5482515512827187,-50.40923706518562,-25.153463899444606,17.714118678748903
1699733611,9.8608219346,-0.5395814963,-0.9607182739,0.02107485071783153,-0.612850550222159,-0.5086980271093973,-49.912306343174514,-25.065770242619116,17.58257819351067
1699733611,9.8608219346,-0.5395814963,-0.9607182739,0.02107485071783153,-0.612850550222159,-0.5086980271093973,-49.94153756211634,-24.890382928968137,17.81642794504531
1699733611,9.6239324972,0.34097722049999996,-0.3038884702,0.005650503453331642,-0.5537493384265009,-0.32467487410224516,-50.24846536100556,-25.153463899444606,18.766442560654777
1699733611,9.6239324972,0.34097722049999996,-0.3038884702,0.005650503453331642,-0.5537493384265009,-0.32467487410224516,-50.496930722011115,-25.533469745688397,18.64951768488746
1699733611,9.4743810847,1.5589239239000001,0.40558343069999997,0.06994406977367276,-0.5114469206812884,-0.1821905572925581,-49.64922537269804,-25.387313650979248,18.839520608009355
1699733611,9.4743810847,1.5589239239000001,0.40558343069999997,0.06994406977367276,-0.5114469206812884,-0.1281289837120337,-49.50306927798889,-25.153463899444606,18.47413037123648
1699733611,9.1011007591,2.667997199,0.12681959780000002,0.3060434843372057,-0.4528038578142789,-0.1281289837120337,-49.839228295819936,-25.518854136217477,18.64951768488746
1699733611,9.1011007591,2.667997199,0.12681959780000002,0.37430767470583387,-0.3634648167278191,-0.14920383442986526,-50.07307804735458,-25.285004384682843,18.971061093247588
1699733611,8.6512501103,2.464607278,-1.1736794853,0.37430767470583387,-0.3634648167278191,-0.14920383442986526,-49.50306927798889,-25.75270388775212,18.664133294358376
1699733611,8.6512501103,2.464607278,-1.1736794853,0.2565634000431664,-0.32467487410224516,-0.218842471584439,-49.73691902952353,-25.69424144986846,19.380298158433206
1699733611,9.0400837828,1.4656038425,-2.2073788485,0.2565634000431664,-0.32467487410224516,-0.218842471584439,-50.24846536100556,-25.94270681087401,19.83338205203157
1699733611,9.0400837828,1.4656038425,-2.2073788485,0.03558290012503439,-0.37522397256313095,-0.2690861374262258,-49.37152879275066,-25.723472668810288,19.39491376790412
1699733611,9.9972128228,0.6113661743,-2.4574288102,0.03558290012503439,-0.37522397256313095,-0.2690861374262258,-49.254603916983335,-26.395790704472375,19.380298158433206
1699733611,9.9972128228,0.6113661743,-2.4574288102,-0.09422596299204386,-0.5203044666351596,-0.2677116906402802,-49.181525869628764,-26.16194095293774,20.24261911721719
1699733611,10.3956177857,0.14476576730000001,-1.8329021116,-0.09422596299204386,-0.5203044666351596,-0.2677116906402802,-49.38614440222157,-25.81116632563578,20.34492838351359
1699733611,10.3956177857,0.14476576730000001,-0.5898307709,0.059864793343405505,-0.6401867696315201,-0.2081523299159737,-49.035369774919616,-25.75270388775212,20.476468868751827
1699733611,10.0187482262,0.37567314820000003,-0.5898307709,0.059864793343405505,-0.6401867696315201,-0.2081523299159737,-49.459222449576146,-25.825781935106697,20.914937152879276
1699733611,9.744770038499999,0.8135596839999999,-0.3266202849,0.3107776899332403,-0.4854851480578727,-0.1430951820478851,-49.7076878105817,-26.001169248757673,20.491084478222742
1699733611,9.744770038499999,0.8135596839999999,-0.3266202849,0.3107776899332403,-0.4854851480578727,-0.1430951820478851,-49.51768488745981,-26.3227126571178,20.8418591055247
1699733611,9.6586284249,0.8482556117000001,-1.0384850084,0.47204611281751635,-0.3135265835051314,-0.10018189906447451,-49.94153756211634,-26.395790704472375,20.98801520023385
1699733611,9.6586284249,0.8482556117000001,-1.0384850084,0.47204611281751635,-0.3135265835051314,-0.10018189906447451,-49.415375621163406,-25.971938029815846,21.280327389652147
1699733611,9.7064848769,0.6113661743,-1.280160091,0.49480084294039245,-0.3089450942186463,-0.06643159465403417,-49.32768196433791,-26.19117217187957,21.36802104647764
1699733611,9.7064848769,0.6113661743,-1.280160091,0.49480084294039245,-0.3089450942186463,-0.06643159465403417,-49.47383805904707,-26.19117217187957,21.51417714118679
1699733611,9.5964150373,0.7202396026000001,-0.9918249677,0.38224892280240813,-0.34086280291449256,-0.017867808217291947,-49.254603916983335,-22.727272727272727,21.64571762642502
1699733611,9.5964150373,0.7202396026000001,-0.9918249677,0.21807889003669145,-0.3022255765984681,0.039706240482871,-49.13767904121602,-26.10347851505408,22.098801520023382
1699733611,9.509077012399999,1.1521440819,-0.9176474671,0.15271630954950383,-0.258854144686409,0.056505034533316414,-49.61999415375622,-26.19117217187957,21.309558608593978
1699733611,9.379864592,1.6498511827,-1.0097711372,0.15271630954950383,-0.258854144686409,0.056505034533316414,-48.903829289681376,-26.074247296112247,22.522654194679916
1699733611,9.4612205604,1.7419748528,-1.1138589203,0.10445795573186063,-0.2803871443328891,-0.05375614096142535,-48.55305466237942,-26.14732534346682,22.201110786319788
1699733612,9.8428757651,1.3579268255,-1.0947163395,0.06933320453547474,-0.30085112981252254,-0.12599095537834065,-48.87459807073955,-26.264250219234142,25.89885998246127
1699733612,9.9517491934,0.8829515394,-1.1688938401,-0.01832595714594046,-0.29046642076315626,-0.1710422666954443,-48.53843905290851,-26.20578778135048,23.048816135632855
1699733612,9.8177511278,0.48933222169999996,-1.3746765837,-0.0678060414399797,-0.25747969790046343,-0.1829541388403056,-48.436129786612106,-26.381175095001463,22.71265711780181
1699733612,9.8428757651,0.4163511324,-1.3124631961,-0.045356743936202634,-0.24113905277866657,-0.159130394550583,-48.78690441391406,-26.87810581701257,22.508038585209004
1699733612,10.0175518149,0.47138605219999996,-1.064806057,-0.03252857393404432,-0.22098049991813207,-0.11636982787672193,-48.87459807073955,-26.995030692779885,23.662671733411283
1699733612,9.8751788702,0.6352944003,-0.8027919822999999,-0.010842857978014772,-0.18081611050661253,-0.07880161572754397,-52.04618532592809,-27.009646302250808,23.311897106109324
1699733612,9.6969135865,0.8709874264,-1.0037890807,-0.011453723216212788,-0.027947084647559205,-0.06307183584394509,-48.94767611809412,-26.951183864367145,22.4057293189126
1699733612,9.5748796339,0.9990034355,-1.4189438018,-0.011453723216212788,-0.03390302071998985,-0.08399397025222712,-48.52382344343759,-27.08272434960538,22.771119555685473
1699733612,9.4767739073,1.0492527101,-1.5182459396999999,0.039706240482871,-0.07422012644105887,-0.09987646644537551,-48.81613563285589,-27.638117509500148,22.44957614732534
1699733612,9.4588277378,1.1569297271,-1.3028919057000001,0.11911872144861299,-0.10629055144645466,-0.10797043085149921,-48.75767319497223,-27.755042385267465,23.6772873428822
1699733612,9.5844509243,0.9714859755999999,-1.1282158559,0.11774427466266746,-0.09712757287348445,-0.12125674978230604,-48.304589301373866,-27.448114586378253,24.14498684595148
1699733612,9.4097748745,0.5898307709,-1.3986048097,0.0079412480965742,-0.06062837489115302,-0.12568552275924166,-49.049985384390524,-27.433498976907337,23.311897106109324
1699733612,9.3104727366,0.5240281494,-1.3232308977999998,-0.06429356632034111,-0.05711589977151443,-0.10766499823240021,-48.801520023384974,-27.725811166325638,22.829581993569132
1699733612,9.4193461649,0.6424728680999999,-1.064806057,-0.07147123286916779,-0.07788531787024697,-0.08811731061006371,-48.66997953814674,-28.120432622040337,23.706518561824026
1699733612,9.5330052384,0.7716852885,-0.8805587168,-0.07269296334556383,-0.08979719001510825,-0.08659014751456867,-48.626132709733994,-27.930429698918445,23.399590762934814
1699733612,9.495916488099999,0.7070790783,-0.9762716208,-0.15256359323995436,-0.06566801310628666,-0.09880745227852898,-48.801520023384974,-27.85735165156387,23.370359543992986
1699733612,9.3487578982,0.6388836341999999,-1.2969098492,-0.18493945086444913,-0.03466660226773737,-0.13713924597545443,-49.12306343174511,-28.690441391406026,23.487284419760304
1699733612,9.2303131795,0.7633104094,-1.3806586402,-0.1430951820478851,-0.045662176555301644,-0.18157969205436006,-48.9184448991523,-28.076585793627594,24.188833674364222
1699733612,9.3367937852,0.8386843212999999,-1.2311072277,-0.08384125394267761,-0.09926560120717749,-0.24159720170731505,-49.13767904121602,-28.675825781935103,23.487284419760304
1699733612,9.5138626576,0.7334001269,-1.2119646469,-0.028405233576207712,-0.13988813954734552,-0.3150537466006264,-48.64074831920491,-29.713534054370065,23.998830751242327
1699733612,9.549754996599999,0.5647061336,-1.3615160593999998,0.02703078679026218,-0.15027284859671178,-0.3749185399440319,-48.377667348728444,-29.713534054370065,23.428821981876645
1699733612,9.5054877785,0.5575276658,-1.4009976323,0.050549098460885775,-0.14538592669112765,-0.41218131947411085,-48.05612394036831,-29.36275942706811,23.00496930722011
1699733612,9.4002035841,0.6029912952,-1.4584253747,0.015424347264499889,-0.1438587635956326,-0.4495968153137393,-48.46536100555393,-30.181233557439345,23.574978076585793
1699733612,9.6012006825,0.5970092387,-1.591227029,-0.057574048700162944,-0.14370604728608313,-0.4958698571072389,-48.17304881613563,-30.34200526161941,23.823443437591347
1699733612,10.0701939121,0.4594219392,-1.6666009409,-0.13271047299851882,-0.16569719586121168,-0.5447390761630801,-48.0415083308974,-31.233557439345223,23.838059047062263
1699733612,10.0701939121,0.4594219392,-1.6666009409,-0.13271047299851882,-0.16569719586121168,-0.5447390761630801,-47.822274188833674,-31.64279450453084,24.583455130078924
1699733612,10.3872429066,0.143569356,-1.6007983194,-0.1311833099030238,-0.1684460894331027,-0.5868887775987432,-48.12920198772289,-31.335866705641624,23.896521484945925
1699733612,10.3872429066,0.143569356,-1.6007983194,-0.03940080786377199,-0.11255192013798433,-0.6049093021255847,-47.86612101724642,-32.41742180648933,24.30575855013154
1699733612,10.9782700888,-0.32542387359999997,-1.7216358607,-0.03940080786377199,-0.11255192013798433,-0.6049093021255847,-48.28997369190296,-32.227418883367434,23.50190002923122
1699733612,10.731809361,-0.6209374647,-2.057827436,0.12278391287780109,0.0022907446432425577,-0.535270664971011,-48.099970768781056,-32.154340836012864,24.13037123648056
1699733612,10.731809361,-0.6209374647,-2.057827436,0.12278391287780109,0.0022907446432425577,-0.535270664971011,-48.099970768781056,-32.2858813212511,23.3849751534639
1699733612,10.2735838331,-0.0801595571,-2.1631116304,0.3917173339944774,0.08903360846736075,-0.3633121004182696,-47.36919029523531,-32.02280035077463,23.706518561824026
1699733612,10.2735838331,-0.0801595571,-2.1631116304,0.3917173339944774,0.08903360846736075,-0.3633121004182696,-47.98304589301374,-32.402806197018414,23.896521484945925
1699733612,10.500901980099998,1.1976077113,-1.8053846516999998,0.681114740590787,0.08628471489546966,-0.17715091907742445,-48.08535515931015,-32.12510961707103,24.24729611224788
1699733612,10.500901980099998,1.1976077113,-1.8053846516999998,0.681114740590787,0.08628471489546966,-0.17715091907742445,-48.01227711195557,-31.920491084478225,23.428821981876645
1699733612,10.382457261399999,1.9824535241,-1.1461620254,0.9240863890840477,0.1036943741841131,-0.1359175154990584,-48.348436129786606,-31.818181818181817,23.7795966091786
1699733612,10.382457261399999,2.3976082452,-0.6460621019999999,1.0428996779135615,0.20861047884462225,-0.12263119656825158,-48.450745396083015,-31.686641332943584,23.41420637240573
1699733612,10.1551391144,2.3976082452,-0.6460621019999999,1.0428996779135615,0.20861047884462225,-0.12263119656825158,-48.31920491084478,-31.84741303712365,23.0926629640456
1699733612,10.366903914499998,2.4634108667000003,-0.4414757697,0.8994990632465776,0.3477350368442202,-0.07315111227421234,-48.304589301373866,-31.862028646594563,22.756503946214558
1699733612,10.366903914499998,2.4634108667000003,-0.4414757697,0.8994990632465776,0.3477350368442202,-0.07315111227421234,-49.26921952645426,-32.02280035077463,22.741888336743642
1699733612,10.666006739499998,2.057827436,-0.1698904046,0.5239696580643476,0.4163046598319474,-0.03283400655314333,-49.29845074539608,-31.964337912890965,22.727272727272727
1699733612,10.666006739499998,2.057827436,-0.1698904046,0.5239696580643476,0.4163046598319474,-0.03283400655314333,-48.94767611809412,-32.03741596024554,22.698041508330896
1699733612,10.832307910199999,1.4261222696,0.023928226,0.13713924597545443,0.45616361662436794,0.015271630954950384,-49.44460684010523,-31.686641332943584,22.858813212510963
1699733612,10.832307910199999,1.4261222696,0.023928226,0.13713924597545443,0.45616361662436794,0.015271630954950384,-50.04384682841274,-32.154340836012864,22.61034785150541
1699733612,10.9136638786,0.9176474671,0.36370903520000003,-0.14523321038157813,0.5068654313948032,0.0833831050140291,-49.67845659163987,-32.12510961707103,23.03420052616194
1699733612,10.9136638786,0.9176474671,0.36370903520000003,-0.3324634058892698,0.675616953447005,0.14614950823887515,-50.17538731365098,-32.154340836012864,21.572639579070447
1699733612,10.5714902468,0.0346959277,0.7513462964000001,-0.3324634058892698,0.675616953447005,0.14614950823887515,-50.058462437883655,-32.27126571178018,21.002630809704765
1699733612,9.9708917742,-1.2299108163999999,0.3146561719,-0.21135937241651329,0.9662360905197107,0.18356500407850362,-50.394621455714706,-31.949722303420053,20.798012277111955
1699733612,9.9708917742,-1.2299108163999999,0.3146561719,-0.21135937241651329,0.9662360905197107,0.18356500407850362,-50.59923998830751,-32.154340836012864,19.83338205203157
1699733612,9.4947200768,-1.3710873497999998,0.2117648001,0.2751947898082059,1.1633928461481202,0.29733865469288395,-51.34463607132418,-31.745103770827242,19.161064016369483
1699733612,9.4947200768,-1.3710873497999998,0.2117648001,0.2751947898082059,1.1633928461481202,0.29733865469288395,-51.60771704180064,-31.05817012569424,20.37415960245542
1699733612,8.8713897895,-0.287138712,0.1974078645,0.6887505560682623,1.3339769639149162,0.6006332454581986,-52.04618532592809,-30.795089155217774,18.488745980707396
1699733612,8.8713897895,-0.287138712,0.1974078645,0.6887505560682623,1.3339769639149162,0.6006332454581986,-52.17772581116633,-30.678164279450453,18.38643671441099
1699733612,8.985048863000001,1.5565311013,-0.35772697870000003,1.0285443448159084,1.4480560471483954,0.8620835674069491,-52.5431160479392,-29.684302835428237,17.977199649225373
1699733612,8.985048863000001,1.5565311013,-0.35772697870000003,1.0285443448159084,1.4480560471483954,0.8620835674069491,-51.50540777550424,-29.581993569131832,16.45717626425022
1699733612,9.5533442305,3.1800612354,-0.9475577495999999,1.2253956678252187,1.40040855856895,0.9743300549258345,-51.91464484068986,-28.54428529669687,16.384098216895644
1699733612,9.5533442305,3.1800612354,-0.9475577495999999,1.2253956678252187,1.40040855856895,0.9743300549258345,-51.9584916691026,-28.60274773458053,16.077170418006432
1699733612,9.93021379,4.1240297511,-1.1294122672,1.2029463703214416,1.2395982846133227,0.8869763258635183,-51.973107278573515,-28.39812920198772,15.200233849751536
1699733612,10.2065848003,4.331008906,-0.6532405698,0.9552405162321466,1.056338713153918,0.7709119306058954,-52.528500438468285,-27.85735165156387,14.893306050862321
1699733612,10.2065848003,4.331008906,-0.6532405698,0.9552405162321466,1.056338713153918,0.7709119306058954,-52.38234434375914,-26.892721426483483,14.790996784565916
1699733612,10.1647104048,4.0091742663,-0.1172483074,0.4447098934081552,0.8643743120501917,0.8503244115716373,-52.38234434375914,-26.87810581701257,11.356328558900906
1699733612,10.1647104048,4.0091742663,-0.1172483074,0.4447098934081552,0.8643743120501917,0.8503244115716373,-52.47003800058463,-26.381175095001463,14.586378251973105
1699733612,9.978070242000001,3.4325040196999996,0.23688943739999999,-0.25244005968532984,0.6652322443976387,0.8133670646606574,-52.89389067524116,-26.468868751826953,13.884828997369189
1699733612,9.978070242000001,3.4325040196999996,0.23688943739999999,-0.25244005968532984,0.6652322443976387,0.8133670646606574,-52.22157263957907,-25.95732242034493,13.680210464776382
1699733612,9.6012006825,2.4634108667000003,0.5527420206,-0.7258606192887916,0.4998404811555261,0.8122980504938109,-53.0254311604794,-25.475007307804738,13.56328558900906
1699733612,9.6012006825,2.4634108667000003,0.5527420206,-0.7258606192887916,0.4998404811555261,0.8122980504938109,-52.17772581116633,-25.84039754457761,14.542531423560362
1699733612,9.2913301558,1.375872995,0.6855436748999999,-0.7673994554862568,0.40103302887699704,0.7910704834664299,-53.06927798889214,-25.562700964630224,14.016369482607423
1699733612,9.2913301558,1.375872995,0.6855436748999999,-0.5407684521147931,0.3162754770770224,0.7527386897695043,-52.77696579947384,-25.445776088862903,13.168664133294358
1699733612,9.3391866078,0.5682953675,0.9032905315,-0.5407684521147931,0.3162754770770224,0.7527386897695043,-52.79158140894475,-24.978076585793627,13.25635779011985
1699733612,9.4420779796,-0.011964113,1.0540383553,-0.2313652089674983,0.2553416695667704,0.7510588103644599,-53.11312481730488,-24.437299035369776,13.431745103770828
1699733612,9.4420779796,-0.011964113,1.0540383553,-0.2313652089674983,0.2553416695667704,0.7510588103644599,-52.82081262788658,-23.487284419760304,13.475591932183573
1699733612,9.468399028199999,-0.3337987527,1.0145567824000001,0.0916297857297023,0.19181168479417682,0.7493789309594153,-52.70388775211926,-23.516515638702135,13.095586085939784
1699733613,9.468399028199999,-0.3337987527,1.0145567824000001,0.0916297857297023,0.19181168479417682,0.7493789309594153,-53.054662379421224,-23.47266881028939,12.920198772288805
1699733613,9.5736832226,-0.4689932296,0.7848458128,0.34086280291449256,0.09010262263420726,0.7431175622678857,-52.82081262788658,-23.428821981876645,12.890967553346973
1699733613,9.5736832226,-0.4689932296,0.7848458128,0.5505422959259613,0.010079276430267254,0.759000058461034,-52.30926629640456,-22.727272727272727,12.247880736626717
1699733613,9.5042913672,-0.8697910151,0.5623133109999999,0.5505422959259613,0.010079276430267254,0.759000058461034,-52.484653610055545,-22.28880444314528,12.525577316574102
1699733613,9.5042913672,-0.6496513358999999,0.48693939909999995,0.9149234105110775,-0.01038470904936626,0.7841982495367021,-52.89389067524116,-21.7187956737796,11.98479976615025
1699733613,9.2578306394,-0.6496513358999999,0.48693939909999995,0.9149234105110775,-0.01038470904936626,0.7841982495367021,-52.426191172171876,-21.309558608593978,11.444022215726395
1699733613,9.000602209899998,0.1495514125,0.5312066172,1.438893068575425,0.014049900478554353,0.7389942219100492,-52.60157848582286,-21.280327389652147,11.707103186202865
1699733613,9.000602209899998,0.1495514125,0.5312066172,1.438893068575425,0.014049900478554353,0.7389942219100492,-53.127740426775794,-21.01724641917568,11.794796843028355
1699733613,8.5591264402,1.3818550514999999,0.8398807326,1.8428277073338628,0.04321871560250958,0.6531676559432279,-53.3177433498977,-20.330312774042678,11.66325635779012
1699733613,8.5591264402,1.3818550514999999,0.8398807326,1.8428277073338628,0.04321871560250958,0.6531676559432279,-52.572347266881025,-20.16954106986261,11.926337328266587
1699733613,8.1990066389,2.3198415107,0.9463613382999999,1.853517849002328,-0.06475171524898962,0.5665775084286592,-52.630809704764694,-19.847997661502482,11.239403683133586
1699733613,8.1990066389,2.3198415107,0.9463613382999999,1.853517849002328,-0.06475171524898962,0.5665775084286592,-52.499269219526454,-19.584916691026017,11.166325635779012
1699733613,8.3198441802,2.5651058272,1.3375878334,1.6471981148009482,-0.25702154897181495,0.3819434901833091,-52.806197018415666,-19.672610347851503,11.63402513884829
1699733613,8.3198441802,2.5651058272,1.3375878334,1.3662001052298614,-0.3274237676741362,0.1672243589567067,-52.484653610055545,-19.555685472084186,11.648640748319206
1699733613,8.817551281,1.5816557385999999,1.9872391693,1.3662001052298614,-0.3274237676741362,0.1672243589567067,-52.55773165741011,-19.760304004676996,11.429406606255482
1699733613,9.523433948000001,0.299102825,2.3509482045,1.1992811788922537,-0.25228734337578035,0.030085112981252254,-51.929260450160776,-19.8626132709734,11.122478807366267
1699733613,9.523433948000001,0.299102825,2.3509482045,1.1992811788922537,-0.25228734337578035,0.030085112981252254,-52.6454253142356,-19.380298158433206,10.464776381175096
1699733613,9.4983093107,-0.6329015777,2.5052852621999997,1.131169704833175,-0.1275181184738357,-0.011759155835311794,-52.92312189418299,-19.117217187956737,11.137094416837181
1699733613,9.4983093107,-0.6329015777,2.5052852621999997,1.131169704833175,-0.1275181184738357,-0.011759155835311794,-52.806197018415666,-19.26337328266589,10.917860274773458
1699733613,9.407382051899999,-0.8398807326,2.1092731219,0.9720393102825919,-0.0277943683380097,0.05207626155638081,-53.14235603624671,-19.336451330020463,10.18707980122771
1699733613,9.407382051899999,-0.8398807326,2.1092731219,0.9720393102825919,-0.0277943683380097,0.05207626155638081,-52.806197018415666,-18.927214264834845,10.47939199064601
1699733613,9.655039191,-0.8207381518,1.5684952143000002,0.7838928169176032,-0.010079276430267254,0.10812314716104872,-52.47003800058463,-19.336451330020463,11.429406606255482
1699733613,9.655039191,-0.8207381518,1.5684952143000002,0.7838928169176032,-0.010079276430267254,0.10812314716104872,-52.528500438468285,-19.2779888921368,10.289389067524116
1699733613,9.726823869,-0.7668996433,1.7407784414999998,0.6589708757061091,-0.01557706357404939,0.13332133823671685,-52.13387898275358,-18.927214264834845,10.53785442852967
1699733613,9.726823869,-0.7668996433,1.7407784414999998,0.6589708757061091,0.012370021073509811,0.14981469966806327,-52.353113124817305,-18.8833674364221,10.5670856474715
1699733613,9.5928258034,-0.5120640364,1.8568303376,0.7015787260704206,0.012370021073509811,0.14981469966806327,-52.32388190587548,-19.146448406898568,10.09938614440222
1699733613,9.1477607998,-0.705882667,2.0434705004000002,0.675311520827906,0.038484510006474966,0.1742493091959839,-52.5431160479392,-18.50336159017831,9.558608593978368
1699733613,9.1477607998,-0.705882667,2.0434705004000002,0.675311520827906,0.038484510006474966,0.1742493091959839,-52.70388775211926,-18.956445483776672,10.070154925460391
1699733613,8.9575314031,-1.208375413,2.03389921,0.6212499472473816,0.0716239491787173,0.18493945086444913,-52.77696579947384,-18.53259280912014,9.23706518561824
1699733613,8.9575314031,-1.208375413,2.03389921,0.6212499472473816,0.0716239491787173,0.18493945086444913,-52.47003800058463,-18.26951183864367,9.602455422391113
1699733613,9.3631148338,-1.5266208188,2.0195422744,0.6633996486830446,0.012370021073509811,0.18768834443634022,-52.952353113124815,-18.079508915521778,9.5878398129202
1699733613,9.3631148338,-1.5266208188,2.0195422744,0.6633996486830446,0.012370021073509811,0.18768834443634022,-51.929260450160776,-17.860274773458055,9.368605670856475
1699733613,9.332008140000001,-1.6761722313,2.0566310246999997,0.8225300432336277,-0.07299839596466283,0.1828014225307561,-52.28003507746273,-18.10874013446361,9.280912014030985
1699733613,9.332008140000001,-1.6761722313,2.0566310246999997,0.7994698804916526,-0.13805554383275148,0.15134186276355832,-52.1631102016954,-17.874890382928967,9.821689564454838
1699733613,8.605786480899999,-1.7814564256999998,1.7539389658,0.7994698804916526,-0.13805554383275148,0.15134186276355832,-52.38234434375914,-17.889505992399883,8.608593978368898
1699733613,8.2660056717,-1.543370577,1.4189438018,0.6117815360553124,-0.26129760563920107,0.08506298441907365,-52.38234434375914,-17.78719672610348,8.959368605670855
1699733613,8.2660056717,-1.543370577,1.4189438018,0.6117815360553124,-0.26129760563920107,0.08506298441907365,-52.44080678164279,-18.152586962876352,9.850920783396667
1699733613,8.2600236152,-0.5766702466,1.4739787216,0.6432410958225101,-0.3854559653029477,-0.0198531202414355,-52.353113124817305,-17.991815258696285,9.646302250803858
1699733613,8.2600236152,-0.5766702466,1.4739787216,0.6432410958225101,-0.3854559653029477,-0.0198531202414355,-52.03156971645717,-17.991815258696285,10.084770534931305
1699733613,8.5232341012,0.3553341561,1.5529418674,0.8173376887089445,-0.48212538924778364,-0.20158552860534507,-52.528500438468285,-17.509500146156096,10.304004676995032
1699733613,8.5232341012,0.3553341561,1.5529418674,0.8173376887089445,-0.48212538924778364,-0.20158552860534507,-51.88541362174802,-18.050277696579947,10.917860274773458
1699733613,9.3966143502,1.1282158559,1.2921242039999998,0.9807441399269137,-0.5910121179565798,-0.41233403578366035,-51.8561824028062,-18.517977199649224,10.50862320958784
1699733613,9.3966143502,1.1282158559,1.2921242039999998,0.9807441399269137,-0.5910121179565798,-0.41233403578366035,-51.9584916691026,-19.058754750073078,10.976322712657117
1699733613,11.3551396483,2.1212372348999997,0.4630111731,1.0395399191034727,-0.759000058461034,-0.5725334445010899,-52.13387898275358,-18.971061093247588,10.917860274773458
1699733613,11.3551396483,2.1212372348999997,0.4630111731,0.8686503687175778,-0.958752991351785,-0.6911940170210543,-52.1631102016954,-19.365682548962294,11.020169541069864
1699733613,12.5635150613,2.1834506225,0.9044869428,0.8686503687175778,-0.958752991351785,-0.6911940170210543,-51.62233265127156,-19.789535223618827,11.75095001461561
1699733613,12.2201450182,2.1667008643,2.4179472373,0.9376781406339536,-0.9169087225352209,-0.7870998594181428,-52.016954106986255,-20.403390821397252,11.137094416837181
1699733613,12.2201450182,2.1667008643,2.4179472373,0.9376781406339536,-0.9169087225352209,-0.7870998594181428,-52.09003215434084,-20.34492838351359,12.657117801812333
1699733613,12.299108164000002,1.91425808,4.0881374121,1.1650727255531648,-0.579558394740367,-0.7307475411943758,-52.30926629640456,-20.403390821397252,10.888629055831627
1699733613,12.299108164000002,1.91425808,4.0881374121,1.1650727255531648,-0.579558394740367,-0.7307475411943758,-52.51388482899737,-20.18415667933353,11.31248173048816
1699733613,12.765708571,0.143569356,3.9625142255999997,1.117883385902368,-0.21426098229795387,-0.51709742413462,-52.39695995323005,-20.578778135048232,11.31248173048816
1699733613,12.765708571,0.143569356,3.9625142255999997,1.117883385902368,-0.21426098229795387,-0.51709742413462,-52.5431160479392,-20.710318620286465,11.60479391990646
1699733613,11.5968147309,-2.6488546182,1.4201402131,0.20769418098732523,-0.15622878466914242,-0.00717766654882668,-52.66004092370652,-20.19877228880444,12.408652440806781
1699733613,11.5968147309,-2.6488546182,1.4201402131,0.20769418098732523,-0.15622878466914242,-0.00717766654882668,-53.405437006723176,-20.593393744519144,11.385559777842737
1699733613,9.2446701151,-1.2143574695,1.2167502921,-0.7154759102394255,-0.12125674978230604,0.26939157004532477,-52.87927506577025,-20.052616194095293,12.101724641917567
1699733613,7.7694949822,1.6354942471,-0.0299102825,-0.6206390820091836,-0.016187928812247405,0.27611108766550296,-52.03156971645717,-20.228003507746273,12.306343174510378
1699733613,7.7694949822,1.6354942471,-0.0299102825,-0.6206390820091836,-0.016187928812247405,0.27611108766550296,-52.09003215434084,-20.16954106986261,12.730195849166911
1699733613,7.8065837325,2.9659036127,-0.9846464999,-0.00015271630954950385,-0.07391469382195986,0.09101892049150428,-52.30926629640456,-20.00876936568255,12.335574393452207
1699733613,7.8065837325,2.9659036127,-0.9846464999,-0.00015271630954950385,-0.07391469382195986,0.09101892049150428,-52.30926629640456,-20.301081555100847,12.35019000292312
1699733613,8.0817583315,3.2626136151000003,-1.1665010175000001,0.6473644361803468,-0.15699236621688992,-0.14278974942878608,-52.39695995323005,-20.301081555100847,11.69248757673195
1699733613,8.0817583315,3.2626136151000003,-1.1665010175000001,0.7687739022722023,-0.2521346270662308,-0.2628247687346961,-56.12394036831336,-20.944168371821103,12.247880736626717
1699733613,8.7278204335,2.6823541346,-1.1641081949,0.7687739022722023,-0.2521346270662308,-0.2628247687346961,-52.36772873428822,-20.798012277111955,11.955568547208419
1699733613,9.2111705987,0.8697910151,-1.5278172301,0.4717406801984173,-0.5241223743738972,-0.4543310209097739,-52.70388775211926,-20.81262788658287,13.08097047646887
1699733613,9.2111705987,0.8697910151,-1.5278172301,0.4717406801984173,-0.5241223743738972,-0.4543310209097739,-52.353113124817305,-21.36802104647764,12.569424144986845
1699733613,9.2697947524,-0.7214360139,-1.3806586402,0.08857545953871222,-0.7469354700066233,-0.5493205654495653,-53.11312481730488,-21.33878982753581,13.095586085939784
1699733613,9.2697947524,-0.7214360139,-1.3806586402,0.08857545953871222,-0.7469354700066233,-0.5493205654495653,-52.426191172171876,-21.73341128325051,13.76790412160187
1699733613,9.248259349,-0.8099704500999999,-0.8267202082999999,0.09040805525330627,-0.6850853646390742,-0.3793473129209675,-52.630809704764694,-21.64571762642502,13.490207541654486
1699733613,9.248259349,-0.8099704500999999,-0.8267202082999999,0.09040805525330627,-0.6850853646390742,-0.3793473129209675,-52.30926629640456,-21.382636655948552,13.91406021631102
1699733613,9.475577496,1.0815558152,-0.0777667345,0.2787072649278445,-0.5994115149818026,-0.09392053037294486,-52.66004092370652,-21.309558608593978,14.542531423560362
1699733613,9.475577496,1.0815558152,-0.0777667345,0.4127921847123089,-0.5290092962794812,0.05482515512827187,-52.353113124817305,-20.681087401344637,14.367144109909383
1699733613,9.8321080634,3.2566315586,0.5958128274,0.4127921847123089,-0.5290092962794812,0.05482515512827187,-51.75387313650979,-21.002630809704765,14.659456299327683
1699733613,9.7184489899,3.3128628897,-0.3062812928,0.45020768055193733,-0.36850445494295275,-0.05497787143782138,-51.973107278573515,-20.914937152879276,14.410990938322128
1699733613,9.7184489899,3.3128628897,-0.3062812928,0.45020768055193733,-0.36850445494295275,-0.05497787143782138,-52.148494592224495,-20.944168371821103,13.621748026892721
1699733613,9.702895643,1.9070796122,-1.758724611,0.37430767470583387,-0.24694227254154769,-0.2513710455184833,-52.38234434375914,-21.07570885705934,14.162525577316574
1699733613,9.702895643,1.9070796122,-1.758724611,0.37430767470583387,-0.24694227254154769,-0.2513710455184833,-51.63694826074248,-21.616486407483194,15.521777258111664
1699733613,10.037890807,0.4989035121,-2.1966111468,0.12110403347275654,-0.2825251726665821,-0.3249803067213442,-52.148494592224495,-21.484945922244957,14.352528500438469
1699733613,10.037890807,0.4989035121,-2.1966111468,0.12110403347275654,-0.2825251726665821,-0.3249803067213442,-52.45542239111371,-22.14264834843613,14.717918737211342
1699733613,10.316654639900001,-0.1543370577,-1.8520446924,-0.11438451585257838,-0.3549127033930469,-0.2952006263591909,-52.148494592224495,-22.1134171294943,15.726395790704473
1699733613,10.316654639900001,-0.1543370577,-1.8520446924,-0.11438451585257838,-0.3549127033930469,-0.2952006263591909,-52.17772581116633,-21.923414206372406,15.784858228588133
1699733613,9.8763752815,-0.1507478238,-1.208375413,0.04520402762665313,-0.3718642137530418,-0.22403482610912212,-51.91464484068986,-21.90879859690149,16.121017246419175
1699733613,9.8763752815,-0.1507478238,-1.208375413,0.04520402762665313,-0.3718642137530418,-0.22403482610912212,-52.19234142063725,-22.1134171294943,16.734872844197604
1699733613,9.4911308429,0.6628118601999999,-0.9068797654,0.4960225734167885,-0.30024026457432457,-0.10109819692177155,-52.148494592224495,-21.572639579070447,15.887167494884535
1699733613,9.4911308429,0.6628118601999999,-0.9068797654,0.4960225734167885,-0.30024026457432457,-0.10109819692177155,-52.28003507746273,-21.674948845366853,16.39871382636656
1699733613,9.4265246327,1.1090732750999999,-1.0372885971,0.715017761310777,-0.219147904203538,-0.04505131131710363,-52.426191172171876,-22.44957614732534,16.48640748319205
1699733613,9.4265246327,1.1090732750999999,-1.0372885971,0.536492395447407,-0.22159136515633004,-0.04505131131710363,-52.426191172171876,-21.689564454837768,16.296404560070155
1699733613,9.621539674600001,0.9487541609,-0.9164510558,0.536492395447407,-0.22159136515633004,-0.04505131131710363,-52.30926629640456,-22.08418591055247,15.726395790704473
1699733613,9.8871429832,0.42233318890000004,-0.9379864592,0.2075414646777757,-0.2428189321837111,-0.0438295808407076,-51.75387313650979,-21.821104940076,15.770242619117218
1699733613,9.8871429832,0.42233318890000004,-0.9379864592,0.2075414646777757,-0.2428189321837111,-0.0438295808407076,-51.9584916691026,-21.73341128325051,15.98947676118094
1699733613,9.6000042712,0.6903293201,-0.8303094421999999,0.2632829176633446,-0.23258693944389433,-0.0635299847725936,-52.3384975153464,-22.08418591055247,16.208710903244665
1699733613,9.6000042712,0.6903293201,-0.8303094421999999,0.2632829176633446,-0.23258693944389433,-0.0635299847725936,-51.78310435545163,-21.952645425314234,16.57410114001754
1699733613,9.2303131795,1.1904292435000001,-0.801595571,0.3901901708989823,-0.19410242943741937,-0.10155634585042005,-52.58696287635194,-21.967261034785153,15.799473838059047
1699733613,9.2303131795,1.1904292435000001,-0.801595571,0.3901901708989823,-0.19410242943741937,-0.10155634585042005,-52.26541946799181,-22.44957614732534,16.091786027477344
1699733613,9.2099741874,1.2837493249,-0.9942177902999999,0.3746131073249329,-0.1908953869368798,-0.16157385550337505,-52.23618824904999,-21.90879859690149,17.46565331774335
1699733614,9.3296153174,1.1389835576,-1.0420742423,0.4046982203061852,-0.2310597763483993,-0.23044891111020127,-52.1631102016954,-22.508038585209004,16.325635779011986
1699733614,9.3296153174,1.1389835576,-1.0420742423,0.4046982203061852,-0.2310597763483993,-0.23044891111020127,-52.499269219526454,-22.02572347266881,16.983338205203157
1699733614,9.702895643,0.7286144817,-1.3052847283,0.44806965221824424,-0.2590068609959585,-0.30986139207594326,-52.60157848582286,-22.303420052616193,16.39871382636656
1699733614,9.702895643,0.7286144817,-1.3052847283,0.44806965221824424,-0.2590068609959585,-0.30986139207594326,-52.28003507746273,-21.791873721134174,16.36948260742473
1699733614,9.980463064599999,0.1543370577,-1.4668002538,0.42455134054762067,-0.30314187445576507,-0.36086863946547754,-52.17772581116633,-22.61034785150541,16.296404560070155
1699733614,9.980463064599999,0.1543370577,-1.4668002538,0.42455134054762067,-0.30314187445576507,-0.36086863946547754,-52.075416544869924,-23.107278573516517,17.3194972230342
1699733614,9.7603233854,-0.1842473402,-1.1174481541999999,0.4127921847123089,-0.35949419267953203,-0.34880405101106676,-51.84156679333528,-23.0926629640456,16.354866997953817
1699733614,9.7603233854,-0.1842473402,-1.1174481541999999,0.4127921847123089,-0.35949419267953203,-0.34880405101106676,-52.13387898275358,-22.931891259865537,16.58871674948845
1699733614,9.7351987481,0.056231331100000004,-0.6424728680999999,0.47662760210400146,-0.3692680364907003,-0.26939157004532477,-52.09003215434084,-22.698041508330896,17.37795966091786
1699733614,9.7351987481,0.056231331100000004,-0.6424728680999999,0.5948300256953174,-0.3226895620781016,-0.18142697574481054,-51.46156094709149,-23.136509792458344,16.150248465361006
1699733614,9.8021977809,0.8685946038000001,-0.2727817764,0.5948300256953174,-0.3226895620781016,-0.18142697574481054,-52.30926629640456,-22.668810289389068,16.895644548377668
1699733614,9.7160561673,1.2430713407,-0.34815568830000004,0.5711589977151443,-0.22693643599056268,-0.14859296919166723,-52.26541946799181,-26.132709733995906,17.173341128325053
1699733614,9.7160561673,1.2430713407,-0.34815568830000004,0.5711589977151443,-0.22693643599056268,-0.14859296919166723,-51.84156679333528,-22.858813212510963,17.743349897690734
1699733614,9.8476614103,1.4416756165,-0.5419743189,0.47510043900850646,-0.17730363538697394,-0.13469578502266238,-52.016954106986255,-22.537269804150835,17.100263080970475
1699733614,9.8476614103,1.4416756165,-0.5419743189,0.47510043900850646,-0.17730363538697394,-0.13469578502266238,-52.148494592224495,-23.048816135632855,16.778719672610347
1699733614,9.923035322199999,1.7766707805,-0.610169763,0.4045455039966357,-0.17027868514769676,-0.11453723216212788,-52.5431160479392,-22.244957614732535,16.705641625255772
1699733614,9.923035322199999,1.7766707805,-0.610169763,0.4045455039966357,-0.17027868514769676,-0.11453723216212788,-52.26541946799181,-22.347266881028936,17.261034785150542
1699733614,9.7663054419,1.9310078382,-0.6747759731999999,0.29871310147882946,-0.1350012176417614,-0.10629055144645466,-51.79771996492254,-22.332651271558024,17.129494299912306
1699733614,9.7663054419,1.9310078382,-0.6747759731999999,0.14172073526193954,-0.0954476934684399,-0.0957531260875389,-52.5431160479392,-22.814966384098216,16.091786027477344
1699733614,9.6681997153,1.8161523534,-0.8721838377000001,0.14172073526193954,-0.0954476934684399,-0.0957531260875389,-51.94387605963169,-23.20958783981292,16.237942122186492
1699733614,9.6263253198,1.5900306177,-1.0995019847,0.07513642429835589,-0.07330382858376185,-0.1189660051390635,-51.9584916691026,-22.61034785150541,16.413329435837472
1699733614,9.6263253198,1.5900306177,-1.0995019847,0.07513642429835589,-0.07330382858376185,-0.1189660051390635,-52.10464776381175,-23.107278573516517,16.354866997953817
1699733614,9.3607220112,1.1832507757,-1.3615160593999998,0.047342055960346185,-0.061086523819801536,-0.1719585645527413,-51.49079216603333,-23.23881905875475,16.471791873721134
1699733614,9.3607220112,1.1832507757,-1.3615160593999998,0.047342055960346185,-0.061086523819801536,-0.1719585645527413,-51.76848874598071,-22.844197603040048,16.632563577901198
1699733614,9.0999043478,0.6891329087999999,-1.5589239239000001,0.0013744467859455344,-0.06872233929727672,-0.2386955918258745,-52.002338497515346,-23.107278573516517,17.58257819351067
1699733614,9.0999043478,0.6891329087999999,-1.5589239239000001,0.0013744467859455344,-0.06872233929727672,-0.2386955918258745,-52.03156971645717,-23.44343759134756,17.3194972230342
1699733614,9.2973122123,0.16749758199999998,-1.6354942471,-0.07467827536970736,-0.09300423251564784,-0.2962696405260375,-51.563870213387894,-23.44343759134756,16.57410114001754
1699733614,9.2973122123,0.16749758199999998,-1.6354942471,-0.07467827536970736,-0.09300423251564784,-0.2962696405260375,-51.9584916691026,-23.487284419760304,17.041800643086816
1699733614,9.6705925379,0.0669990328,-1.3196416639,-0.05345070834232634,-0.16707164264715718,-0.29642235683558693,-52.002338497515346,-23.370359543992986,16.793335282081262
1699733614,9.6705925379,0.0669990328,-1.3196416639,0.10415252311276162,-0.1950187272947164,-0.2756529387368544,-52.28003507746273,-23.516515638702135,17.217187956737796
1699733614,9.7363951594,0.3218346397,-0.9188438784,0.10415252311276162,-0.1950187272947164,-0.2756529387368544,-52.29465068693364,-23.998830751242327,16.997953814674073
1699733614,9.621539674600001,0.5694917788,-1.040877831,0.23961188968317151,-0.11560624632897441,-0.26419921552064163,-51.91464484068986,-24.188833674364222,18.24028061970184
1699733614,9.621539674600001,0.5694917788,-1.040877831,0.23961188968317151,-0.11560624632897441,-0.26419921552064163,-51.98772288804443,-24.6565331774335,18.357205495469163
1699733614,9.2458665264,0.5611168997,-1.4165509792000002,0.17760906800607296,-0.026572637861613665,-0.257632414210013,-52.5431160479392,-24.408067816427945,17.480268927214265
1699733614,9.2458665264,0.5611168997,-1.4165509792000002,0.17760906800607296,-0.026572637861613665,-0.257632414210013,-53.01081555100847,-24.261911721718796,17.334112832505117
1699733614,9.116654106,0.5539384319,-1.483550012,0.021685715956029545,-0.03787364476827695,-0.25564710218586945,-52.47003800058463,-24.524992692195262,17.01256942414499
1699733614,9.116654106,0.5539384319,-1.483550012,0.021685715956029545,-0.03787364476827695,-0.25564710218586945,-52.075416544869924,-24.919614147909968,18.26951183864367
1699733614,9.1800639049,0.4366901245,-1.3100703735,-0.08063421144213803,-0.08704829644321718,-0.2758056550464039,-52.71850336159017,-24.641917567962583,18.44489915229465
1699733614,9.1800639049,0.4366901245,-1.3100703735,-0.10064004799312304,-0.07880161572754397,-0.317955356482067,-52.38234434375914,-25.03653902367729,18.371821104940075
1699733614,9.5533442305,0.3744767369,-1.1545369045,-0.10064004799312304,-0.07880161572754397,-0.317955356482067,-52.17772581116633,-25.051154633148204,18.70798012277112
1699733614,10.2041919777,0.24167508259999998,-1.4069796888000001,-0.079412480965742,-0.03298672286269283,-0.3541491218452994,-52.89389067524116,-24.934229757380884,18.21104940076001
1699733614,10.2041919777,0.24167508259999998,-1.4069796888000001,-0.079412480965742,-0.03298672286269283,-0.3541491218452994,-52.484653610055545,-25.401929260450164,18.44489915229465
1699733614,10.7952191599,-0.0131605243,-1.9238293703999998,-0.03130684345764829,0.02641992155206416,-0.3726277953007894,-51.9584916691026,-25.884244372990356,18.79567377959661
1699733614,10.7952191599,-0.0131605243,-1.9238293703999998,-0.03130684345764829,0.02641992155206416,-0.3726277953007894,-51.98772288804443,-25.43116047939199,18.050277696579947
1699733614,10.332207986799999,0.040677984199999996,-2.2313070745,0.13423763609401387,0.11071932442339028,-0.3089450942186463,-51.71002630809704,-25.679625840397545,17.670271850336157
1699733614,10.332207986799999,0.040677984199999996,-2.2313070745,0.13423763609401387,0.11071932442339028,-0.3089450942186463,-51.476176556562415,-25.869628763519437,17.743349897690734
1699733614,10.420742422999998,0.4414757697,-2.4897319153,0.4657847441259867,0.2081523299159737,-0.20250182646264206,-52.353113124817305,-25.69424144986846,17.01256942414499
1699733614,10.420742422999998,0.4414757697,-2.4897319153,0.4657847441259867,0.2081523299159737,-0.20250182646264206,-52.10464776381175,-25.416544869921076,17.14410990938322
1699733614,11.107482509199999,1.5349956979000001,-2.15354034,0.8423831634750631,0.13698652966590494,-0.0795651972752915,-51.49079216603333,-25.299619994153755,17.304881613563285
