timestamp,acc-x,acc-y,acc-z,gyr-x,gyr-y,gyr-z,mag-x,mag-y,mag-z
1700085189,0.9707883739041795,-0.19513334148827727,0.132324797196738,0.014813482026301871,-0.03375030441044035,-0.011453723216212788,-58.08243203741596,-19.044139140602162,-23.32651271558024
1700085189,0.969934665535168,-0.2041582585321101,0.13439808895005095,0.002901609881440573,-0.03375030441044035,-0.010537425358915765,-58.34551300789242,-18.751826951183865,-23.633440514469452
1700085189,0.9692029155045871,-0.20159713342507643,0.1333004639041794,0.0035124751196385882,-0.03390302071998985,-0.012675453692608817,-58.93013738672903,-18.927214264834845,-23.078047354574686
1700085189,0.9732275406727828,-0.2007434250560652,0.1306173804587156,0.003817907738737596,-0.036193765363232405,-0.012675453692608817,-58.62320958783981,-19.117217187956737,-23.6772873428822
1700085189,0.9692029155045871,-0.21037813379204892,0.1337882972579001,-0.001832595714594046,-0.03283400655314333,-0.01313360262125733,-57.80473545746858,-18.62028646594563,-23.633440514469452
1700085189,0.9674954987665647,-0.20062146671763506,0.13622746402650354,0.01313360262125733,-0.03481931857728687,-0.015424347264499889,-58.47705349313066,-19.365682548962294,-23.9695995323005
1700085189,0.9713981655963302,-0.19281613305810397,0.13183696384301732,0.012675453692608817,-0.037720928458727446,-0.015424347264499889,-57.731657410114,-18.693364513300203,-23.560362467114878
1700085189,0.9713981655963302,-0.19281613305810397,0.13183696384301732,0.012675453692608817,-0.037720928458727446,-0.015424347264499889,-58.09704764688688,-18.53259280912014,-22.478807366267173
1700085189,0.9732275406727828,-0.2040363001936799,0.13220283885830783,0.0,-0.039706240482871,-0.009773843811168246,-57.89242911429406,-19.00029231218942,-22.1134171294943
1700085189,0.9732275406727828,-0.2040363001936799,0.13220283885830783,0.0,-0.039706240482871,-0.009773843811168246,-57.83396667641041,-18.591055247003798,-22.931891259865537
1700085189,0.9720079572884811,-0.20428021687054027,0.13317850556574923,0.008704829644321718,-0.03527746750593539,-0.006414085001079161,-57.95089155217773,-18.50336159017831,-22.771119555685473
1700085189,0.9720079572884811,-0.20428021687054027,0.13317850556574923,0.008704829644321718,-0.03527746750593539,-0.006414085001079161,-58.418591055247006,-19.219526454253142,-22.49342297573809
1700085189,0.9684711654740061,-0.19732859158002036,0.13537375565749235,0.02229658119422756,-0.03298672286269283,-0.003665191429188092,-58.038585209003216,-19.248757673194973,-22.303420052616193
1700085189,0.9684711654740061,-0.19732859158002036,0.13537375565749235,0.02229658119422756,-0.03298672286269283,-0.003665191429188092,-58.37474422683427,-18.766442560654777,-22.61034785150541
1700085189,0.9676174571049948,-0.20476805022426095,0.13573963067278288,0.011606439525762293,-0.03512475119638588,-0.0016798794050445422,-57.629348143817595,-18.53259280912014,-22.902660040923706
1700085189,0.9676174571049948,-0.20476805022426095,0.13573963067278288,0.014049900478554353,-0.04046982203061852,-0.002748893571891069,-57.43934522069571,-18.941829874305757,-22.186495176848876
1700085189,0.9654222070132517,-0.21184163385321098,0.1359835473496432,0.014049900478554353,-0.04046982203061852,-0.002748893571891069,-58.038585209003216,-18.751826951183865,-22.186495176848876
1700085189,0.9654222070132517,-0.21184163385321098,0.1359835473496432,0.029321531433504737,-0.04871650274629172,-0.007483099167925688,-58.19935691318327,-18.810289389067524,-22.25957322420345
1700085189,0.9653002486748217,-0.2000116750254842,0.13769096408766562,0.029321531433504737,-0.04871650274629172,-0.007483099167925688,-57.98012277111956,-18.547208418591055,-22.303420052616193
1700085189,0.9653002486748217,-0.2000116750254842,0.1359835473496432,0.02428189321837111,-0.05711589977151443,-0.010079276430267254,-58.184741303712364,-18.605670856474717,-22.303420052616193
1700085189,0.9671296237512741,-0.1986701333027523,0.1359835473496432,0.02428189321837111,-0.05711589977151443,-0.010079276430267254,-58.0239695995323,-18.971061093247588,-22.201110786319788
1700085189,0.974691040733945,-0.20269475847094798,0.132324797196738,0.018173240836390957,-0.062002821677098564,-0.009773843811168246,-57.70242619117217,-18.79567377959661,-22.771119555685473
1700085189,0.974691040733945,-0.20269475847094798,0.132324797196738,0.018173240836390957,-0.062002821677098564,-0.009773843811168246,-57.410114001753875,-19.014907921660335,-22.46419175679626
1700085189,0.9698127071967381,-0.19562117484199795,0.13086129713557593,0.023823744289722597,-0.05528330405692039,-0.008857545953871221,-57.351651563870206,-19.234142063724057,-22.698041508330896
1700085189,0.9698127071967381,-0.19562117484199795,0.13086129713557593,0.023823744289722597,-0.05528330405692039,-0.008857545953871221,-57.731657410114,-19.058754750073078,-22.05495469161064
1700085189,0.9737153740265035,-0.1990360083180428,0.13244675553516816,0.018936822384138473,-0.05406157358052436,-0.003817907738737596,-57.965507161648645,-18.810289389067524,-22.25957322420345
1700085189,0.9737153740265035,-0.1990360083180428,0.13244675553516816,0.018936822384138473,-0.05406157358052436,-0.003817907738737596,-57.79011984799766,-18.70798012277112,-21.85033615901783
1700085189,0.9694468321814476,-0.2018410501019368,0.13342242224260956,0.020463985479633514,-0.05146539631818279,-0.0006108652381980154,-57.79011984799766,-19.424144986845953,-21.572639579070447
1700085189,0.9694468321814476,-0.2018410501019368,0.13342242224260956,0.020463985479633514,-0.05146539631818279,-0.0006108652381980154,-57.731657410114,-19.204910844782226,-22.43496053785443
1700085189,0.9700566238735983,-0.19915796665647298,0.1333004639041794,0.025961772623415653,-0.05253441048502932,0.00015271630954950385,-58.111663256357794,-18.8833674364221,-21.309558608593978
1700085189,0.9700566238735983,-0.19915796665647298,0.1333004639041794,0.025961772623415653,-0.05253441048502932,0.00015271630954950385,-58.06781642794504,-19.014907921660335,-21.938029815843322
1700085189,0.9720079572884811,-0.19610900819571864,0.13086129713557593,0.018631389765039467,-0.0516181126277323,-0.0004581489286485115,-57.87781350482315,-19.029523531131247,-22.02572347266881
1700085189,0.9720079572884811,-0.19610900819571864,0.13086129713557593,0.018631389765039467,-0.0516181126277323,-0.0004581489286485115,-57.731657410114,-18.357205495469163,-21.87956737795966
1700085189,0.9707883739041795,-0.2063535086238532,0.13049542212028542,0.007330382858376184,-0.049480084294039245,-0.000916297857297023,-57.83396667641041,-18.91259865536393,-22.478807366267173
1700085189,0.9707883739041795,-0.2063535086238532,0.13049542212028542,0.007330382858376184,-0.049480084294039245,-0.000916297857297023,-57.30780473545747,-19.204910844782226,-22.05495469161064
1700085189,0.9709103322426095,-0.20208496677879714,0.1336663389194699,0.014966198335851376,-0.047342055960346185,-0.0024434609527920616,-57.68781058170126,-18.91259865536393,-22.23034200526162
1700085189,0.9709103322426095,-0.20208496677879714,0.1336663389194699,0.014966198335851376,-0.047342055960346185,-0.0024434609527920616,-57.79011984799766,-18.70798012277112,-22.274188833674362
1700085189,0.9667637487359836,-0.20232888345565747,0.13537375565749235,0.0198531202414355,-0.04871650274629172,-0.0035124751196385882,-57.87781350482315,-18.24028061970184,-22.420344928383514
1700085189,0.9667637487359836,-0.20232888345565747,0.13537375565749235,0.0198531202414355,-0.04871650274629172,-0.0035124751196385882,-58.09704764688688,-18.73721134171295,-21.762642502192342
1700085189,0.9720079572884811,-0.20245084179408762,0.13269067221202852,0.020616701789183015,-0.056810467152415424,-0.004581489286485115,-57.92166033323589,-18.82490499853844,-21.64571762642502
1700085189,0.9720079572884811,-0.20245084179408762,0.13269067221202852,0.020616701789183015,-0.056810467152415424,-0.004581489286485115,-57.65857936275943,-19.1756796258404,-21.821104940076
1700085189,0.9713981655963302,-0.1990360083180428,0.12842213036697248,0.02138028333693054,-0.05696318346196493,-0.005497787143782138,-58.0239695995323,-18.839520608009355,-21.587255188541363
1700085189,0.9713981655963302,-0.1990360083180428,0.12842213036697248,0.017715091907742442,-0.05314527572322733,-0.005345070834232635,-57.36626717334112,-18.781058170125693,-21.821104940076
1700085189,0.9737153740265035,-0.20159713342507643,0.12988563042813456,0.017715091907742442,-0.05314527572322733,-0.005345070834232635,-57.030108155510085,-18.64951768488746,-21.397252265419468
1700085189,0.9737153740265035,-0.20159713342507643,0.12988563042813456,0.01679879405044542,-0.047647488579445195,-0.004123340357836604,-57.64396375328851,-18.722595732242034,-21.981876644256065
1700085189,0.9707883739041795,-0.20281671680937818,0.13183696384301732,0.01679879405044542,-0.047647488579445195,-0.004123340357836604,-57.54165448699211,-18.722595732242034,-22.595732242034494
1700085189,0.9707883739041795,-0.20281671680937818,0.13183696384301732,0.018784106074588972,-0.04581489286485115,-0.002748893571891069,-57.453960830166615,-18.722595732242034,-22.361882490499855
1700085189,0.9689589988277266,-0.1996458000101937,0.13305654722731905,0.018784106074588972,-0.04581489286485115,-0.002748893571891069,-57.65857936275943,-19.08798596901491,-21.967261034785153
1700085189,0.9689589988277266,-0.1996458000101937,0.13305654722731905,0.01710422666954443,-0.04856378643674222,-0.001069014166846527,-58.0239695995323,-19.2779888921368,-21.821104940076
1700085189,0.9710322905810397,-0.19915796665647298,0.13256871387359837,0.01710422666954443,-0.04856378643674222,-0.001069014166846527,-58.038585209003216,-18.591055247003798,-21.25109617071032
1700085189,0.9710322905810397,-0.2007434250560652,0.13159304716615697,0.01313360262125733,-0.05085453107998478,-0.001069014166846527,-58.08243203741596,-18.488745980707396,-22.215726395790707
1700085189,0.9674954987665647,-0.2007434250560652,0.13159304716615697,0.01313360262125733,-0.05085453107998478,-0.001069014166846527,-58.009353990061385,-18.634902075416544,-21.54340836012862
1700085189,0.9703005405504586,-0.20659742530071357,0.13159304716615697,0.008704829644321718,-0.05589416929511841,-0.0016798794050445422,-57.74627301958491,-18.73721134171295,-21.748026892721427
1700085189,0.9703005405504586,-0.20659742530071357,0.13159304716615697,0.008704829644321718,-0.05589416929511841,-0.0016798794050445422,-58.06781642794504,-18.664133294358376,-21.981876644256065
1700085189,0.9668857070744138,-0.20257280013251783,0.1341541722731906,0.014966198335851376,-0.05803219762881146,-0.005039638215133627,-58.287050570008766,-18.73721134171295,-21.967261034785153
1700085189,0.9668857070744138,-0.20257280013251783,0.1341541722731906,0.014966198335851376,-0.05803219762881146,-0.005039638215133627,-57.77550423852674,-18.634902075416544,-21.806489330605086
1700085189,0.9643245819673802,-0.20171909176350658,0.13439808895005095,0.010842857978014772,-0.0636827010821431,-0.006566801310628665,-57.70242619117217,-18.956445483776672,-21.4264834843613
1700085189,0.9643245819673802,-0.20171909176350658,0.13439808895005095,0.010842857978014772,-0.0636827010821431,-0.006566801310628665,-57.20549546916106,-18.766442560654777,-22.02572347266881
1700085189,0.977618040856269,-0.2040363001936799,0.12586100525993885,0.01313360262125733,-0.07330382858376185,-0.006414085001079161,-58.17012569424145,-18.79567377959661,-21.791873721134174
1700085189,0.977618040856269,-0.2040363001936799,0.12586100525993885,0.01313360262125733,-0.07330382858376185,-0.006414085001079161,-57.3370359543993,-18.50336159017831,-20.72493422975738
1700085189,0.9710322905810397,-0.20354846683995922,0.12927583873598367,0.02504547476611863,-0.06337726846304409,-0.006414085001079161,-57.585501315404855,-18.927214264834845,-20.944168371821103
1700085189,0.9710322905810397,-0.20354846683995922,0.12927583873598367,0.02504547476611863,-0.06337726846304409,-0.006414085001079161,-57.907044723764976,-18.26951183864367,-21.484945922244957
1700085189,0.9672515820897043,-0.19879209164118244,0.13159304716615697,0.026878070480712675,-0.06123924012935104,-0.0079412480965742,-58.30166617947968,-18.53259280912014,-21.19263373282666
1700085189,0.9672515820897043,-0.19879209164118244,0.13159304716615697,0.026878070480712675,-0.06123924012935104,-0.0079412480965742,-58.418591055247006,-18.62028646594563,-21.762642502192342
1700085189,0.9696907488583079,-0.20562175859327214,0.12878800538226298,0.01832595714594046,-0.06658431096358366,-0.009773843811168246,-58.33089739842151,-18.8833674364221,-21.455714703303126
1700085189,0.9696907488583079,-0.20562175859327214,0.12878800538226298,0.01832595714594046,-0.06658431096358366,-0.009773843811168246,-57.87781350482315,-18.415667933352818,-20.98801520023385
1700085189,0.9698127071967381,-0.2063535086238532,0.13073933879714578,0.02672535417116317,-0.06948592084502425,-0.010537425358915765,-57.95089155217773,-18.634902075416544,-22.1134171294943
1700085189,0.9698127071967381,-0.2063535086238532,0.13073933879714578,0.02672535417116317,-0.06948592084502425,-0.010537425358915765,-58.14089447529962,-18.751826951183865,-21.777258111663254
1700085189,0.969934665535168,-0.20110930007135575,0.12951975541284402,0.03466660226773737,-0.06856962298772722,-0.00916297857297023,-58.14089447529962,-18.82490499853844,-21.601870798012275
1700085189,0.969934665535168,-0.20110930007135575,0.12951975541284402,0.03466660226773737,-0.06856962298772722,-0.00916297857297023,-57.936275942706814,-18.2987430575855,-21.938029815843322
1700085189,0.9813987493476044,-0.19988971668705402,0.11951917166156983,0.037262779530078935,-0.07009678608322227,-0.005039638215133627,-57.67319497223035,-18.459514761765565,-21.280327389652147
1700085189,0.9813987493476044,-0.19988971668705402,0.11951917166156983,0.037262779530078935,-0.07009678608322227,-0.005039638215133627,-58.06781642794504,-18.56182402806197,-21.894182987430575
1700085189,0.9774960825178388,-0.1912306746585117,0.12427554686034659,0.04291328298341058,-0.05146539631818279,-0.002596177262341565,-58.62320958783981,-18.313358667056416,-21.87956737795966
1700085189,0.9774960825178388,-0.1912306746585117,0.12427554686034659,0.04291328298341058,-0.05146539631818279,-0.002596177262341565,-57.99473838059047,-18.313358667056416,-21.967261034785153
1700085189,0.973471457349643,-0.18830367453618754,0.12744646365953108,0.027183503099811684,-0.04046982203061852,-0.001069014166846527,-58.0239695995323,-18.664133294358376,-21.587255188541363
1700085189,0.973471457349643,-0.18830367453618754,0.12744646365953108,0.027183503099811684,-0.04108068726881653,0.003817907738737596,-58.287050570008766,-18.488745980707396,-21.33878982753581
1700085189,0.9731055823343526,-0.1972066332415902,0.12817821369011215,0.010537425358915765,-0.04108068726881653,0.003817907738737596,-57.585501315404855,-18.2987430575855,-21.864951768488748
1700085189,0.9731055823343526,-0.1972066332415902,0.12817821369011215,0.00916297857297023,-0.04276056667386108,0.005497787143782138,-57.67319497223035,-18.766442560654777,-21.777258111663254
1700085189,0.9703005405504586,-0.20562175859327214,0.1254951302446483,0.00916297857297023,-0.04276056667386108,0.005497787143782138,-57.61473253434668,-18.82490499853844,-21.821104940076
1700085189,0.9703005405504586,-0.20562175859327214,0.1254951302446483,0.019242255003237483,-0.04413501345980661,0.0022907446432425577,-57.731657410114,-18.62028646594563,-22.215726395790707
1700085189,0.9729836239959225,-0.2053778419164118,0.12464142187563709,0.019242255003237483,-0.04413501345980661,0.0022907446432425577,-57.3370359543993,-19.044139140602162,-21.777258111663254
1700085189,0.9729836239959225,-0.20452413354740062,0.12805625535168194,0.018173240836390957,-0.04092797095926703,-0.002596177262341565,-58.0239695995323,-18.91259865536393,-21.221864951768488
1700085189,0.9612756235066258,-0.20452413354740062,0.12805625535168194,0.018173240836390957,-0.04092797095926703,-0.002596177262341565,-57.60011692487576,-18.781058170125693,-22.274188833674362
1700085189,0.9695687905198777,-0.19952384167176349,0.12939779707441387,0.015271630954950384,-0.05009094953223726,-0.006108652381980153,-57.49780765857936,-18.47413037123648,-21.762642502192342
1700085189,0.9695687905198777,-0.19952384167176349,0.12939779707441387,0.015271630954950384,-0.05009094953223726,-0.006108652381980153,-57.8193510669395,-18.82490499853844,-22.128032738965214
1700085189,0.9681052904587156,-0.20525588357798163,0.12708058864424054,0.01634064512179691,-0.057879481319261954,-0.0070249502392771765,-57.54165448699211,-18.254896229172758,-21.470330312774042
1700085189,0.9681052904587156,-0.20525588357798163,0.12708058864424054,0.01634064512179691,-0.057879481319261954,-0.0070249502392771765,-57.8193510669395,-19.014907921660335,-21.236480561239404
1700085189,0.9712762072579,-0.20281671680937818,0.12525121356778798,0.022449297503777062,-0.062002821677098564,-0.01114829059711378,-58.09704764688688,-18.897983045893014,-22.31803566208711
1700085189,0.9712762072579,-0.20281671680937818,0.12525121356778798,0.022449297503777062,-0.062002821677098564,-0.01114829059711378,-58.287050570008766,-18.839520608009355,-21.90879859690149
1700085189,0.9742032073802243,-0.19879209164118244,0.1228120467991845,0.019242255003237483,-0.058643062867009474,-0.01389718416900485,-57.89242911429406,-18.971061093247588,-22.668810289389068
1700085190,0.9742032073802243,-0.19879209164118244,0.1228120467991845,0.019242255003237483,-0.058643062867009474,-0.01389718416900485,-57.5270388775212,-18.79567377959661,-22.274188833674362
1700085190,0.9716420822731905,-0.20257280013251783,0.1251292552293578,0.01389718416900485,-0.05131268000863329,-0.014049900478554353,-57.907044723764976,-18.868751826951183,-21.806489330605086
1700085190,0.9716420822731905,-0.20257280013251783,0.1251292552293578,0.01389718416900485,-0.05131268000863329,-0.014049900478554353,-57.99473838059047,-19.073370359543993,-22.551885413621747
1700085190,0.9727397073190621,-0.19940188333333334,0.1256170885830785,0.023518311670623588,-0.05009094953223726,-0.012370021073509811,-57.731657410114,-18.591055247003798,-21.923414206372406
1700085190,0.9727397073190621,-0.19940188333333334,0.1256170885830785,0.023518311670623588,-0.05009094953223726,-0.012370021073509811,-57.907044723764976,-18.70798012277112,-21.5287927506577
1700085190,0.974812999072375,-0.19074284130479102,0.12683667196738022,0.02871066619530672,-0.048869219055841226,-0.009315694882519734,-57.87781350482315,-18.67874890382929,-22.186495176848876
1700085190,0.974812999072375,-0.19074284130479102,0.12683667196738022,0.02871066619530672,-0.048869219055841226,-0.009315694882519734,-58.14089447529962,-18.956445483776672,-22.069570301081555
1700085190,0.973959290703364,-0.19891404997961265,0.12390967184505605,0.01832595714594046,-0.04657847441259867,-0.004276056667386108,-57.8193510669395,-18.781058170125693,-21.587255188541363
1700085190,0.973959290703364,-0.19891404997961265,0.12390967184505605,0.01832595714594046,-0.04657847441259867,-0.004276056667386108,-57.24934229757381,-19.365682548962294,-21.864951768488748
1700085190,0.9729836239959225,-0.2036704251783894,0.12573904692150867,0.015729779883598895,-0.04260785036431157,-0.0024434609527920616,-57.3370359543993,-19.438760596316868,-22.02572347266881
1700085190,0.9729836239959225,-0.2036704251783894,0.12573904692150867,0.015729779883598895,-0.04260785036431157,-0.0024434609527920616,-57.483192049108446,-19.336451330020463,-20.98801520023385
1700085190,0.9718859989500509,-0.1996458000101937,0.12573904692150867,0.02153299964648004,-0.036804630601430424,-0.003665191429188092,-57.32242034492838,-18.941829874305757,-21.777258111663254
1700085190,0.9718859989500509,-0.1996458000101937,0.12573904692150867,0.02153299964648004,-0.036804630601430424,-0.003665191429188092,-57.17626425021923,-19.526454253142354,-21.309558608593978
1700085190,0.9715201239347604,-0.19915796665647298,0.12671471362895004,0.019394971312786988,-0.03436116964863836,-0.003665191429188092,-57.43934522069571,-19.26337328266589,-21.148786904413914
1700085190,0.9715201239347604,-0.19915796665647298,0.12671471362895004,0.019394971312786988,-0.03512475119638588,-0.001832595714594046,-58.0239695995323,-19.30722011107863,-21.55802396959953
1700085190,0.9701785822120286,-0.19952384167176349,0.12854408870540263,0.018936822384138473,-0.03512475119638588,-0.001832595714594046,-57.57088570593394,-19.219526454253142,-21.748026892721427
1700085190,0.9701785822120286,-0.19952384167176349,0.12854408870540263,0.02306016274197508,-0.038179077387375956,0.0,-57.98012277111956,-19.073370359543993,-21.952645425314234
1700085190,0.9759106241182466,-0.18879150788990826,0.1256170885830785,0.02306016274197508,-0.038179077387375956,0.0,-57.351651563870206,-19.146448406898568,-20.72493422975738
1700085190,0.9759106241182466,-0.18879150788990826,0.1256170885830785,0.005345070834232635,-0.03298672286269283,0.0015271630954950383,-57.46857643963753,-18.868751826951183,-21.85033615901783
1700085190,0.9729836239959225,-0.19976775834862384,0.12403163018348623,0.005345070834232635,-0.03298672286269283,0.0015271630954950383,-57.68781058170126,-19.00029231218942,-21.821104940076
1700085190,0.9729836239959225,-0.19976775834862384,0.1251292552293578,-0.0004581489286485115,-0.02703078679026218,0.0015271630954950383,-57.80473545746858,-19.59953230049693,-21.441099093832214
1700085190,0.97115424891947,-0.2091585504077472,0.1251292552293578,-0.0004581489286485115,-0.02703078679026218,0.0015271630954950383,-57.20549546916106,-19.26337328266589,-21.821104940076
1700085190,0.9721299156269112,-0.20293867514780833,0.12805625535168194,0.013744467859455345,-0.02275473012287607,-0.0015271630954950383,-57.965507161648645,-19.30722011107863,-21.748026892721427
1700085190,0.9721299156269112,-0.20293867514780833,0.12805625535168194,0.013744467859455345,-0.02275473012287607,-0.0015271630954950383,-58.09704764688688,-18.85413621748027,-22.098801520023382
1700085190,0.9704224988888888,-0.19342592475025483,0.12842213036697248,0.019547687622336492,-0.02107485071783153,-0.0012217304763960308,-57.54165448699211,-19.204910844782226,-21.87956737795966
1700085190,0.9704224988888888,-0.19342592475025483,0.12842213036697248,0.019547687622336492,-0.02107485071783153,-0.0012217304763960308,-57.79011984799766,-19.321835720549547,-21.923414206372406
1700085190,0.9735934156880733,-0.19684075822629968,0.12915388039755352,0.012675453692608817,-0.02306016274197508,0.001069014166846527,-57.54165448699211,-19.59953230049693,-21.938029815843322
1700085190,0.9735934156880733,-0.19684075822629968,0.12915388039755352,0.012675453692608817,-0.02306016274197508,0.001069014166846527,-57.68781058170126,-19.073370359543993,-21.54340836012862
1700085190,0.9717640406116207,-0.1972066332415902,0.12878800538226298,0.005039638215133627,-0.019394971312786988,0.002138028333693054,-57.731657410114,-19.497223034200527,-21.616486407483194
1700085190,0.9717640406116207,-0.1972066332415902,0.12878800538226298,0.005039638215133627,-0.019394971312786988,0.002138028333693054,-57.629348143817595,-18.897983045893014,-21.499561531715873
1700085190,0.9721299156269112,-0.1986701333027523,0.1256170885830785,-0.004886921905584123,-0.017409659288643436,0.002748893571891069,-57.51242326805027,-18.927214264834845,-22.128032738965214
1700085190,0.9721299156269112,-0.1986701333027523,0.1256170885830785,-0.004886921905584123,-0.017409659288643436,0.002748893571891069,-57.51242326805027,-19.131832797427652,-21.981876644256065
1700085190,0.9737153740265035,-0.20964638376146785,0.12805625535168194,-0.007788531787024695,-0.014660765716752368,0.0030543261909900766,-57.10318620286466,-18.56182402806197,-22.361882490499855
1700085190,0.9737153740265035,-0.20964638376146785,0.12805625535168194,-0.007788531787024695,-0.014660765716752368,0.0030543261909900766,-57.39549839228296,-18.517977199649224,-22.508038585209004
1700085190,0.9668857070744138,-0.2041582585321101,0.13293458888888887,0.010842857978014772,-0.01069014166846527,0.0012217304763960308,-57.79011984799766,-19.234142063724057,-22.391113709441683
1700085190,0.9668857070744138,-0.2041582585321101,0.13293458888888887,0.010842857978014772,-0.01069014166846527,0.0012217304763960308,-57.46857643963753,-18.839520608009355,-21.90879859690149
1700085190,0.9704224988888888,-0.19708467490316,0.13086129713557593,0.018173240836390957,-0.016187928812247405,0.0003054326190990077,-58.08243203741596,-18.82490499853844,-21.280327389652147
1700085190,0.9704224988888888,-0.19708467490316,0.13086129713557593,0.018173240836390957,-0.016187928812247405,0.0003054326190990077,-57.79011984799766,-19.1756796258404,-21.236480561239404
1700085190,0.9683492071355759,-0.2018410501019368,0.13403221393476045,0.007483099167925688,-0.0160352125026979,0.001069014166846527,-57.80473545746858,-18.839520608009355,-21.952645425314234
1700085190,0.9683492071355759,-0.2018410501019368,0.13403221393476045,0.007483099167925688,-0.0160352125026979,0.001069014166846527,-57.64396375328851,-19.234142063724057,-21.835720549546917
1700085190,0.9671296237512741,-0.20281671680937818,0.132324797196738,0.0039706240482871,-0.01832595714594046,0.002596177262341565,-57.65857936275943,-18.941829874305757,-22.215726395790707
1700085190,0.9671296237512741,-0.20281671680937818,0.132324797196738,0.0039706240482871,-0.01832595714594046,0.002596177262341565,-57.65857936275943,-19.1756796258404,-22.303420052616193
1700085190,0.9718859989500509,-0.2067193836391437,0.13122717215086646,0.005039638215133627,-0.020311269170084013,0.0024434609527920616,-57.132417421806494,-18.839520608009355,-22.1134171294943
1700085190,0.9718859989500509,-0.2067193836391437,0.13122717215086646,0.005039638215133627,-0.020311269170084013,0.0024434609527920616,-57.24934229757381,-18.897983045893014,-22.098801520023382
1700085190,0.970544457227319,-0.20818288370030577,0.13208088051987768,0.011301006906663283,-0.018784106074588972,0.0007635815477475192,-57.000876936568254,-18.941829874305757,-21.99649225372698
1700085190,0.970544457227319,-0.20818288370030577,0.13208088051987768,0.011301006906663283,-0.018784106074588972,0.0007635815477475192,-57.36626717334112,-19.161064016369483,-22.23034200526162
1700085190,0.9656661236901122,-0.19757250825688072,0.13500788064220184,0.016646077740895916,-0.017256942979093935,-0.0024434609527920616,-57.39549839228296,-18.56182402806197,-21.499561531715873
1700085190,0.9656661236901122,-0.19757250825688072,0.13500788064220184,0.016646077740895916,-0.023823744289722597,-0.0032070425005395805,-57.80473545746858,-18.85413621748027,-22.698041508330896
1700085190,0.9692029155045871,-0.20013363336391438,0.1337882972579001,0.0039706240482871,-0.023823744289722597,-0.0032070425005395805,-57.8193510669395,-18.985676702718504,-22.244957614732535
1700085190,0.9692029155045871,-0.20013363336391438,0.1337882972579001,0.0015271630954950383,-0.0277943683380097,-0.0022907446432425577,-57.65857936275943,-19.014907921660335,-22.02572347266881
1700085190,0.970544457227319,-0.2046460918858308,0.135129838980632,0.0015271630954950383,-0.0277943683380097,-0.0022907446432425577,-57.70242619117217,-19.234142063724057,-22.62496346097632
1700085190,0.970544457227319,-0.2046460918858308,0.135129838980632,0.011453723216212788,-0.03130684345764829,-0.0015271630954950383,-57.57088570593394,-19.044139140602162,-22.069570301081555
1700085190,0.9655441653516819,-0.20379238351681955,0.1373250890723751,0.011453723216212788,-0.03130684345764829,-0.0015271630954950383,-57.64396375328851,-19.248757673194973,-21.806489330605086
1700085190,0.9655441653516819,-0.20379238351681955,0.1373250890723751,0.015424347264499889,-0.04230241774521256,-0.001832595714594046,-57.453960830166615,-18.927214264834845,-21.864951768488748
1700085190,0.9656661236901122,-0.20501196690112128,0.13573963067278288,0.015424347264499889,-0.04230241774521256,-0.001832595714594046,-57.907044723764976,-18.956445483776672,-21.762642502192342
1700085190,0.9692029155045871,-0.2067193836391437,0.13695921405708458,0.02138028333693054,-0.0516181126277323,-0.0033597588100890844,-57.79011984799766,-19.08798596901491,-22.171879567377957
1700085190,0.9692029155045871,-0.2067193836391437,0.13695921405708458,0.02138028333693054,-0.0516181126277323,-0.0033597588100890844,-57.43934522069571,-18.591055247003798,-21.455714703303126
1700085190,0.9689589988277266,-0.19659684154943932,0.1336663389194699,0.025656340004316644,-0.05482515512827187,-0.007483099167925688,-57.556270096463024,-18.605670856474717,-22.186495176848876
1700085190,0.9689589988277266,-0.19659684154943932,0.1336663389194699,0.025656340004316644,-0.05482515512827187,-0.007483099167925688,-57.95089155217773,-19.161064016369483,-21.441099093832214
1700085190,0.9707883739041795,-0.1996458000101937,0.13159304716615697,0.011606439525762293,-0.05635231822376691,-0.007635815477475192,-58.27243496053786,-18.781058170125693,-21.70418006430868
1700085190,0.9707883739041795,-0.1996458000101937,0.13159304716615697,0.011606439525762293,-0.05635231822376691,-0.007635815477475192,-57.83396667641041,-19.365682548962294,-21.587255188541363
1700085190,0.9689589988277266,-0.20964638376146785,0.135129838980632,0.005955936072430649,-0.05238169417547982,-0.006261368691529657,-57.585501315404855,-19.204910844782226,-21.864951768488748
1700085190,0.9689589988277266,-0.20964638376146785,0.135129838980632,0.005955936072430649,-0.05238169417547982,-0.006261368691529657,-57.863197895352236,-19.45337620578778,-21.55802396959953
1700085190,0.9685931238124362,-0.20257280013251783,0.13342242224260956,0.02107485071783153,-0.05497787143782138,-0.006719517620178169,-57.556270096463024,-19.219526454253142,-21.484945922244957
1700085190,0.9685931238124362,-0.20257280013251783,0.13342242224260956,0.02107485071783153,-0.05497787143782138,-0.006719517620178169,-58.14089447529962,-19.146448406898568,-21.178018123355745
1700085190,0.9726177489806319,-0.19293809139653412,0.13122717215086646,0.02748893571891069,-0.05635231822376691,-0.006414085001079161,-57.64396375328851,-18.868751826951183,-21.762642502192342
1700085190,0.9726177489806319,-0.19293809139653412,0.13122717215086646,0.02748893571891069,-0.05635231822376691,-0.006414085001079161,-57.60011692487576,-19.073370359543993,-21.221864951768488
1700085190,0.9761545407951069,-0.19391375810397551,0.12854408870540263,0.014508049407202865,-0.05299255941367783,-0.0024434609527920616,-57.61473253434668,-19.248757673194973,-21.660333235895937
1700085190,0.9761545407951069,-0.19391375810397551,0.12854408870540263,0.014508049407202865,-0.05299255941367783,-0.0024434609527920616,-57.965507161648645,-18.927214264834845,-21.616486407483194
1700085190,0.9712762072579,-0.2135490505912334,0.13037346378185527,0.002596177262341565,-0.04673119072214818,0.000916297857297023,-58.009353990061385,-18.839520608009355,-21.572639579070447
1700085190,0.9712762072579,-0.2135490505912334,0.13037346378185527,0.002596177262341565,-0.04673119072214818,0.000916297857297023,-57.936275942706814,-18.693364513300203,-21.821104940076
1700085190,0.9685931238124362,-0.20171909176350658,0.13488592230377164,0.02626720524251466,-0.0438295808407076,-0.0016798794050445422,-58.3162817889506,-18.91259865536393,-21.87956737795966
1700085190,0.9685931238124362,-0.20171909176350658,0.13488592230377164,0.02626720524251466,-0.0438295808407076,-0.0016798794050445422,-57.99473838059047,-18.810289389067524,-21.134171294943
1700085190,0.9681052904587156,-0.19574313318042813,0.1333004639041794,0.026572637861613665,-0.047494772269895694,-0.0039706240482871,-58.25781935106694,-18.85413621748027,-21.07570885705934
1700085190,0.9681052904587156,-0.19574313318042813,0.1333004639041794,0.026572637861613665,-0.047494772269895694,-0.0039706240482871,-58.06781642794504,-19.073370359543993,-20.944168371821103
1700085190,0.9732275406727828,-0.19976775834862384,0.13000758876656474,0.008093964406123703,-0.04902193536539073,-0.004276056667386108,-58.009353990061385,-18.82490499853844,-21.64571762642502
1700085190,0.9732275406727828,-0.19976775834862384,0.13000758876656474,0.008093964406123703,-0.04902193536539073,-0.004123340357836604,-57.936275942706814,-18.79567377959661,-22.14264834843613
1700085190,0.9706664155657491,-0.20196300844036694,0.12976367208970438,0.0,-0.04306599929296008,-0.004123340357836604,-57.54165448699211,-19.248757673194973,-21.441099093832214
1700085190,0.9706664155657491,-0.20196300844036694,0.12976367208970438,-0.0004581489286485115,-0.04092797095926703,-0.0035124751196385882,-57.936275942706814,-19.1756796258404,-21.35340543700672
1700085190,0.969934665535168,-0.20501196690112128,0.1333004639041794,-0.0004581489286485115,-0.04092797095926703,-0.0035124751196385882,-57.43934522069571,-19.08798596901491,-20.856474714995617
1700085190,0.969934665535168,-0.20501196690112128,0.1333004639041794,0.008552113334772215,-0.040317105721069016,-0.0022907446432425577,-57.64396375328851,-18.591055247003798,-21.631102016954106
1700085190,0.9692029155045871,-0.20342650850152905,0.1314710888277268,0.008552113334772215,-0.040317105721069016,-0.0022907446432425577,-57.60011692487576,-18.927214264834845,-21.674948845366853
1700085190,0.9692029155045871,-0.20342650850152905,0.13171500550458715,0.011911872144861299,-0.04016438941151951,-0.0013744467859455344,-57.67319497223035,-19.131832797427652,-21.748026892721427
1700085190,0.9729836239959225,-0.19793838327217125,0.13171500550458715,0.011911872144861299,-0.04016438941151951,-0.0013744467859455344,-57.74627301958491,-18.634902075416544,-22.128032738965214
1700085190,0.9684711654740061,-0.20354846683995922,0.13256871387359837,0.008704829644321718,-0.037415495839628436,0.001069014166846527,-57.76088862905583,-19.029523531131247,-21.748026892721427
1700085190,0.9684711654740061,-0.20354846683995922,0.13256871387359837,0.008704829644321718,-0.037415495839628436,0.001069014166846527,-57.453960830166615,-18.488745980707396,-22.14264834843613
1700085190,0.9690809571661569,-0.2046460918858308,0.13342242224260956,0.01114829059711378,-0.038484510006474966,0.002748893571891069,-57.863197895352236,-19.190295235311314,-21.87956737795966
1700085190,0.9690809571661569,-0.2046460918858308,0.13342242224260956,0.01114829059711378,-0.038484510006474966,0.002748893571891069,-57.60011692487576,-18.781058170125693,-22.347266881028936
1700085190,0.9682272487971457,-0.20232888345565747,0.13537375565749235,0.014966198335851376,-0.03955352417332149,0.001069014166846527,-57.95089155217773,-19.058754750073078,-21.777258111663254
1700085190,0.9682272487971457,-0.20232888345565747,0.13537375565749235,0.014966198335851376,-0.03955352417332149,0.001069014166846527,-57.863197895352236,-18.868751826951183,-21.601870798012275
1700085190,0.9700566238735983,-0.2012312584097859,0.13208088051987768,0.014813482026301871,-0.0438295808407076,-0.0003054326190990077,-57.60011692487576,-18.62028646594563,-21.5287927506577
1700085190,0.9700566238735983,-0.2012312584097859,0.13208088051987768,0.014813482026301871,-0.0438295808407076,-0.0003054326190990077,-58.08243203741596,-18.82490499853844,-21.19263373282666
1700085190,0.9683492071355759,-0.20842680037716613,0.13305654722731905,0.011606439525762293,-0.04612032548395016,-0.00198531202414355,-58.15551008477053,-18.2987430575855,-22.522654194679916
1700085190,0.9683492071355759,-0.20842680037716613,0.13305654722731905,0.011606439525762293,-0.04612032548395016,-0.00198531202414355,-58.24320374159603,-18.971061093247588,-21.762642502192342
1700085190,0.9676174571049948,-0.20574371693170232,0.1342761306116208,0.020311269170084013,-0.050243665841786765,-0.005497787143782138,-58.47705349313066,-19.161064016369483,-21.36802104647764
1700085190,0.9676174571049948,-0.20574371693170232,0.1342761306116208,0.020311269170084013,-0.050243665841786765,-0.005497787143782138,-58.14089447529962,-19.1756796258404,-21.455714703303126
1700085190,0.9694468321814476,-0.20757309200815494,0.13159304716615697,0.021685715956029545,-0.05467243881872237,-0.008246680715673207,-57.99473838059047,-18.91259865536393,-20.973399590762934
1700085190,0.9694468321814476,-0.20757309200815494,0.13159304716615697,0.021685715956029545,-0.05467243881872237,-0.008246680715673207,-58.34551300789242,-18.693364513300203,-21.54340836012862
1700085191,0.9696907488583079,-0.20245084179408762,0.13171500550458715,0.024587325837470118,-0.05467243881872237,-0.010842857978014772,-57.863197895352236,-18.67874890382929,-20.95878398129202
1700085191,0.9696907488583079,-0.20245084179408762,0.13171500550458715,0.024587325837470118,-0.05467243881872237,-0.010842857978014772,-57.60011692487576,-18.459514761765565,-21.36802104647764
1700085191,0.9692029155045871,-0.2003775500407747,0.13354438058103976,0.02138028333693054,-0.05513058774737088,-0.012675453692608817,-57.556270096463024,-18.839520608009355,-21.484945922244957
1700085191,0.9692029155045871,-0.2003775500407747,0.13354438058103976,0.02138028333693054,-0.05513058774737088,-0.012675453692608817,-57.64396375328851,-18.781058170125693,-21.938029815843322
1700085191,0.9678613737818552,-0.20110930007135575,0.13293458888888887,0.015424347264499889,-0.05818491393836096,-0.013744467859455345,-57.61473253434668,-18.91259865536393,-21.25109617071032
1700085191,0.9678613737818552,-0.20110930007135575,0.13293458888888887,0.015424347264499889,-0.05818491393836096,-0.013744467859455345,-57.64396375328851,-19.292604501607716,-21.309558608593978
1700085191,0.9728616656574923,-0.20098734173292557,0.12878800538226298,0.01313360262125733,-0.061086523819801536,-0.012370021073509811,-57.556270096463024,-19.073370359543993,-21.207249342297573
1700085191,0.9728616656574923,-0.20098734173292557,0.12878800538226298,0.01313360262125733,-0.061086523819801536,-0.01114829059711378,-57.64396375328851,-18.67874890382929,-20.914937152879276
1700085191,0.9704224988888888,-0.2030606334862385,0.12866604704383283,0.014660765716752368,-0.058795779176558975,-0.01114829059711378,-58.09704764688688,-18.751826951183865,-20.651856182402806
1700085191,0.9704224988888888,-0.2030606334862385,0.12866604704383283,0.017715091907742442,-0.06001750965295501,-0.011301006906663283,-57.83396667641041,-18.64951768488746,-21.484945922244957
1700085191,0.9681052904587156,-0.20232888345565747,0.13354438058103976,0.017715091907742442,-0.06001750965295501,-0.011301006906663283,-58.184741303712364,-18.371821104940075,-21.587255188541363
1700085191,0.9681052904587156,-0.20232888345565747,0.13354438058103976,0.01832595714594046,-0.06444628262989062,-0.012217304763960306,-57.936275942706814,-19.234142063724057,-20.651856182402806
1700085191,0.9690809571661569,-0.19732859158002036,0.13086129713557593,0.01832595714594046,-0.06444628262989062,-0.012217304763960306,-58.19935691318327,-19.044139140602162,-21.148786904413914
1700085191,0.9690809571661569,-0.19732859158002036,0.13086129713557593,0.01038470904936626,-0.06918048822592524,-0.01114829059711378,-57.71704180064309,-19.117217187956737,-21.572639579070447
1700085191,0.9706664155657491,-0.20489000856269113,0.13122717215086646,0.01038470904936626,-0.06918048822592524,-0.01114829059711378,-57.65857936275943,-19.058754750073078,-20.914937152879276
1700085191,0.9706664155657491,-0.20489000856269113,0.13122717215086646,0.012980886311707827,-0.07024950239277176,-0.01114829059711378,-57.39549839228296,-18.868751826951183,-21.55802396959953
1700085191,0.9640806652905198,-0.21050009213047907,0.13122717215086646,0.012980886311707827,-0.07024950239277176,-0.01114829059711378,-57.3370359543993,-19.117217187956737,-21.19263373282666
1700085191,0.9718859989500509,-0.20147517508664625,0.1273245053211009,0.025961772623415653,-0.07635815477475191,-0.01435533309765336,-57.87781350482315,-18.62028646594563,-20.69570301081555
1700085191,0.9718859989500509,-0.20147517508664625,0.1273245053211009,0.025961772623415653,-0.07635815477475191,-0.01435533309765336,-57.89242911429406,-18.751826951183865,-20.885705933937444
1700085191,0.9735934156880733,-0.19732859158002036,0.12464142187563709,0.02672535417116317,-0.0759000058461034,-0.01435533309765336,-58.184741303712364,-18.766442560654777,-20.81262788658287
1700085191,0.9735934156880733,-0.19732859158002036,0.12464142187563709,0.02672535417116317,-0.0759000058461034,-0.01435533309765336,-57.60011692487576,-18.91259865536393,-20.768781058170124
1700085191,0.9694468321814476,-0.20330455016309887,0.12854408870540263,0.022602013813326566,-0.07299839596466283,-0.012522737383059314,-57.80473545746858,-18.70798012277112,-21.04647763811751
1700085191,0.9694468321814476,-0.20330455016309887,0.12854408870540263,0.022602013813326566,-0.07299839596466283,-0.012522737383059314,-57.907044723764976,-18.751826951183865,-20.856474714995617
1700085191,0.9676174571049948,-0.20428021687054027,0.13025150544342506,0.030085112981252254,-0.07651087108430142,-0.012522737383059314,-57.60011692487576,-19.146448406898568,-20.710318620286465
1700085191,0.9676174571049948,-0.20428021687054027,0.13025150544342506,0.030085112981252254,-0.07651087108430142,-0.012522737383059314,-57.10318620286466,-19.131832797427652,-20.578778135048232
1700085191,0.9709103322426095,-0.20208496677879714,0.125982963598369,0.03955352417332149,-0.0833831050140291,-0.012522737383059314,-57.71704180064309,-19.08798596901491,-20.564162525577316
1700085191,0.9709103322426095,-0.20208496677879714,0.125982963598369,0.03955352417332149,-0.0833831050140291,-0.012522737383059314,-57.907044723764976,-18.62028646594563,-20.944168371821103
1700085191,0.9698127071967381,-0.1986701333027523,0.1251292552293578,0.04184426881656405,-0.0876591616814152,-0.01389718416900485,-58.038585209003216,-18.53259280912014,-20.87109032446653
1700085191,0.9698127071967381,-0.1986701333027523,0.1251292552293578,0.04184426881656405,-0.0876591616814152,-0.01389718416900485,-57.70242619117217,-18.664133294358376,-20.315697164571763
1700085191,0.9688370404892966,-0.19757250825688072,0.1254951302446483,0.03558290012503439,-0.08827002691961322,-0.015424347264499889,-58.3162817889506,-18.591055247003798,-20.608009353990063
1700085191,0.9688370404892966,-0.19757250825688072,0.1254951302446483,0.03558290012503439,-0.08827002691961322,-0.015424347264499889,-57.87781350482315,-19.541069862613274,-20.5495469161064
1700085191,0.9760325824566768,-0.2008653833944954,0.1209826717227319,0.02626720524251466,-0.09040805525330627,-0.016493361431346415,-57.483192049108446,-18.605670856474717,-21.01724641917568
1700085191,0.9760325824566768,-0.2008653833944954,0.1209826717227319,0.02626720524251466,-0.09040805525330627,-0.016493361431346415,-58.06781642794504,-19.146448406898568,-20.286465945629935
1700085191,0.974812999072375,-0.19696271656472986,0.12122658839959226,0.025961772623415653,-0.08231409084718257,-0.016187928812247405,-57.585501315404855,-19.2779888921368,-20.491084478222742
1700085191,0.974812999072375,-0.19696271656472986,0.12122658839959226,0.025961772623415653,-0.08231409084718257,-0.016187928812247405,-57.89242911429406,-18.941829874305757,-20.69570301081555
1700085191,0.9765204158103974,-0.19281613305810397,0.12220225510703363,0.02672535417116317,-0.07391469382195986,-0.012370021073509811,-57.907044723764976,-18.62028646594563,-20.87109032446653
1700085191,0.9765204158103974,-0.19281613305810397,0.12220225510703363,0.02672535417116317,-0.07391469382195986,-0.006108652381980153,-57.70242619117217,-19.204910844782226,-20.856474714995617
1700085191,0.973959290703364,-0.2041582585321101,0.11842154661569826,0.020922134408282025,-0.07040221870232127,-0.006108652381980153,-57.49780765857936,-18.82490499853844,-20.783396667641043
1700085191,0.973959290703364,-0.2041582585321101,0.11842154661569826,0.036499197982331415,-0.06536258048718764,-0.001832595714594046,-57.87781350482315,-19.146448406898568,-20.95878398129202
1700085191,0.9743251657186545,-0.1986701333027523,0.11939721332313966,0.036499197982331415,-0.06536258048718764,-0.001832595714594046,-57.74627301958491,-18.810289389067524,-20.476468868751827
1700085191,0.9743251657186545,-0.1986701333027523,0.11939721332313966,0.037720928458727446,-0.061086523819801536,-0.0013744467859455344,-57.79011984799766,-18.79567377959661,-19.935691318327976
1700085191,0.9709103322426095,-0.1948894248114169,0.12183638009174312,0.037720928458727446,-0.061086523819801536,-0.0013744467859455344,-58.0239695995323,-19.131832797427652,-19.073370359543993
1700085191,0.9709103322426095,-0.1948894248114169,0.12183638009174312,0.022143864884678056,-0.06001750965295501,-0.004581489286485115,-57.57088570593394,-18.82490499853844,-20.388775211926337
1700085191,0.9717640406116207,-0.19330396641182468,0.1209826717227319,0.022143864884678056,-0.06001750965295501,-0.004581489286485115,-58.038585209003216,-19.058754750073078,-20.18415667933353
1700085191,0.9715201239347604,-0.20013363336391438,0.12147050507645259,0.005955936072430649,-0.059712077033856004,-0.005039638215133627,-58.21397252265419,-18.722595732242034,-20.18415667933353
1700085191,0.9715201239347604,-0.20013363336391438,0.12147050507645259,0.005955936072430649,-0.059712077033856004,-0.005039638215133627,-57.8193510669395,-19.044139140602162,-20.63724057293189
1700085191,0.9742032073802243,-0.20391434185524973,0.11866546329255862,0.0033597588100890844,-0.061697389057999555,-0.005345070834232635,-57.61473253434668,-19.044139140602162,-20.19877228880444
1700085191,0.9742032073802243,-0.20391434185524973,0.11866546329255862,0.0033597588100890844,-0.061697389057999555,-0.005345070834232635,-57.57088570593394,-18.327974276527332,-20.87109032446653
1700085191,0.9742032073802243,-0.20232888345565747,0.11829958827726808,0.017256942979093935,-0.058795779176558975,-0.00519235452468313,-58.27243496053786,-18.82490499853844,-19.731072785735165
1700085191,0.9742032073802243,-0.20232888345565747,0.11829958827726808,0.017256942979093935,-0.058795779176558975,-0.00519235452468313,-58.59397836889798,-19.102601578485825,-20.228003507746273
1700085191,0.9722518739653414,-0.1926941747196738,0.11903133830784912,0.02306016274197508,-0.05421428989007387,-0.0070249502392771765,-57.92166033323589,-19.424144986845953,-19.62876351943876
1700085191,0.9722518739653414,-0.1926941747196738,0.11903133830784912,0.02306016274197508,-0.05421428989007387,-0.0070249502392771765,-58.053200818474124,-19.073370359543993,-20.19877228880444
1700085191,0.969934665535168,-0.2008653833944954,0.11951917166156983,0.006108652381980153,-0.05360342465187585,-0.00916297857297023,-58.27243496053786,-19.219526454253142,-21.002630809704765
1700085191,0.969934665535168,-0.2008653833944954,0.11951917166156983,0.006108652381980153,-0.05360342465187585,-0.00916297857297023,-58.24320374159603,-18.839520608009355,-20.18415667933353
1700085191,0.9704224988888888,-0.2063535086238532,0.12012896335372068,0.006566801310628665,-0.05742133239061344,-0.01114829059711378,-58.14089447529962,-18.868751826951183,-20.213387898275357
1700085191,0.9704224988888888,-0.2063535086238532,0.12012896335372068,0.006566801310628665,-0.05742133239061344,-0.01114829059711378,-58.30166617947968,-19.08798596901491,-20.34492838351359
1700085191,0.9731055823343526,-0.19647488321100917,0.11890937996941897,0.02138028333693054,-0.06154467274845005,-0.013591751549905842,-57.99473838059047,-18.956445483776672,-19.014907921660335
1700085191,0.9731055823343526,-0.19647488321100917,0.11890937996941897,0.02138028333693054,-0.06154467274845005,-0.013591751549905842,-57.60011692487576,-18.70798012277112,-20.213387898275357
1700085191,0.9706664155657491,-0.19562117484199795,0.12012896335372068,0.0198531202414355,-0.060781091200702526,-0.012217304763960306,-57.65857936275943,-18.927214264834845,-20.403390821397252
1700085191,0.9706664155657491,-0.19562117484199795,0.12012896335372068,0.0198531202414355,-0.060781091200702526,-0.012217304763960306,-58.17012569424145,-18.868751826951183,-20.403390821397252
1700085191,0.9731055823343526,-0.1980603416106014,0.1191532966462793,0.01313360262125733,-0.06261368691529658,-0.010842857978014772,-57.80473545746858,-18.985676702718504,-19.83338205203157
1700085191,0.9731055823343526,-0.1980603416106014,0.1191532966462793,0.01313360262125733,-0.06261368691529658,-0.010842857978014772,-58.0239695995323,-18.79567377959661,-20.388775211926337
1700085191,0.9720079572884811,-0.2040363001936799,0.11842154661569826,0.015729779883598895,-0.0632245521534946,-0.00916297857297023,-57.36626717334112,-19.073370359543993,-19.365682548962294
1700085191,0.9720079572884811,-0.2040363001936799,0.11842154661569826,0.015729779883598895,-0.0632245521534946,-0.00916297857297023,-58.08243203741596,-19.2779888921368,-20.18415667933353
1700085191,0.969934665535168,-0.20452413354740062,0.11500671313965341,0.027641652028460195,-0.06688974358268268,-0.00916297857297023,-57.68781058170126,-18.53259280912014,-20.1549254603917
1700085191,0.969934665535168,-0.20452413354740062,0.11500671313965341,0.027641652028460195,-0.06688974358268268,-0.00916297857297023,-58.47705349313066,-18.839520608009355,-20.5495469161064
1700085191,0.977618040856269,-0.1885475912130479,0.11500671313965341,0.038179077387375956,-0.06658431096358366,-0.012522737383059314,-58.7985969014908,-18.839520608009355,-20.301081555100847
1700085191,0.977618040856269,-0.1885475912130479,0.11500671313965341,0.038179077387375956,-0.06658431096358366,-0.012522737383059314,-58.47705349313066,-19.161064016369483,-20.00876936568255
1700085191,0.970544457227319,-0.19281613305810397,0.11683608821610601,0.020311269170084013,-0.059864793343405505,-0.011759155835311794,-57.79011984799766,-18.766442560654777,-20.578778135048232
1700085191,0.970544457227319,-0.19281613305810397,0.11683608821610601,0.010079276430267254,-0.062002821677098564,-0.010231992739816757,-58.433206664717915,-18.751826951183865,-20.53493130663549
1700085191,0.9715201239347604,-0.19915796665647298,0.11756783824668704,0.010079276430267254,-0.062002821677098564,-0.010231992739816757,-58.21397252265419,-19.058754750073078,-20.885705933937444
1700085191,0.9715201239347604,-0.19915796665647298,0.11756783824668704,0.012828170002158322,-0.06551529679673715,-0.011453723216212788,-57.74627301958491,-18.85413621748027,-19.701841566793334
1700085191,0.9700566238735983,-0.20293867514780833,0.11976308833843018,0.012828170002158322,-0.06551529679673715,-0.011453723216212788,-58.06781642794504,-18.56182402806197,-20.081847413037124
1700085191,0.9700566238735983,-0.20293867514780833,0.11976308833843018,0.019547687622336492,-0.07223481441691532,-0.014966198335851376,-58.30166617947968,-18.868751826951183,-20.24261911721719
1700085191,0.9726177489806319,-0.20025559170234453,0.11451887978593273,0.019547687622336492,-0.07223481441691532,-0.014966198335851376,-57.51242326805027,-18.357205495469163,-20.432622040339083
1700085191,0.9726177489806319,-0.20025559170234453,0.11451887978593273,0.022143864884678056,-0.07391469382195986,-0.01756237559819294,-57.863197895352236,-18.73721134171295,-19.906460099386145
1700085191,0.9727397073190621,-0.19830425828746176,0.1159823798470948,0.022143864884678056,-0.07391469382195986,-0.01756237559819294,-57.98012277111956,-18.781058170125693,-20.798012277111955
1700085191,0.9727397073190621,-0.19830425828746176,0.11403104643221201,0.018478673455489966,-0.07299839596466283,-0.018784106074588972,-58.009353990061385,-18.897983045893014,-20.72493422975738
1700085191,0.973349499011213,-0.2012312584097859,0.11403104643221201,0.018478673455489966,-0.07299839596466283,-0.018784106074588972,-57.92166033323589,-18.868751826951183,-20.505700087693658
1700085191,0.9793254575942916,-0.1986701333027523,0.10793312951070336,0.023671027980173093,-0.07055493501187078,-0.016646077740895916,-58.15551008477053,-19.073370359543993,-19.921075708857057
1700085191,0.9793254575942916,-0.1986701333027523,0.10793312951070336,0.023671027980173093,-0.07055493501187078,-0.016646077740895916,-58.433206664717915,-18.91259865536393,-20.125694241449867
1700085191,0.9756667074413864,-0.19025500795107034,0.11305537972477062,0.03451388595818787,-0.058948495486108476,-0.010079276430267254,-58.433206664717915,-19.234142063724057,-20.622624963460975
1700085191,0.9756667074413864,-0.19025500795107034,0.11305537972477062,0.03451388595818787,-0.058948495486108476,-0.010079276430267254,-57.483192049108446,-18.971061093247588,-19.8626132709734
1700085191,0.9750569157492354,-0.18830367453618754,0.11025033794087664,0.029321531433504737,-0.05283984310412832,-0.00519235452468313,-57.71704180064309,-19.117217187956737,-20.388775211926337
1700085191,0.9750569157492354,-0.18830367453618754,0.11025033794087664,0.029321531433504737,-0.05283984310412832,-0.00519235452468313,-57.54165448699211,-18.67874890382929,-20.00876936568255
1700085191,0.9794474159327216,-0.18684017447502546,0.10756725449541284,0.012217304763960306,-0.047494772269895694,-0.00519235452468313,-57.57088570593394,-18.50336159017831,-19.774919614147908
1700085191,0.9794474159327216,-0.18684017447502546,0.10756725449541284,0.012217304763960306,-0.047494772269895694,-0.00519235452468313,-57.84858228588132,-18.868751826951183,-19.74568839520608
1700085191,0.9770082491641182,-0.18647429945973493,0.11134796298674822,-0.007330382858376184,-0.0358883327441334,-0.005345070834232635,-57.57088570593394,-18.85413621748027,-19.614147909967848
1700085191,0.9770082491641182,-0.18647429945973493,0.11134796298674822,-0.007330382858376184,-0.0358883327441334,-0.005345070834232635,-57.556270096463024,-18.64951768488746,-19.789535223618827
1700085191,0.9672515820897043,-0.19793838327217125,0.11403104643221201,-0.026572637861613665,-0.03115412714809878,-0.003665191429188092,-57.863197895352236,-18.591055247003798,-19.774919614147908
1700085191,0.9672515820897043,-0.19793838327217125,0.11403104643221201,-0.026572637861613665,-0.03115412714809878,-0.003665191429188092,-58.24320374159603,-18.91259865536393,-19.877228880444314
1700085191,0.9726177489806319,-0.2130612172375127,0.11329929640163097,-0.02275473012287607,-0.038789942625573975,-0.004428772976935611,-57.907044723764976,-19.00029231218942,-19.117217187956737
1700085191,0.9726177489806319,-0.2130612172375127,0.11329929640163097,-0.02275473012287607,-0.038789942625573975,-0.004428772976935611,-57.92166033323589,-18.82490499853844,-20.140309850920783
1700085191,0.9750569157492354,-0.19135263299694188,0.11281146304791029,0.00992656012071775,-0.04153883619746504,-0.009773843811168246,-58.14089447529962,-18.576439637532886,-20.37415960245542
1700085191,0.9750569157492354,-0.19135263299694188,0.11281146304791029,0.00992656012071775,-0.04153883619746504,-0.009773843811168246,-58.418591055247006,-19.292604501607716,-20.16954106986261
1700085191,0.9766423741488277,-0.18269359096839957,0.11220167135575941,0.0013744467859455344,-0.038331793696925465,-0.010842857978014772,-58.09704764688688,-19.00029231218942,-20.023384975153462
1700085191,0.9766423741488277,-0.18269359096839957,0.11220167135575941,0.0013744467859455344,-0.038331793696925465,-0.010842857978014772,-58.27243496053786,-18.781058170125693,-20.37415960245542
1700085191,0.9720079572884811,-0.20610959194699285,0.11622629652395512,-0.0198531202414355,-0.036041049053682904,-0.004581489286485115,-58.053200818474124,-18.91259865536393,-19.248757673194973
1700085191,0.9720079572884811,-0.20610959194699285,0.11622629652395512,-0.0198531202414355,-0.03787364476827695,-0.0006108652381980154,-58.0239695995323,-18.956445483776672,-20.1549254603917
1700085192,0.9765204158103974,-0.21293925889908258,0.11415300477064219,0.009315694882519734,-0.03787364476827695,-0.0006108652381980154,-58.08243203741596,-18.64951768488746,-19.467991815258696
1700085192,0.9765204158103974,-0.21293925889908258,0.11415300477064219,0.046883907031697675,-0.03237585762449481,-0.000916297857297023,-58.14089447529962,-18.44489915229465,-20.388775211926337
1700085192,0.9762764991335371,-0.1875719245056065,0.10744529615698266,0.046883907031697675,-0.03237585762449481,-0.000916297857297023,-57.965507161648645,-19.073370359543993,-19.877228880444314
1700085192,0.9762764991335371,-0.1875719245056065,0.10744529615698266,0.036041049053682904,-0.026878070480712675,0.0024434609527920616,-58.27243496053786,-18.781058170125693,-20.125694241449867
1700085192,0.9755447491029561,-0.18464492438328237,0.11293342138634047,0.036041049053682904,-0.026878070480712675,0.0024434609527920616,-57.92166033323589,-18.79567377959661,-20.432622040339083
1700085192,0.9755447491029561,-0.18464492438328237,0.11293342138634047,0.01038470904936626,-0.023518311670623588,0.003665191429188092,-57.80473545746858,-18.956445483776672,-19.921075708857057
1700085192,0.973349499011213,-0.2007434250560652,0.11232362969418959,0.01038470904936626,-0.023518311670623588,0.003665191429188092,-57.42472961122479,-19.26337328266589,-19.83338205203157
1700085192,0.973349499011213,-0.20659742530071357,0.11939721332313966,0.011759155835311794,-0.025198191075668133,-0.0006108652381980154,-57.629348143817595,-19.161064016369483,-20.856474714995617
1700085192,0.9633489152599388,-0.20659742530071357,0.11939721332313966,0.011759155835311794,-0.025198191075668133,-0.0006108652381980154,-58.038585209003216,-18.781058170125693,-20.06723180356621
1700085192,0.974081249041794,-0.19598704985728846,0.11647021320081548,0.02641992155206416,-0.04108068726881653,-0.00839939702522271,-58.55013154048524,-18.722595732242034,-19.424144986845953
1700085192,0.974081249041794,-0.19598704985728846,0.11647021320081548,0.02641992155206416,-0.04108068726881653,-0.00839939702522271,-58.47705349313066,-18.985676702718504,-20.92955276235019
1700085192,0.9716420822731905,-0.1857425494291539,0.11415300477064219,0.019700403931885994,-0.04413501345980661,-0.01313360262125733,-58.009353990061385,-18.547208418591055,-20.593393744519144
1700085192,0.9716420822731905,-0.1857425494291539,0.11415300477064219,0.019700403931885994,-0.04413501345980661,-0.01313360262125733,-57.65857936275943,-19.190295235311314,-19.950306927798888
1700085192,0.9783497908868501,-0.20013363336391438,0.1100064212640163,-0.005650503453331642,-0.04474587869800463,-0.01435533309765336,-57.64396375328851,-18.591055247003798,-20.286465945629935
1700085192,0.9783497908868501,-0.20013363336391438,0.1100064212640163,-0.005650503453331642,-0.04474587869800463,-0.01435533309765336,-58.111663256357794,-18.547208418591055,-20.228003507746273
1700085192,0.9727397073190621,-0.2007434250560652,0.1159823798470948,-0.0070249502392771765,-0.030695978219450273,-0.01511891464540088,-58.09704764688688,-19.029523531131247,-19.906460099386145
1700085192,0.9727397073190621,-0.2007434250560652,0.1159823798470948,-0.0070249502392771765,-0.030695978219450273,-0.01511891464540088,-58.24320374159603,-19.044139140602162,-20.432622040339083
1700085192,0.9784717492252801,-0.1985481749643221,0.10915271289500508,0.003817907738737596,-0.0277943683380097,-0.014660765716752368,-58.22858813212511,-19.073370359543993,-20.315697164571763
1700085192,0.9784717492252801,-0.1985481749643221,0.10915271289500508,0.003817907738737596,-0.0277943683380097,-0.014660765716752368,-58.0239695995323,-18.897983045893014,-20.476468868751827
1700085192,0.9763984574719673,-0.18830367453618754,0.11390908809378184,0.014049900478554353,-0.015424347264499889,-0.01313360262125733,-58.7109032446653,-18.722595732242034,-20.63724057293189
1700085192,0.9763984574719673,-0.18830367453618754,0.11390908809378184,0.014049900478554353,-0.015424347264499889,-0.01313360262125733,-58.15551008477053,-18.79567377959661,-20.19877228880444
1700085192,0.9783497908868501,-0.18549863275229356,0.11281146304791029,0.0032070425005395805,-0.0070249502392771765,-0.007788531787024695,-58.0239695995323,-18.956445483776672,-21.119555685472083
1700085192,0.9783497908868501,-0.18549863275229356,0.11281146304791029,0.0032070425005395805,-0.0070249502392771765,-0.007788531787024695,-58.184741303712364,-18.839520608009355,-20.257234726688104
1700085192,0.9794474159327216,-0.19257221638124364,0.11403104643221201,-0.010842857978014772,0.0012217304763960308,-0.003665191429188092,-57.80473545746858,-18.766442560654777,-20.53493130663549
1700085192,0.9794474159327216,-0.19257221638124364,0.11403104643221201,-0.010842857978014772,0.0012217304763960308,-0.003665191429188092,-57.89242911429406,-18.868751826951183,-20.651856182402806
1700085192,0.9707883739041795,-0.20513392523955148,0.11525062981651375,-0.009315694882519734,0.01114829059711378,0.000916297857297023,-57.87781350482315,-19.234142063724057,-20.66647179187372
1700085192,0.9707883739041795,-0.20513392523955148,0.11525062981651375,-0.009315694882519734,0.01114829059711378,0.000916297857297023,-58.09704764688688,-18.693364513300203,-20.72493422975738
1700085192,0.9721299156269112,-0.19586509151885828,0.12244617178389398,0.01069014166846527,0.012980886311707827,0.002138028333693054,-58.30166617947968,-18.766442560654777,-20.90032154340836
1700085192,0.9721299156269112,-0.19586509151885828,0.12244617178389398,0.01069014166846527,0.012980886311707827,0.002138028333693054,-58.27243496053786,-19.117217187956737,-20.92955276235019
1700085192,0.9732275406727828,-0.18488884106014272,0.12147050507645259,0.01069014166846527,0.009468411192069237,0.001069014166846527,-58.55013154048524,-19.365682548962294,-20.140309850920783
1700085192,0.9732275406727828,-0.18488884106014272,0.12147050507645259,0.01069014166846527,0.009468411192069237,0.002748893571891069,-57.8193510669395,-19.029523531131247,-20.768781058170124
1700085192,0.9731055823343526,-0.18927934124362894,0.11854350495412844,-0.010079276430267254,0.005039638215133627,0.002748893571891069,-58.053200818474124,-18.971061093247588,-21.01724641917568
1700085192,0.9731055823343526,-0.18927934124362894,0.11854350495412844,-0.022602013813326566,0.0035124751196385882,0.004123340357836604,-58.053200818474124,-19.292604501607716,-21.572639579070447
1700085192,0.9681052904587156,-0.205499800254842,0.12695863030581037,-0.022602013813326566,0.0035124751196385882,0.004123340357836604,-58.37474422683427,-18.85413621748027,-21.119555685472083
1700085192,0.9681052904587156,-0.205499800254842,0.12695863030581037,-0.009468411192069237,-0.004734205596034618,0.0003054326190990077,-58.009353990061385,-19.219526454253142,-20.593393744519144
1700085192,0.9662759153822629,-0.19915796665647298,0.12403163018348623,-0.009468411192069237,-0.004734205596034618,0.0003054326190990077,-57.92166033323589,-18.693364513300203,-21.031862028646593
1700085192,0.9662759153822629,-0.19915796665647298,0.12403163018348623,-0.0032070425005395805,-0.013439035240356337,-0.0016798794050445422,-57.87781350482315,-18.781058170125693,-20.798012277111955
1700085192,0.9751788740876657,-0.19379179976554536,0.12305596347604483,-0.0032070425005395805,-0.013439035240356337,-0.0016798794050445422,-58.053200818474124,-18.810289389067524,-21.236480561239404
1700085192,0.9751788740876657,-0.20525588357798163,0.12525121356778798,-0.00916297857297023,-0.012522737383059314,-0.0006108652381980154,-57.70242619117217,-18.82490499853844,-20.98801520023385
1700085192,0.9644465403058102,-0.20525588357798163,0.12525121356778798,-0.00916297857297023,-0.012522737383059314,-0.0006108652381980154,-57.76088862905583,-18.751826951183865,-20.72493422975738
1700085192,0.9679833321202853,-0.20232888345565747,0.12537317190621813,0.0032070425005395805,-0.02336559536107409,-0.0032070425005395805,-57.77550423852674,-18.488745980707396,-20.681087401344637
1700085192,0.9679833321202853,-0.20232888345565747,0.12537317190621813,0.0032070425005395805,-0.02336559536107409,-0.0032070425005395805,-58.111663256357794,-18.67874890382929,-21.01724641917568
1700085192,0.9715201239347604,-0.1950113831498471,0.12134854673802244,0.01069014166846527,-0.029626964052603743,-0.006108652381980153,-58.06781642794504,-18.766442560654777,-20.87109032446653
1700085192,0.9715201239347604,-0.1950113831498471,0.12134854673802244,0.01069014166846527,-0.029626964052603743,-0.006108652381980153,-57.87781350482315,-18.430283542823737,-20.768781058170124
1700085192,0.9726177489806319,-0.2000116750254842,0.12500729689092763,0.002901609881440573,-0.030543261909900768,-0.007483099167925688,-58.520900321543415,-18.401052323881906,-20.69570301081555
1700085192,0.9726177489806319,-0.2000116750254842,0.12500729689092763,0.002901609881440573,-0.030543261909900768,-0.007483099167925688,-58.12627886582871,-18.751826951183865,-20.8418591055247
1700085192,0.9687150821508664,-0.20025559170234453,0.125982963598369,0.004734205596034618,-0.029779680362153248,-0.009010262263420726,-58.3162817889506,-18.488745980707396,-20.608009353990063
1700085192,0.9687150821508664,-0.20025559170234453,0.125982963598369,0.004734205596034618,-0.029779680362153248,-0.009010262263420726,-58.47705349313066,-18.225665010230927,-20.564162525577316
1700085192,0.973349499011213,-0.19366984142711519,0.12671471362895004,0.013591751549905842,-0.03436116964863836,-0.00992656012071775,-58.49166910260158,-18.56182402806197,-20.98801520023385
1700085192,0.973349499011213,-0.19366984142711519,0.12671471362895004,0.013591751549905842,-0.03436116964863836,-0.00992656012071775,-57.8193510669395,-18.693364513300203,-20.66647179187372
1700085192,0.9695687905198777,-0.19549921650356777,0.12708058864424054,0.008093964406123703,-0.03481931857728687,-0.006872233929727673,-57.965507161648645,-18.79567377959661,-20.46185325928091
1700085192,0.9695687905198777,-0.19549921650356777,0.12708058864424054,0.008093964406123703,-0.03481931857728687,-0.006872233929727673,-58.0239695995323,-18.26951183864367,-20.69570301081555
1700085192,0.9737153740265035,-0.2000116750254842,0.12415358852191641,0.008552113334772215,-0.039706240482871,-0.004734205596034618,-57.8193510669395,-18.035662087109035,-20.81262788658287
1700085192,0.9737153740265035,-0.2000116750254842,0.12415358852191641,0.008552113334772215,-0.039706240482871,-0.004734205596034618,-58.36012861736335,-18.196433791289095,-21.36802104647764
1700085192,0.9672515820897043,-0.19464550813455656,0.12756842199796126,0.019089538693687978,-0.040011673101970006,-0.005039638215133627,-58.009353990061385,-18.2987430575855,-20.75416544869921
1700085192,0.9672515820897043,-0.19464550813455656,0.12756842199796126,0.019089538693687978,-0.040011673101970006,-0.005039638215133627,-58.3162817889506,-17.991815258696285,-20.798012277111955
1700085192,0.9696907488583079,-0.1950113831498471,0.12634883861365953,0.010231992739816757,-0.04581489286485115,-0.006261368691529657,-58.21397252265419,-18.09412452499269,-20.798012277111955
1700085192,0.9696907488583079,-0.1950113831498471,0.12634883861365953,0.010231992739816757,-0.04581489286485115,-0.006261368691529657,-58.44782227418883,-18.459514761765565,-20.90032154340836
1700085192,0.973349499011213,-0.19366984142711519,0.12256813012232415,0.005497787143782138,-0.05009094953223726,-0.005497787143782138,-57.907044723764976,-15.112540192926044,-21.10494007600117
1700085192,0.973349499011213,-0.19366984142711519,0.12256813012232415,0.005497787143782138,-0.05009094953223726,-0.005497787143782138,-57.863197895352236,-18.591055247003798,-21.674948845366853
1700085192,0.9750569157492354,-0.20196300844036694,0.1228120467991845,0.005955936072430649,-0.04657847441259867,-0.0022907446432425577,-57.61473253434668,-18.82490499853844,-21.36802104647764
1700085192,0.9750569157492354,-0.20196300844036694,0.1228120467991845,0.017715091907742442,-0.04291328298341058,-0.00015271630954950385,-57.10318620286466,-18.079508915521778,-20.69570301081555
1700085192,0.9672515820897043,-0.2041582585321101,0.12878800538226298,0.017715091907742442,-0.04291328298341058,-0.00015271630954950385,-57.46857643963753,-18.26951183864367,-20.651856182402806
1700085192,0.9672515820897043,-0.2041582585321101,0.12878800538226298,0.03558290012503439,-0.04902193536539073,0.0015271630954950383,-57.8193510669395,-18.70798012277112,-21.221864951768488
1700085192,0.9727397073190621,-0.20049950837920488,0.12293400513761468,0.03558290012503439,-0.04902193536539073,0.0015271630954950383,-57.3370359543993,-18.941829874305757,-21.002630809704765
1700085192,0.9727397073190621,-0.20049950837920488,0.12293400513761468,0.04276056667386108,-0.04657847441259867,0.0,-57.61473253434668,-18.2987430575855,-20.03800058462438
1700085192,0.9782278325484199,-0.19062088296636084,0.12208029676860346,0.04276056667386108,-0.04657847441259867,0.0,-57.60011692487576,-19.014907921660335,-20.125694241449867
1700085192,0.9782278325484199,-0.19062088296636084,0.1223242134454638,0.030085112981252254,-0.038942658935123484,-0.0007635815477475192,-58.24320374159603,-18.547208418591055,-20.432622040339083
1700085192,0.9692029155045871,-0.18842563287461775,0.1223242134454638,0.030085112981252254,-0.038942658935123484,-0.0007635815477475192,-58.25781935106694,-18.868751826951183,-20.03800058462438
1700085192,0.9745690823955148,-0.19891404997961265,0.12329988015290519,0.008093964406123703,-0.03787364476827695,-0.000916297857297023,-57.965507161648645,-18.79567377959661,-19.877228880444314
1700085192,0.9745690823955148,-0.19891404997961265,0.12329988015290519,0.008093964406123703,-0.03787364476827695,-0.000916297857297023,-58.09704764688688,-18.430283542823737,-20.388775211926337
1700085192,0.9726177489806319,-0.19976775834862384,0.12525121356778798,0.012370021073509811,-0.03527746750593539,-0.000916297857297023,-57.89242911429406,-18.868751826951183,-20.914937152879276
1700085192,0.9726177489806319,-0.19976775834862384,0.12525121356778798,0.012370021073509811,-0.03527746750593539,-0.000916297857297023,-58.038585209003216,-18.79567377959661,-20.140309850920783
1700085192,0.97115424891947,-0.20135321674821607,0.12854408870540263,0.023518311670623588,-0.03787364476827695,0.001832595714594046,-57.67319497223035,-18.810289389067524,-21.309558608593978
1700085192,0.97115424891947,-0.20135321674821607,0.12854408870540263,0.023518311670623588,-0.03787364476827695,0.001832595714594046,-58.06781642794504,-18.868751826951183,-20.651856182402806
1700085192,0.9696907488583079,-0.19842621662589194,0.12171442175331294,0.03130684345764829,-0.038942658935123484,0.0039706240482871,-57.95089155217773,-18.576439637532886,-20.768781058170124
1700085192,0.9696907488583079,-0.19842621662589194,0.12171442175331294,0.03130684345764829,-0.038942658935123484,0.0039706240482871,-58.433206664717915,-18.47413037123648,-21.134171294943
1700085192,0.9793254575942916,-0.19415767478083587,0.12451946353720693,0.03466660226773737,-0.038637226316024474,0.003665191429188092,-58.40397544577609,-18.693364513300203,-20.75416544869921
1700085192,0.9793254575942916,-0.19415767478083587,0.12451946353720693,0.03466660226773737,-0.038637226316024474,0.003665191429188092,-58.22858813212511,-18.8833674364221,-20.578778135048232
1700085192,0.967739415443425,-0.19610900819571864,0.12622688027522935,0.02428189321837111,-0.0320704250053958,0.000916297857297023,-58.053200818474124,-18.605670856474717,-20.81262788658287
1700085192,0.967739415443425,-0.19610900819571864,0.12622688027522935,0.02428189321837111,-0.0320704250053958,0.000916297857297023,-58.184741303712364,-18.38643671441099,-20.98801520023385
1700085192,0.9751788740876657,-0.1895232579204893,0.125982963598369,0.020922134408282025,-0.036804630601430424,-0.0007635815477475192,-57.629348143817595,-18.766442560654777,-20.301081555100847
1700085192,0.9751788740876657,-0.1895232579204893,0.125982963598369,0.020922134408282025,-0.036804630601430424,-0.0007635815477475192,-58.14089447529962,-18.079508915521778,-21.10494007600117
1700085192,0.9703005405504586,-0.20049950837920488,0.12476338021406727,0.013286318930806833,-0.036804630601430424,0.0012217304763960308,-57.965507161648645,-18.44489915229465,-21.119555685472083
1700085192,0.9703005405504586,-0.20049950837920488,0.12476338021406727,0.013286318930806833,-0.036804630601430424,0.0012217304763960308,-57.76088862905583,-18.62028646594563,-20.914937152879276
1700085192,0.9700566238735983,-0.20452413354740062,0.12488533855249745,0.020463985479633514,-0.04123340357836603,0.00015271630954950385,-57.99473838059047,-18.24028061970184,-20.681087401344637
1700085192,0.9700566238735983,-0.20452413354740062,0.12488533855249745,0.020463985479633514,-0.04123340357836603,0.00015271630954950385,-57.556270096463024,-18.26951183864367,-20.432622040339083
1700085192,0.9722518739653414,-0.1908647996432212,0.12610492193679917,0.03237585762449481,-0.04245513405476207,-0.0039706240482871,-57.71704180064309,-18.415667933352818,-21.061093247588424
1700085192,0.9722518739653414,-0.1908647996432212,0.12610492193679917,0.03237585762449481,-0.04245513405476207,-0.0039706240482871,-57.8193510669395,-18.50336159017831,-20.783396667641043
1700085192,0.9709103322426095,-0.20025559170234453,0.12488533855249745,0.01389718416900485,-0.04260785036431157,-0.006414085001079161,-57.38088278281205,-18.664133294358376,-20.95878398129202
1700085192,0.9709103322426095,-0.20025559170234453,0.12488533855249745,0.01389718416900485,-0.04260785036431157,-0.006414085001079161,-57.79011984799766,-18.79567377959661,-20.330312774042678
1700085192,0.9690809571661569,-0.20598763360856268,0.12915388039755352,0.010079276430267254,-0.04276056667386108,-0.008093964406123703,-58.25781935106694,-18.941829874305757,-20.03800058462438
1700085192,0.9690809571661569,-0.20598763360856268,0.12915388039755352,0.010079276430267254,-0.04932736798448974,-0.007330382858376184,-57.70242619117217,-18.415667933352818,-20.66647179187372
1700085192,0.9628610819062181,-0.2085487587155963,0.13086129713557593,0.026878070480712675,-0.04932736798448974,-0.007330382858376184,-57.65857936275943,-18.24028061970184,-20.90032154340836
1700085192,0.9628610819062181,-0.2085487587155963,0.13086129713557593,0.052228977865930316,-0.058948495486108476,-0.006108652381980153,-58.06781642794504,-18.342589885998244,-20.403390821397252
1700085192,0.9789595825790008,-0.1876938828440367,0.12317792181447501,0.052228977865930316,-0.058948495486108476,-0.006108652381980153,-57.5270388775212,-18.664133294358376,-20.72493422975738
1700085192,0.9789595825790008,-0.1876938828440367,0.12317792181447501,0.0439822971502571,-0.049174651674940235,-0.0013744467859455344,-57.68781058170126,-18.751826951183865,-21.148786904413914
1700085192,0.9759106241182466,-0.1817179242609582,0.12451946353720693,0.0439822971502571,-0.049174651674940235,-0.0013744467859455344,-57.907044723764976,-18.488745980707396,-20.95878398129202
1700085193,0.9759106241182466,-0.1817179242609582,0.11976308833843018,0.010842857978014772,-0.04230241774521256,0.0013744467859455344,-57.629348143817595,-18.693364513300203,-19.97953814674072
1700085193,0.9766423741488277,-0.19842621662589194,0.11976308833843018,0.010842857978014772,-0.04230241774521256,0.0013744467859455344,-57.67319497223035,-18.91259865536393,-20.06723180356621
1700085193,0.9790815409174312,-0.20196300844036694,0.11976308833843018,0.008246680715673207,-0.03145955976719779,-0.0004581489286485115,-57.92166033323589,-18.927214264834845,-21.002630809704765
1700085193,0.9790815409174312,-0.20196300844036694,0.11976308833843018,0.008246680715673207,-0.03145955976719779,-0.0004581489286485115,-57.98012277111956,-18.8833674364221,-20.286465945629935
1700085193,0.9754227907645259,-0.19208438302752293,0.12573904692150867,0.01679879405044542,-0.018020524526841452,-0.00198531202414355,-57.70242619117217,-19.1756796258404,-20.096463022508036
1700085193,0.9754227907645259,-0.19208438302752293,0.12573904692150867,0.01679879405044542,-0.018020524526841452,-0.00198531202414355,-58.12627886582871,-19.058754750073078,-20.72493422975738
1700085193,0.9728616656574923,-0.19245025804281343,0.12744646365953108,0.008857545953871221,-0.012370021073509811,-0.0004581489286485115,-57.68781058170126,-19.2779888921368,-20.35954399298451
1700085193,0.9728616656574923,-0.19245025804281343,0.12744646365953108,0.008857545953871221,-0.012370021073509811,-0.0004581489286485115,-58.09704764688688,-19.409529377375037,-20.856474714995617
1700085193,0.973349499011213,-0.19049892462793067,0.12976367208970438,0.005039638215133627,-0.012675453692608817,0.0012217304763960308,-57.43934522069571,-18.971061093247588,-21.411867874890383
1700085193,0.973349499011213,-0.19049892462793067,0.12976367208970438,0.005039638215133627,-0.012675453692608817,0.0012217304763960308,-57.80473545746858,-18.82490499853844,-20.856474714995617
1700085193,0.9668857070744138,-0.20708525865443422,0.12878800538226298,-0.005803219762881146,-0.016187928812247405,0.001832595714594046,-57.99473838059047,-18.79567377959661,-20.140309850920783
1700085193,0.9668857070744138,-0.20708525865443422,0.12878800538226298,-0.005803219762881146,-0.016187928812247405,0.001832595714594046,-57.32242034492838,-18.810289389067524,-20.06723180356621
1700085193,0.9707883739041795,-0.20562175859327214,0.12671471362895004,0.0012217304763960308,-0.022907446432425576,-0.005650503453331642,-57.57088570593394,-18.956445483776672,-21.01724641917568
1700085193,0.9707883739041795,-0.20562175859327214,0.12671471362895004,0.0012217304763960308,-0.022907446432425576,-0.005650503453331642,-57.731657410114,-18.839520608009355,-20.257234726688104
1700085193,0.9698127071967381,-0.18513275773700305,0.132324797196738,0.010079276430267254,-0.02183843226557905,-0.011759155835311794,-57.351651563870206,-18.488745980707396,-20.388775211926337
1700085193,0.9698127071967381,-0.18513275773700305,0.132324797196738,0.010079276430267254,-0.02183843226557905,-0.011759155835311794,-57.863197895352236,-18.67874890382929,-20.783396667641043
1700085193,0.9660319987054026,-0.19757250825688072,0.13208088051987768,-0.014966198335851376,-0.028252517266658207,-0.01069014166846527,-57.907044723764976,-18.85413621748027,-21.309558608593978
1700085193,0.9660319987054026,-0.19757250825688072,0.13208088051987768,-0.014966198335851376,-0.028252517266658207,-0.01069014166846527,-57.46857643963753,-19.219526454253142,-20.739549839228296
1700085193,0.9683492071355759,-0.21110988382262996,0.13000758876656474,-0.022602013813326566,-0.03665191429188092,-0.010842857978014772,-57.98012277111956,-19.102601578485825,-20.52031569716457
1700085193,0.9683492071355759,-0.21110988382262996,0.13000758876656474,-0.022602013813326566,-0.03665191429188092,-0.010842857978014772,-58.009353990061385,-19.234142063724057,-21.119555685472083
1700085193,0.9738373323649337,-0.19732859158002036,0.12817821369011215,-0.004123340357836604,-0.03955352417332149,-0.01511891464540088,-57.965507161648645,-19.292604501607716,-20.944168371821103
1700085193,0.9738373323649337,-0.19732859158002036,0.12817821369011215,-0.004123340357836604,-0.03955352417332149,-0.01511891464540088,-57.51242326805027,-19.292604501607716,-21.35340543700672
1700085193,0.9694468321814476,-0.19793838327217125,0.12951975541284402,-0.008857545953871221,-0.037568212149177944,-0.019394971312786988,-57.5270388775212,-18.85413621748027,-21.397252265419468
1700085193,0.9694468321814476,-0.19793838327217125,0.12951975541284402,-0.008857545953871221,-0.037568212149177944,-0.019394971312786988,-57.907044723764976,-18.751826951183865,-20.69570301081555
1700085193,0.9690809571661569,-0.20196300844036694,0.12927583873598367,-0.015729779883598895,-0.0398589567924205,-0.02153299964648004,-57.83396667641041,-19.029523531131247,-20.798012277111955
1700085193,0.9690809571661569,-0.20196300844036694,0.12927583873598367,-0.015729779883598895,-0.0398589567924205,-0.02153299964648004,-57.87781350482315,-19.014907921660335,-21.397252265419468
1700085193,0.9722518739653414,-0.2007434250560652,0.1306173804587156,-0.004581489286485115,-0.04184426881656405,-0.02138028333693054,-57.629348143817595,-19.146448406898568,-21.499561531715873
1700085193,0.9722518739653414,-0.2007434250560652,0.1306173804587156,0.004886921905584123,-0.04016438941151951,-0.018936822384138473,-57.99473838059047,-19.190295235311314,-21.54340836012862
1700085193,0.9720079572884811,-0.19440159145769623,0.1273245053211009,0.004886921905584123,-0.04016438941151951,-0.018936822384138473,-57.3370359543993,-19.234142063724057,-21.19263373282666
1700085193,0.9720079572884811,-0.19440159145769623,0.1273245053211009,0.002901609881440573,-0.038331793696925465,-0.014813482026301871,-57.74627301958491,-19.438760596316868,-21.19263373282666
1700085193,0.9750569157492354,-0.20025559170234453,0.1273245053211009,0.002901609881440573,-0.038331793696925465,-0.014813482026301871,-57.863197895352236,-19.248757673194973,-21.207249342297573
1700085193,0.9685931238124362,-0.1972066332415902,0.13293458888888887,0.012828170002158322,-0.03268129024359382,-0.011911872144861299,-57.83396667641041,-18.985676702718504,-21.19263373282666
1700085193,0.9685931238124362,-0.1972066332415902,0.13293458888888887,0.012828170002158322,-0.03268129024359382,-0.011911872144861299,-57.43934522069571,-18.73721134171295,-21.73341128325051
1700085193,0.9707883739041795,-0.19330396641182468,0.13171500550458715,0.019547687622336492,-0.03787364476827695,-0.009468411192069237,-57.84858228588132,-18.971061093247588,-21.01724641917568
1700085193,0.9707883739041795,-0.19330396641182468,0.13171500550458715,0.019547687622336492,-0.03787364476827695,-0.009468411192069237,-58.0239695995323,-18.868751826951183,-20.944168371821103
1700085193,0.973471457349643,-0.1926941747196738,0.1289099637206932,0.017409659288643436,-0.04352414822160859,-0.00839939702522271,-58.06781642794504,-18.591055247003798,-21.04647763811751
1700085193,0.973471457349643,-0.1926941747196738,0.1289099637206932,0.017409659288643436,-0.04352414822160859,-0.00839939702522271,-57.16164864074832,-19.248757673194973,-20.783396667641043
1700085193,0.970544457227319,-0.19549921650356777,0.13000758876656474,0.013439035240356337,-0.04306599929296008,-0.007330382858376184,-57.61473253434668,-18.971061093247588,-20.593393744519144
1700085193,0.970544457227319,-0.19549921650356777,0.13000758876656474,0.013439035240356337,-0.04306599929296008,-0.007330382858376184,-57.57088570593394,-19.117217187956737,-20.505700087693658
1700085193,0.9727397073190621,-0.19598704985728846,0.12805625535168194,0.011606439525762293,-0.0438295808407076,-0.0070249502392771765,-57.92166033323589,-19.1756796258404,-20.53493130663549
1700085193,0.9727397073190621,-0.19598704985728846,0.12805625535168194,0.011606439525762293,-0.0438295808407076,-0.0070249502392771765,-57.585501315404855,-18.47413037123648,-20.476468868751827
1700085193,0.9744471240570844,-0.19464550813455656,0.12671471362895004,0.014202616788103856,-0.039706240482871,-0.004123340357836604,-57.16164864074832,-19.00029231218942,-20.69570301081555
1700085193,0.9744471240570844,-0.19464550813455656,0.12671471362895004,0.014202616788103856,-0.039706240482871,-0.004123340357836604,-57.5270388775212,-19.190295235311314,-20.72493422975738
1700085193,0.9684711654740061,-0.20025559170234453,0.1309832554740061,0.014508049407202865,-0.036193765363232405,0.0,-57.54165448699211,-19.26337328266589,-21.4264834843613
1700085193,0.9684711654740061,-0.20025559170234453,0.1309832554740061,0.014508049407202865,-0.036193765363232405,0.0,-57.863197895352236,-19.2779888921368,-21.762642502192342
1700085193,0.9721299156269112,-0.1972066332415902,0.13244675553516816,0.026878070480712675,-0.040317105721069016,0.0,-58.22858813212511,-19.365682548962294,-21.397252265419468
1700085193,0.9721299156269112,-0.1972066332415902,0.13244675553516816,0.026878070480712675,-0.040317105721069016,0.0,-58.0239695995323,-19.131832797427652,-20.593393744519144
1700085193,0.9709103322426095,-0.18805975785932721,0.1314710888277268,0.03359758810089084,-0.045356743936202634,-0.001069014166846527,-58.053200818474124,-18.85413621748027,-20.827243496053786
1700085193,0.9709103322426095,-0.18805975785932721,0.1314710888277268,0.03359758810089084,-0.045356743936202634,-0.001069014166846527,-57.95089155217773,-18.839520608009355,-21.689564454837768
1700085193,0.9707883739041795,-0.19988971668705402,0.13049542212028542,0.023212879051524585,-0.05207626155638081,0.0012217304763960308,-57.87781350482315,-19.190295235311314,-21.674948845366853
1700085193,0.9707883739041795,-0.19988971668705402,0.13049542212028542,0.023212879051524585,-0.05207626155638081,0.0012217304763960308,-57.74627301958491,-19.190295235311314,-21.572639579070447
1700085193,0.9656661236901122,-0.20501196690112128,0.1314710888277268,0.0317649923862968,-0.05803219762881146,0.001069014166846527,-58.25781935106694,-19.08798596901491,-21.748026892721427
1700085193,0.9656661236901122,-0.20501196690112128,0.1314710888277268,0.0317649923862968,-0.05803219762881146,0.001069014166846527,-57.585501315404855,-19.39491376790412,-21.455714703303126
1700085193,0.9682272487971457,-0.19940188333333334,0.1314710888277268,0.045662176555301644,-0.06612616203493515,-0.002901609881440573,-57.907044723764976,-19.219526454253142,-21.265711780181235
1700085193,0.9682272487971457,-0.19940188333333334,0.1314710888277268,0.045662176555301644,-0.06612616203493515,-0.002901609881440573,-58.27243496053786,-19.029523531131247,-21.7187956737796
1700085193,0.97115424891947,-0.19427963311926605,0.12927583873598367,0.046883907031697675,-0.07315111227421234,-0.0079412480965742,-57.80473545746858,-19.380298158433206,-21.25109617071032
1700085193,0.97115424891947,-0.19427963311926605,0.12927583873598367,0.046883907031697675,-0.07315111227421234,-0.0079412480965742,-58.08243203741596,-19.511838643671442,-21.51417714118679
1700085193,0.9660319987054026,-0.2022069251172273,0.13049542212028542,0.040011673101970006,-0.07910704834664298,-0.009468411192069237,-57.80473545746858,-19.058754750073078,-21.484945922244957
1700085193,0.9660319987054026,-0.2022069251172273,0.13049542212028542,0.040011673101970006,-0.07910704834664298,-0.009468411192069237,-57.79011984799766,-19.219526454253142,-21.981876644256065
1700085193,0.9683492071355759,-0.20659742530071357,0.12939779707441387,0.04902193536539073,-0.0919352183488013,-0.013591751549905842,-57.46857643963753,-19.029523531131247,-21.236480561239404
1700085193,0.9683492071355759,-0.20659742530071357,0.12939779707441387,0.06765332513043021,-0.10186177846951905,-0.018936822384138473,-57.556270096463024,-19.058754750073078,-21.35340543700672
1700085193,0.9676174571049948,-0.19513334148827727,0.12915388039755352,0.06765332513043021,-0.10186177846951905,-0.018936822384138473,-57.65857936275943,-19.409529377375037,-21.10494007600117
1700085193,0.9718859989500509,-0.18940129958205915,0.1256170885830785,0.061850105367549056,-0.10934487763744474,-0.022143864884678056,-57.71704180064309,-19.541069862613274,-21.36802104647764
1700085193,0.9718859989500509,-0.18940129958205915,0.1256170885830785,0.061850105367549056,-0.10934487763744474,-0.022143864884678056,-57.76088862905583,-19.526454253142354,-21.294942999123062
1700085193,0.9806669993170233,-0.1862303827828746,0.12073875504587155,0.04642575810304917,-0.11102475704248929,-0.023671027980173093,-57.79011984799766,-19.380298158433206,-21.821104940076
1700085193,0.9806669993170233,-0.1862303827828746,0.12073875504587155,0.04642575810304917,-0.11102475704248929,-0.023671027980173093,-57.89242911429406,-19.26337328266589,-21.64571762642502
1700085193,0.9760325824566768,-0.18805975785932721,0.12061679670744137,0.030390545600351263,-0.09789115442123195,-0.022143864884678056,-57.54165448699211,-19.65799473838059,-20.827243496053786
1700085193,0.9760325824566768,-0.18805975785932721,0.12061679670744137,0.030390545600351263,-0.09789115442123195,-0.022143864884678056,-57.95089155217773,-19.48260742472961,-21.51417714118679
1700085193,0.9743251657186545,-0.1948894248114169,0.12037288003058104,0.01435533309765336,-0.08888089215781124,-0.020616701789183015,-58.0239695995323,-20.03800058462438,-21.01724641917568
1700085193,0.9743251657186545,-0.1948894248114169,0.12037288003058104,0.01435533309765336,-0.08888089215781124,-0.020616701789183015,-57.936275942706814,-19.321835720549547,-21.324174218064893
1700085193,0.9726177489806319,-0.1990360083180428,0.12061679670744137,0.011911872144861299,-0.08445211918087563,-0.02153299964648004,-58.053200818474124,-19.59953230049693,-21.134171294943
1700085193,0.9726177489806319,-0.1990360083180428,0.12061679670744137,0.011911872144861299,-0.08445211918087563,-0.02153299964648004,-57.95089155217773,-19.760304004676996,-21.119555685472083
1700085193,0.9744471240570844,-0.19062088296636084,0.11866546329255862,0.017867808217291947,-0.08445211918087563,-0.023671027980173093,-57.74627301958491,-19.029523531131247,-21.587255188541363
1700085193,0.9744471240570844,-0.19062088296636084,0.11866546329255862,0.017867808217291947,-0.08445211918087563,-0.023671027980173093,-57.46857643963753,-19.789535223618827,-21.324174218064893
1700085193,0.9771302075025483,-0.1812300909072375,0.11817762993883793,0.010842857978014772,-0.07773260156069746,-0.022907446432425576,-57.68781058170126,-19.336451330020463,-20.432622040339083
1700085193,0.9771302075025483,-0.1812300909072375,0.11817762993883793,0.010842857978014772,-0.07773260156069746,-0.022907446432425576,-57.95089155217773,-19.351066939491375,-20.46185325928091
1700085193,0.973471457349643,-0.19001109127420998,0.11842154661569826,-0.006719517620178169,-0.06948592084502425,-0.016493361431346415,-57.80473545746858,-19.59953230049693,-21.207249342297573
1700085193,0.973471457349643,-0.19001109127420998,0.11842154661569826,-0.006719517620178169,-0.06948592084502425,-0.016493361431346415,-57.80473545746858,-19.65799473838059,-21.19263373282666
1700085193,0.9742032073802243,-0.19610900819571864,0.12025092169215086,-0.007330382858376184,-0.0675006088208807,-0.011911872144861299,-57.74627301958491,-19.336451330020463,-20.622624963460975
1700085193,0.9742032073802243,-0.19610900819571864,0.12025092169215086,-0.007330382858376184,-0.0675006088208807,-0.011911872144861299,-58.184741303712364,-20.03800058462438,-21.19263373282666
1700085193,0.9784717492252801,-0.18562059109072374,0.11232362969418959,0.0039706240482871,-0.06536258048718764,-0.010995574287564275,-58.30166617947968,-19.8626132709734,-21.25109617071032
1700085193,0.9784717492252801,-0.18562059109072374,0.11232362969418959,0.0039706240482871,-0.06536258048718764,-0.010995574287564275,-58.47705349313066,-19.48260742472961,-20.827243496053786
1700085193,0.9827402910703363,-0.1857425494291539,0.11110404630988786,-0.004581489286485115,-0.05589416929511841,-0.007788531787024695,-58.24320374159603,-19.146448406898568,-20.783396667641043
1700085193,0.9827402910703363,-0.1857425494291539,0.11110404630988786,-0.004581489286485115,-0.05589416929511841,-0.007788531787024695,-57.95089155217773,-19.26337328266589,-21.031862028646593
1700085193,0.9696907488583079,-0.19684075822629968,0.1200070050152905,-0.013591751549905842,-0.040622538340168025,-0.0035124751196385882,-57.453960830166615,-19.438760596316868,-21.061093247588424
1700085193,0.9696907488583079,-0.19684075822629968,0.1200070050152905,-0.013591751549905842,-0.040622538340168025,-0.0035124751196385882,-58.111663256357794,-19.45337620578778,-20.286465945629935
1700085193,0.9698127071967381,-0.2008653833944954,0.1200070050152905,-0.002748893571891069,-0.044898595007554123,-0.0035124751196385882,-57.907044723764976,-19.555685472084186,-20.505700087693658
1700085193,0.9698127071967381,-0.2008653833944954,0.1200070050152905,-0.002748893571891069,-0.044898595007554123,-0.0035124751196385882,-58.0239695995323,-19.073370359543993,-20.651856182402806
1700085193,0.9727397073190621,-0.19159654967380224,0.11622629652395512,0.012675453692608817,-0.05192354524683131,-0.006566801310628665,-58.7109032446653,-19.365682548962294,-20.622624963460975
1700085193,0.9727397073190621,-0.19159654967380224,0.11622629652395512,0.012675453692608817,-0.05192354524683131,-0.006566801310628665,-58.22858813212511,-19.467991815258696,-21.236480561239404
1700085193,0.9750569157492354,-0.1875719245056065,0.1187874216309888,0.012370021073509811,-0.05390885727097486,-0.0070249502392771765,-58.418591055247006,-19.219526454253142,-20.37415960245542
1700085193,0.9750569157492354,-0.19427963311926605,0.11842154661569826,0.005650503453331642,-0.05406157358052436,-0.00519235452468313,-58.36012861736335,-19.08798596901491,-20.505700087693658
1700085193,0.9712762072579,-0.19427963311926605,0.11842154661569826,0.005650503453331642,-0.05406157358052436,-0.00519235452468313,-58.564747149956155,-19.511838643671442,-20.403390821397252
1700085193,0.9773741241794087,-0.19879209164118244,0.11244558803261977,0.01038470904936626,-0.058643062867009474,-0.00519235452468313,-58.24320374159603,-19.62876351943876,-20.75416544869921
1700085193,0.9773741241794087,-0.19879209164118244,0.11244558803261977,0.01038470904936626,-0.058643062867009474,-0.00519235452468313,-58.24320374159603,-19.131832797427652,-20.403390821397252
1700085193,0.9759106241182466,-0.18903542456676858,0.1159823798470948,0.02229658119422756,-0.05390885727097486,-0.00916297857297023,-58.184741303712364,-19.48260742472961,-20.315697164571763
1700085193,0.9759106241182466,-0.18903542456676858,0.1159823798470948,0.02229658119422756,-0.05390885727097486,-0.00916297857297023,-58.433206664717915,-19.26337328266589,-19.935691318327976
1700085193,0.9766423741488277,-0.1835472993374108,0.11573846317023444,0.017409659288643436,-0.050549098460885775,-0.01114829059711378,-58.038585209003216,-19.044139140602162,-21.280327389652147
1700085193,0.9766423741488277,-0.1835472993374108,0.11573846317023444,0.017409659288643436,-0.050549098460885775,-0.01114829059711378,-58.111663256357794,-19.716457176264253,-21.119555685472083
1700085194,0.9720079572884811,-0.19513334148827727,0.11720196323139653,0.002138028333693054,-0.049174651674940235,-0.007483099167925688,-58.30166617947968,-19.073370359543993,-20.052616194095293
1700085194,0.9720079572884811,-0.19513334148827727,0.11720196323139653,0.002138028333693054,-0.049174651674940235,-0.007483099167925688,-58.65244080678165,-19.26337328266589,-19.511838643671442
1700085194,0.9707883739041795,-0.20196300844036694,0.11695804655453616,0.008246680715673207,-0.05192354524683131,-0.006414085001079161,-58.418591055247006,-19.161064016369483,-20.24261911721719
1700085194,0.9707883739041795,-0.20196300844036694,0.11695804655453616,0.008246680715673207,-0.05192354524683131,-0.006414085001079161,-58.462437883659746,-19.26337328266589,-20.19877228880444
1700085194,0.9720079572884811,-0.1875719245056065,0.11708000489296637,0.02504547476611863,-0.05726861608106394,-0.011911872144861299,-58.111663256357794,-19.248757673194973,-19.219526454253142
1700085194,0.9720079572884811,-0.1875719245056065,0.11708000489296637,0.02504547476611863,-0.05726861608106394,-0.011911872144861299,-58.24320374159603,-19.365682548962294,-20.301081555100847
1700085194,0.9783497908868501,-0.16757075700305807,0.11427496310907237,0.01435533309765336,-0.06154467274845005,-0.016493361431346415,-58.37474422683427,-19.424144986845953,-20.03800058462438
1700085194,0.9783497908868501,-0.16757075700305807,0.11427496310907237,0.01435533309765336,-0.06154467274845005,-0.016493361431346415,-57.8193510669395,-19.102601578485825,-20.95878398129202
1700085194,0.9785937075637104,-0.1862303827828746,0.11354321307849133,-0.02703078679026218,-0.057574048700162944,-0.009773843811168246,-57.89242911429406,-19.497223034200527,-20.432622040339083
1700085194,0.9785937075637104,-0.1862303827828746,0.11354321307849133,-0.02703078679026218,-0.057574048700162944,-0.009773843811168246,-58.12627886582871,-19.48260742472961,-20.476468868751827
1700085194,0.9692029155045871,-0.21001225877675841,0.1136651714169215,-0.03558290012503439,-0.05009094953223726,-0.0022907446432425577,-57.99473838059047,-19.584916691026017,-20.403390821397252
1700085194,0.9692029155045871,-0.21001225877675841,0.1136651714169215,-0.03558290012503439,-0.05009094953223726,-0.0022907446432425577,-58.59397836889798,-19.146448406898568,-20.87109032446653
1700085194,0.9762764991335371,-0.19732859158002036,0.11122600464831804,0.000916297857297023,-0.05009094953223726,-0.002138028333693054,-58.608593978368894,-18.971061093247588,-20.35954399298451
1700085194,0.9762764991335371,-0.19732859158002036,0.11122600464831804,0.000916297857297023,-0.05009094953223726,-0.002138028333693054,-58.433206664717915,-18.664133294358376,-20.651856182402806
1700085194,0.9735934156880733,-0.18476688272171252,0.11427496310907237,0.011453723216212788,-0.0436768645311581,-0.0033597588100890844,-58.37474422683427,-18.941829874305757,-20.315697164571763
1700085194,0.9735934156880733,-0.18476688272171252,0.11427496310907237,0.011453723216212788,-0.0436768645311581,-0.0033597588100890844,-57.8193510669395,-19.117217187956737,-21.16340251388483
1700085194,0.9738373323649337,-0.19245025804281343,0.11268950470948011,-0.006414085001079161,-0.04337143191205909,-0.0030543261909900766,-58.418591055247006,-19.2779888921368,-20.72493422975738
1700085194,0.9738373323649337,-0.19245025804281343,0.11268950470948011,-0.006414085001079161,-0.04337143191205909,-0.0030543261909900766,-58.85705933937445,-18.941829874305757,-20.418006430868168
1700085194,0.9732275406727828,-0.19793838327217125,0.11537258815494392,-0.007635815477475192,-0.04153883619746504,-0.0013744467859455344,-58.14089447529962,-19.26337328266589,-20.491084478222742
1700085194,0.9732275406727828,-0.19793838327217125,0.11537258815494392,-0.007635815477475192,-0.04153883619746504,-0.0013744467859455344,-58.37474422683427,-19.248757673194973,-20.95878398129202
1700085194,0.9693248738430171,-0.20257280013251783,0.11622629652395512,0.00839939702522271,-0.04428772976935611,-0.000916297857297023,-58.009353990061385,-19.380298158433206,-20.330312774042678
1700085194,0.9693248738430171,-0.20257280013251783,0.11622629652395512,0.00839939702522271,-0.04428772976935611,-0.000916297857297023,-58.667056416252564,-19.511838643671442,-20.1549254603917
1700085194,0.9709103322426095,-0.1972066332415902,0.11671412987767583,0.0277943683380097,-0.05207626155638081,-0.0035124751196385882,-58.564747149956155,-19.365682548962294,-20.46185325928091
1700085194,0.9709103322426095,-0.1972066332415902,0.11671412987767583,0.0277943683380097,-0.05207626155638081,-0.0035124751196385882,-58.91552177725811,-19.102601578485825,-20.578778135048232
1700085194,0.973959290703364,-0.18525471607543323,0.11293342138634047,0.030390545600351263,-0.056505034533316414,-0.006414085001079161,-58.608593978368894,-18.956445483776672,-20.739549839228296
1700085194,0.9744471240570844,-0.19659684154943932,0.11207971301732926,0.013286318930806833,-0.058337630247910464,-0.008552113334772215,-58.62320958783981,-18.868751826951183,-21.207249342297573
1700085194,0.9744471240570844,-0.19659684154943932,0.11207971301732926,0.013286318930806833,-0.058337630247910464,-0.008552113334772215,-58.842443729903536,-19.555685472084186,-21.04647763811751
1700085194,0.9731055823343526,-0.19708467490316,0.11488475480122323,0.018173240836390957,-0.05726861608106394,-0.01038470904936626,-59.10552470038001,-18.810289389067524,-20.75416544869921
1700085194,0.9731055823343526,-0.19708467490316,0.11488475480122323,0.018173240836390957,-0.05726861608106394,-0.01038470904936626,-58.608593978368894,-19.62876351943876,-20.69570301081555
1700085194,0.9732275406727828,-0.18013246586136594,0.11451887978593273,0.0317649923862968,-0.061850105367549056,-0.012675453692608817,-58.22858813212511,-18.85413621748027,-20.90032154340836
1700085194,0.9732275406727828,-0.18013246586136594,0.11451887978593273,0.0317649923862968,-0.061850105367549056,-0.012675453692608817,-58.36012861736335,-19.161064016369483,-21.280327389652147
1700085194,0.9772521658409785,-0.18318142432212028,0.11281146304791029,0.016493361431346415,-0.06627887834448466,-0.010995574287564275,-58.06781642794504,-18.897983045893014,-20.418006430868168
1700085194,0.9772521658409785,-0.18318142432212028,0.11281146304791029,0.016493361431346415,-0.06627887834448466,-0.010995574287564275,-57.907044723764976,-19.39491376790412,-21.309558608593978
1700085194,0.9743251657186545,-0.19330396641182468,0.11256754637104995,0.002138028333693054,-0.06276640322484607,-0.0070249502392771765,-58.08243203741596,-19.00029231218942,-20.622624963460975
1700085194,0.9743251657186545,-0.19330396641182468,0.11256754637104995,0.002138028333693054,-0.06276640322484607,-0.0070249502392771765,-58.3162817889506,-18.956445483776672,-20.95878398129202
1700085194,0.9721299156269112,-0.19513334148827727,0.1131773380632008,0.008552113334772215,-0.0635299847725936,-0.00717766654882668,-58.462437883659746,-19.336451330020463,-20.8418591055247
1700085194,0.9721299156269112,-0.19513334148827727,0.1131773380632008,0.008552113334772215,-0.0635299847725936,-0.00717766654882668,-58.842443729903536,-19.292604501607716,-20.8418591055247
1700085194,0.9732275406727828,-0.1926941747196738,0.11122600464831804,0.01511891464540088,-0.0681114740590787,-0.010231992739816757,-58.564747149956155,-19.672610347851503,-20.403390821397252
1700085194,0.9732275406727828,-0.1926941747196738,0.11122600464831804,0.01511891464540088,-0.0681114740590787,-0.010231992739816757,-58.81321251096171,-19.00029231218942,-20.330312774042678
1700085194,0.9766423741488277,-0.1903769662895005,0.10720137948012233,0.009315694882519734,-0.06597344572538566,-0.010079276430267254,-58.33089739842151,-19.234142063724057,-21.33878982753581
1700085194,0.9766423741488277,-0.1903769662895005,0.10720137948012233,0.009315694882519734,-0.06597344572538566,-0.010079276430267254,-58.24320374159603,-18.985676702718504,-20.622624963460975
1700085194,0.974691040733945,-0.19610900819571864,0.11146992132517837,0.0032070425005395805,-0.058948495486108476,-0.009468411192069237,-58.33089739842151,-19.219526454253142,-20.681087401344637
1700085194,0.974691040733945,-0.19610900819571864,0.11146992132517837,0.0032070425005395805,-0.058948495486108476,-0.009468411192069237,-58.3162817889506,-19.014907921660335,-20.096463022508036
1700085194,0.9685931238124362,-0.18281554930682975,0.11305537972477062,0.011606439525762293,-0.0555887366760194,-0.011606439525762293,-57.965507161648645,-19.321835720549547,-20.228003507746273
1700085194,0.9685931238124362,-0.18281554930682975,0.11305537972477062,0.011606439525762293,-0.0555887366760194,-0.011606439525762293,-58.37474422683427,-19.30722011107863,-20.213387898275357
1700085194,0.9840818327930683,-0.17610784069317023,0.1073233378185525,0.004428772976935611,-0.06246097060574707,-0.012064588454410803,-58.91552177725811,-19.131832797427652,-20.63724057293189
1700085194,0.9840818327930683,-0.17610784069317023,0.1073233378185525,0.004428772976935611,-0.06246097060574707,-0.012064588454410803,-58.842443729903536,-19.45337620578778,-20.46185325928091
1700085194,0.9777399991946992,-0.19427963311926605,0.10817704618756371,-0.012828170002158322,-0.05726861608106394,-0.004276056667386108,-58.462437883659746,-19.00029231218942,-20.37415960245542
1700085194,0.9777399991946992,-0.19427963311926605,0.10817704618756371,-0.012828170002158322,-0.05726861608106394,-0.004276056667386108,-58.33089739842151,-19.351066939491375,-20.24261911721719
1700085194,0.9679833321202853,-0.20171909176350658,0.11012837960244648,-0.004581489286485115,-0.05314527572322733,0.0006108652381980154,-58.62320958783981,-19.467991815258696,-20.798012277111955
1700085194,0.9679833321202853,-0.20171909176350658,0.11012837960244648,-0.004581489286485115,-0.05314527572322733,0.0006108652381980154,-58.57936275942707,-19.102601578485825,-20.388775211926337
1700085194,0.9745690823955148,-0.1950113831498471,0.10817704618756371,0.012217304763960306,-0.057574048700162944,-0.0006108652381980154,-58.27243496053786,-19.45337620578778,-20.768781058170124
1700085194,0.9745690823955148,-0.1950113831498471,0.10817704618756371,0.012217304763960306,-0.057574048700162944,-0.0006108652381980154,-58.418591055247006,-19.161064016369483,-19.74568839520608
1700085194,0.9763984574719673,-0.18964521625891947,0.10561592108053007,0.015271630954950384,-0.05482515512827187,-0.0022907446432425577,-58.37474422683427,-19.467991815258696,-20.315697164571763
1700085194,0.9763984574719673,-0.18964521625891947,0.10561592108053007,0.0070249502392771765,-0.049785516913138254,-0.0024434609527920616,-58.3162817889506,-19.351066939491375,-20.69570301081555
1700085194,0.9750569157492354,-0.19562117484199795,0.10756725449541284,0.0070249502392771765,-0.049785516913138254,-0.0024434609527920616,-58.44782227418883,-19.5703010815551,-19.584916691026017
1700085194,0.973349499011213,-0.19257221638124364,0.10988446292558612,0.012370021073509811,-0.047342055960346185,-0.003817907738737596,-58.520900321543415,-19.321835720549547,-20.111078631978955
1700085194,0.973349499011213,-0.19257221638124364,0.10988446292558612,0.012370021073509811,-0.047342055960346185,-0.003817907738737596,-58.433206664717915,-18.751826951183865,-20.35954399298451
1700085194,0.9737153740265035,-0.19318200807339447,0.11012837960244648,0.014202616788103856,-0.05085453107998478,-0.0039706240482871,-58.76936568254896,-19.467991815258696,-19.935691318327976
1700085194,0.9737153740265035,-0.19318200807339447,0.11012837960244648,0.014202616788103856,-0.05085453107998478,-0.0039706240482871,-58.59397836889798,-18.8833674364221,-20.37415960245542
1700085194,0.974081249041794,-0.19049892462793067,0.10829900452599386,0.019394971312786988,-0.05513058774737088,-0.0039706240482871,-58.12627886582871,-19.26337328266589,-20.798012277111955
1700085194,0.974081249041794,-0.19049892462793067,0.10829900452599386,0.019394971312786988,-0.05513058774737088,-0.0039706240482871,-58.22858813212511,-15.27331189710611,-20.564162525577316
1700085194,0.9707883739041795,-0.1948894248114169,0.10976250458715596,0.020922134408282025,-0.05696318346196493,-0.002901609881440573,-58.59397836889798,-19.26337328266589,-20.03800058462438
1700085194,0.9707883739041795,-0.1948894248114169,0.10976250458715596,0.020922134408282025,-0.05696318346196493,-0.002901609881440573,-58.667056416252564,-19.190295235311314,-20.081847413037124
1700085194,0.9763984574719673,-0.1857425494291539,0.1086648795412844,0.025961772623415653,-0.06230825429619756,-0.005039638215133627,-58.36012861736335,-19.48260742472961,-20.125694241449867
1700085194,0.9763984574719673,-0.1857425494291539,0.1086648795412844,0.025961772623415653,-0.06230825429619756,-0.005039638215133627,-57.98012277111956,-19.321835720549547,-20.46185325928091
1700085194,0.9793254575942916,-0.18135204924566767,0.10366458766564729,0.018631389765039467,-0.06062837489115302,-0.005039638215133627,-58.389359836305175,-19.08798596901491,-20.19877228880444
1700085194,0.9793254575942916,-0.18135204924566767,0.10366458766564729,0.018631389765039467,-0.06062837489115302,-0.005039638215133627,-58.72551885413622,-19.248757673194973,-20.096463022508036
1700085194,0.9738373323649337,-0.1996458000101937,0.10549396274209989,0.0007635815477475192,-0.05390885727097486,-0.0015271630954950383,-58.053200818474124,-19.029523531131247,-20.827243496053786
1700085194,0.9738373323649337,-0.1996458000101937,0.10549396274209989,0.0007635815477475192,-0.05390885727097486,-0.0015271630954950383,-58.7109032446653,-19.073370359543993,-20.564162525577316
1700085194,0.9703005405504586,-0.20171909176350658,0.10939662957186544,0.014508049407202865,-0.05314527572322733,-0.0039706240482871,-57.89242911429406,-19.131832797427652,-20.35954399298451
1700085194,0.9703005405504586,-0.20171909176350658,0.10939662957186544,0.014508049407202865,-0.05314527572322733,-0.0039706240482871,-57.89242911429406,-18.839520608009355,-20.24261911721719
1700085194,0.9738373323649337,-0.18281554930682975,0.10927467123343526,0.03222314131494531,-0.061697389057999555,-0.01038470904936626,-58.82782812043262,-18.868751826951183,-20.140309850920783
1700085194,0.9738373323649337,-0.18281554930682975,0.10927467123343526,0.03222314131494531,-0.061697389057999555,-0.01038470904936626,-58.36012861736335,-19.1756796258404,-20.00876936568255
1700085194,0.983837916116208,-0.1665950902956167,0.10207912926605504,0.018936822384138473,-0.06887505560682623,-0.018020524526841452,-58.82782812043262,-19.321835720549547,-20.46185325928091
1700085194,0.983837916116208,-0.1665950902956167,0.10207912926605504,0.018936822384138473,-0.06887505560682623,-0.018020524526841452,-58.34551300789242,-19.292604501607716,-19.760304004676996
1700085194,0.9778619575331294,-0.18415709102956168,0.10500612938837921,-0.019394971312786988,-0.06093380751025203,-0.012675453692608817,-58.78398129201988,-19.438760596316868,-20.06723180356621
1700085194,0.9778619575331294,-0.18415709102956168,0.10500612938837921,-0.019394971312786988,-0.06093380751025203,-0.012675453692608817,-58.62320958783981,-18.941829874305757,-19.672610347851503
1700085194,0.9712762072579,-0.2007434250560652,0.104152421019368,-0.029932396671702752,-0.05314527572322733,-0.001832595714594046,-58.36012861736335,-18.985676702718504,-20.125694241449867
1700085194,0.9712762072579,-0.2007434250560652,0.104152421019368,-0.029932396671702752,-0.05314527572322733,-0.001832595714594046,-58.287050570008766,-19.00029231218942,-19.80415083308974
1700085194,0.9759106241182466,-0.2036704251783894,0.10378654600407747,-0.004123340357836604,-0.05329799203277684,0.004734205596034618,-58.69628763519439,-18.956445483776672,-20.90032154340836
1700085194,0.9759106241182466,-0.2036704251783894,0.10378654600407747,-0.004123340357836604,-0.05329799203277684,0.004734205596034618,-58.40397544577609,-19.058754750073078,-19.672610347851503
1700085194,0.9724957906422018,-0.20269475847094798,0.10098150422018347,0.0198531202414355,-0.047647488579445195,0.005497787143782138,-58.40397544577609,-19.029523531131247,-20.140309850920783
1700085194,0.9724957906422018,-0.20269475847094798,0.10098150422018347,0.0198531202414355,-0.047647488579445195,0.005497787143782138,-58.287050570008766,-18.781058170125693,-20.681087401344637
1700085194,0.9778619575331294,-0.18744996616717635,0.10134737923547399,0.025198191075668133,-0.04459316238845512,-0.0004581489286485115,-58.06781642794504,-18.67874890382929,-20.00876936568255
1700085194,0.9778619575331294,-0.18744996616717635,0.10134737923547399,0.025198191075668133,-0.04459316238845512,-0.0039706240482871,-58.75475007307804,-19.073370359543993,-20.681087401344637
1700085194,0.9782278325484199,-0.18549863275229356,0.10525004606523954,0.009315694882519734,-0.037720928458727446,-0.0039706240482871,-59.19321835720549,-19.234142063724057,-20.798012277111955
1700085194,0.9782278325484199,-0.18549863275229356,0.10525004606523954,0.0004581489286485115,-0.03665191429188092,-0.001832595714594046,-58.7985969014908,-18.971061093247588,-20.52031569716457
1700085194,0.9723738323037716,-0.18988913293577983,0.10634767111111111,0.0004581489286485115,-0.03665191429188092,-0.001832595714594046,-58.462437883659746,-19.219526454253142,-20.330312774042678
1700085194,0.9742032073802243,-0.19732859158002036,0.1058598377573904,0.01069014166846527,-0.04337143191205909,0.0022907446432425577,-58.564747149956155,-18.868751826951183,-20.301081555100847
1700085194,0.9742032073802243,-0.19732859158002036,0.1058598377573904,0.01069014166846527,-0.04337143191205909,0.0022907446432425577,-58.25781935106694,-19.45337620578778,-20.885705933937444
1700085194,0.973349499011213,-0.19464550813455656,0.10500612938837921,0.025656340004316644,-0.04505131131710363,0.0032070425005395805,-58.842443729903536,-19.00029231218942,-20.111078631978955
1700085194,0.973349499011213,-0.19464550813455656,0.10500612938837921,0.025656340004316644,-0.04505131131710363,0.0032070425005395805,-58.37474422683427,-18.927214264834845,-19.409529377375037
1700085194,0.9738373323649337,-0.19025500795107034,0.1031767543119266,0.02229658119422756,-0.04444044607890562,-0.0004581489286485115,-58.68167202572347,-19.204910844782226,-20.06723180356621
1700085194,0.9738373323649337,-0.19025500795107034,0.1031767543119266,0.02229658119422756,-0.04444044607890562,-0.0004581489286485115,-58.667056416252564,-19.467991815258696,-20.827243496053786
1700085194,0.9724957906422018,-0.1953772581651376,0.10525004606523954,0.010079276430267254,-0.04474587869800463,-0.005497787143782138,-58.3162817889506,-18.722595732242034,-19.614147909967848
1700085194,0.9724957906422018,-0.1953772581651376,0.10525004606523954,0.010079276430267254,-0.04474587869800463,-0.005497787143782138,-58.33089739842151,-19.044139140602162,-19.964922537269807
1700085194,0.97115424891947,-0.19403571644240572,0.10756725449541284,0.01435533309765336,-0.049632800603588746,-0.008704829644321718,-58.33089739842151,-18.956445483776672,-20.228003507746273
1700085195,0.97115424891947,-0.19403571644240572,0.10756725449541284,0.01435533309765336,-0.049632800603588746,-0.008704829644321718,-58.22858813212511,-18.82490499853844,-19.97953814674072
1700085195,0.9750569157492354,-0.1926941747196738,0.10439633769622833,0.02076941809873252,-0.05589416929511841,-0.008704829644321718,-58.30166617947968,-19.117217187956737,-19.89184448991523
1700085195,0.9750569157492354,-0.1926941747196738,0.10439633769622833,0.02076941809873252,-0.05589416929511841,-0.008704829644321718,-58.12627886582871,-19.292604501607716,-20.681087401344637
1700085195,0.9754227907645259,-0.18891346622833843,0.10305479597349643,0.02306016274197508,-0.05665775084286592,-0.009773843811168246,-57.936275942706814,-19.014907921660335,-20.19877228880444
1700085195,0.9754227907645259,-0.18891346622833843,0.10305479597349643,0.02306016274197508,-0.05665775084286592,-0.009773843811168246,-58.842443729903536,-18.8833674364221,-20.1549254603917
1700085195,0.974691040733945,-0.1903769662895005,0.10305479597349643,0.01756237559819294,-0.05528330405692039,-0.01038470904936626,-58.69628763519439,-19.058754750073078,-20.257234726688104
1700085195,0.974691040733945,-0.1903769662895005,0.10305479597349643,0.01756237559819294,-0.05528330405692039,-0.01038470904936626,-58.988599824612685,-19.26337328266589,-20.03800058462438
1700085195,0.9716420822731905,-0.19366984142711519,0.10842096286442404,0.01389718416900485,-0.05528330405692039,-0.012217304763960306,-58.82782812043262,-19.467991815258696,-20.023384975153462
1700085195,0.9716420822731905,-0.19366984142711519,0.10842096286442404,0.01389718416900485,-0.05528330405692039,-0.012217304763960306,-58.535515931014324,-18.897983045893014,-20.16954106986261
1700085195,0.9785937075637104,-0.19049892462793067,0.10207912926605504,0.0198531202414355,-0.061391956438900545,-0.010995574287564275,-58.389359836305175,-18.927214264834845,-19.964922537269807
1700085195,0.9785937075637104,-0.19049892462793067,0.10207912926605504,0.0198531202414355,-0.061391956438900545,-0.010995574287564275,-58.520900321543415,-18.79567377959661,-20.19877228880444
1700085195,0.9794474159327216,-0.18671821613659528,0.10073758754332313,0.027641652028460195,-0.059559360724306495,-0.006719517620178169,-58.25781935106694,-18.62028646594563,-20.111078631978955
1700085195,0.9794474159327216,-0.18671821613659528,0.10073758754332313,0.027641652028460195,-0.059559360724306495,-0.006719517620178169,-58.389359836305175,-18.927214264834845,-20.95878398129202
1700085195,0.9771302075025483,-0.18976717459734962,0.09915212914373088,0.025656340004316644,-0.05192354524683131,-0.0032070425005395805,-58.40397544577609,-19.234142063724057,-20.856474714995617
1700085195,0.9771302075025483,-0.18976717459734962,0.09915212914373088,0.025656340004316644,-0.05192354524683131,-0.0032070425005395805,-58.7109032446653,-18.82490499853844,-19.80415083308974
1700085195,0.9783497908868501,-0.19098675798165135,0.09976192083588174,0.019700403931885994,-0.04474587869800463,-0.004123340357836604,-58.63782519731073,-18.985676702718504,-20.271850336159016
1700085195,0.9783497908868501,-0.19098675798165135,0.09976192083588174,0.019700403931885994,-0.04474587869800463,-0.004123340357836604,-58.65244080678165,-19.248757673194973,-19.847997661502482
1700085195,0.9732275406727828,-0.18842563287461775,0.10476221271151887,0.012675453692608817,-0.037720928458727446,-0.007635815477475192,-58.30166617947968,-19.044139140602162,-19.59953230049693
1700085195,0.9732275406727828,-0.18842563287461775,0.10476221271151887,0.012675453692608817,-0.037720928458727446,-0.010079276430267254,-58.63782519731073,-19.380298158433206,-19.8626132709734
1700085195,0.9737153740265035,-0.19208438302752293,0.104152421019368,0.009315694882519734,-0.04352414822160859,-0.010079276430267254,-58.91552177725811,-19.365682548962294,-18.868751826951183
1700085195,0.9737153740265035,-0.19208438302752293,0.104152421019368,0.01389718416900485,-0.04657847441259867,-0.011759155835311794,-58.57936275942707,-19.1756796258404,-19.30722011107863
1700085195,0.9767643324872578,-0.18549863275229356,0.10098150422018347,0.01389718416900485,-0.04657847441259867,-0.011759155835311794,-58.97398421514177,-18.664133294358376,-19.89184448991523
1700085195,0.9767643324872578,-0.18549863275229356,0.10098150422018347,0.011453723216212788,-0.045662176555301644,-0.012980886311707827,-58.59397836889798,-18.927214264834845,-20.46185325928091
1700085195,0.9785937075637104,-0.18403513269113148,0.10573787941896025,0.011453723216212788,-0.045662176555301644,-0.012980886311707827,-58.535515931014324,-19.292604501607716,-20.593393744519144
1700085195,0.9722518739653414,-0.19147459133537204,0.09963996249745156,-0.0007635815477475192,-0.04459316238845512,-0.01069014166846527,-58.667056416252564,-18.8833674364221,-20.213387898275357
1700085195,0.9722518739653414,-0.19147459133537204,0.09963996249745156,-0.0007635815477475192,-0.04459316238845512,-0.01069014166846527,-58.93013738672903,-18.67874890382929,-19.555685472084186
1700085195,0.9753008324260959,-0.19684075822629968,0.10646962944954129,0.002138028333693054,-0.04642575810304917,-0.012370021073509811,-58.78398129201988,-19.014907921660335,-19.877228880444314
1700085195,0.9753008324260959,-0.19684075822629968,0.10646962944954129,0.002138028333693054,-0.04642575810304917,-0.012370021073509811,-58.78398129201988,-18.91259865536393,-19.774919614147908
1700085195,0.9727397073190621,-0.19293809139653412,0.10512808772680937,0.011911872144861299,-0.04871650274629172,-0.01679879405044542,-58.69628763519439,-19.424144986845953,-19.964922537269807
1700085195,0.9727397073190621,-0.19293809139653412,0.10512808772680937,0.011911872144861299,-0.04871650274629172,-0.01679879405044542,-58.389359836305175,-19.219526454253142,-20.286465945629935
1700085195,0.9767643324872578,-0.18464492438328237,0.09817646243628948,0.012064588454410803,-0.049174651674940235,-0.016646077740895916,-59.20783396667642,-19.5703010815551,-19.584916691026017
1700085195,0.9767643324872578,-0.18464492438328237,0.09817646243628948,0.012064588454410803,-0.049174651674940235,-0.016646077740895916,-59.03244665302543,-19.26337328266589,-20.00876936568255
1700085195,0.9817646243628949,-0.17366867392456678,0.1018352125891947,0.004276056667386108,-0.04474587869800463,-0.0198531202414355,-58.7985969014908,-19.146448406898568,-20.69570301081555
1700085195,0.9817646243628949,-0.17366867392456678,0.1018352125891947,0.004276056667386108,-0.04474587869800463,-0.0198531202414355,-58.389359836305175,-19.161064016369483,-20.593393744519144
1700085195,0.9783497908868501,-0.16708292364933738,0.10537200440366971,-0.008704829644321718,-0.04627304179349966,-0.024892758456569127,-58.63782519731073,-19.1756796258404,-20.19877228880444
1700085195,0.9783497908868501,-0.16708292364933738,0.10537200440366971,-0.008704829644321718,-0.04627304179349966,-0.024892758456569127,-59.03244665302543,-19.146448406898568,-20.37415960245542
1700085195,0.9757886657798164,-0.17830309078491335,0.1023230459429154,-0.03787364476827695,-0.05207626155638081,-0.02275473012287607,-59.25168079508916,-18.781058170125693,-19.497223034200527
1700085195,0.9757886657798164,-0.17830309078491335,0.1023230459429154,-0.03787364476827695,-0.05207626155638081,-0.02275473012287607,-58.62320958783981,-19.117217187956737,-20.081847413037124
