timestamp,acc-x,acc-y,acc-z,gyr-x,gyr-y,gyr-z,mag-x,mag-y,mag-z
1699732879,9.5712904,1.6247265454,-0.056231331100000004,0.03497203488683638,-0.030848694528999777,-0.00992656012071775,-72.9903536977492,-37.942122186495176,-9.821689564454838
1699732879,9.5712904,1.6247265454,-0.056231331100000004,0.03497203488683638,-0.030848694528999777,-0.00992656012071775,-72.8880444314528,-37.72288804443145,-9.251680795089156
1699732879,9.5700939887,1.6007983194,-0.1256231865,0.02641992155206416,-0.0319177086958463,-0.0004581489286485115,-72.72727272727273,-37.92750657702426,-9.821689564454838
1699732879,9.5700939887,1.6007983194,-0.1256231865,0.02641992155206416,-0.0319177086958463,-0.0004581489286485115,-73.0926629640456,-37.635194387605964,-10.245542239111371
1699732879,9.5928258034,1.6845471104,-0.0777667345,0.009621127501618741,-0.03527746750593539,0.01710422666954443,-72.9026600409237,-38.00058462437884,-10.172464191756795
1699732879,9.5928258034,1.6845471104,-0.0777667345,0.009621127501618741,-0.03527746750593539,0.01710422666954443,-73.42882198187665,-37.62057877813505,-9.748611517100263
1699732879,9.655039191,1.8376877568,-0.0095712904,0.021227567027381034,-0.04337143191205909,0.021685715956029545,-73.03420052616194,-37.72288804443145,-9.748611517100263
1699732879,9.655039191,1.8376877568,-0.0095712904,0.05390885727097486,-0.04337143191205909,0.002901609881440573,-72.85881321251097,-37.635194387605964,-9.909383221280327
1699732879,9.6454679006,1.8592231602,0.0646062102,0.05390885727097486,-0.04337143191205909,0.002901609881440573,-73.2972814966384,-37.75211926337329,-10.552470038000585
1699732879,9.6454679006,1.8592231602,0.0646062102,0.0641408500107916,-0.030695978219450273,-0.0160352125026979,-72.96112247880735,-38.13212510961707,-9.880152002338498
1699732879,9.5365944723,1.7371892076000002,-0.131605243,0.0641408500107916,-0.030695978219450273,-0.0160352125026979,-72.97573808827829,-37.92750657702426,-9.295527623501899
1699732879,9.4947200768,1.7635102562,-0.18783657410000001,0.037415495839628436,-0.029321531433504737,-0.011453723216212788,-73.16574101140017,-37.82519731072786,-9.748611517100263
1699732879,9.4947200768,1.7635102562,-0.18783657410000001,0.037415495839628436,-0.029321531433504737,-0.011453723216212788,-73.26805027769659,-37.79596609178603,-9.675533469745687
1699732879,9.5605226983,1.7778671918,-0.0789631458,0.004581489286485115,-0.04046982203061852,0.00015271630954950385,-73.22420344928383,-37.89827535808244,-10.33323589593686
1699732879,9.5605226983,1.7778671918,-0.0789631458,0.004581489286485115,-0.04046982203061852,0.00015271630954950385,-72.96112247880735,-38.05904706226249,-11.049400760011691
1699732879,9.6574320136,1.8005990065,-0.0658026215,0.0022907446432425577,-0.0438295808407076,0.008552113334772215,-73.34112832505116,-37.72288804443145,-10.464776381175096
1699732879,9.6574320136,1.8005990065,-0.0658026215,0.0022907446432425577,-0.0438295808407076,0.008552113334772215,-72.85881321251097,-38.21981876644256,-10.114001753873136
1699732879,9.629914553699999,1.9417755399,-0.0131605243,0.037720928458727446,-0.03924809155422248,-0.0003054326190990077,-73.69190295235312,-38.263665594855304,-9.865536392867583
1699732879,9.629914553699999,1.9417755399,-0.0131605243,0.037720928458727446,-0.03924809155422248,-0.0003054326190990077,-73.20958783981291,-37.89827535808244,-9.368605670856475
1699732879,9.6059863277,1.8568303376,0.0334995164,0.05421428989007387,-0.037415495839628436,-0.026572637861613665,-72.82958199356914,-38.19058754750073,-10.026308097047647
1699732879,9.6059863277,1.8568303376,0.0334995164,0.05421428989007387,-0.037415495839628436,-0.026572637861613665,-73.3849751534639,-38.00058462437884,-10.055539315989478
1699732879,9.559326287,1.7252250946,-0.2009970984,0.017409659288643436,-0.03023782929080176,-0.03115412714809878,-73.04881613563285,-37.85442852966969,-10.260157848582285
1699732879,9.559326287,1.7252250946,-0.2009970984,0.017409659288643436,-0.03023782929080176,-0.03115412714809878,-73.194972230342,-38.117509500146156,-10.698626132709734
1699732879,9.5174518915,1.6797614652,-0.34337004309999997,-0.04169155250701455,-0.03375030441044035,-0.011301006906663283,-72.91727565039461,-38.21981876644256,-11.239403683133586
1699732879,9.5174518915,1.6797614652,-0.34337004309999997,-0.04612032548395016,-0.05146539631818279,-0.0012217304763960308,-72.84419760304004,-37.64980999707688,-10.157848582285881
1699732879,9.5485585853,1.7371892076000002,-0.1256231865,-0.04612032548395016,-0.05146539631818279,-0.0012217304763960308,-72.94650686933645,-38.161356328558895,-10.245542239111371
1699732879,9.5485585853,1.7371892076000002,-0.1256231865,0.00717766654882668,-0.049174651674940235,-0.006566801310628665,-73.1803566208711,-38.01520023384975,-10.040923706518562
1699732879,9.6586284249,1.770688724,0.08135596839999999,0.00717766654882668,-0.049174651674940235,-0.006566801310628665,-73.16574101140017,-37.89827535808244,-9.32475884244373
1699732879,9.678967417,1.8472590472,-0.0646062102,0.04550946024575214,-0.020616701789183015,-0.012370021073509811,-72.9903536977492,-37.883659748611514,-9.427068108740135
1699732879,9.678967417,1.8472590472,-0.0646062102,0.04550946024575214,-0.020616701789183015,-0.012370021073509811,-72.9026600409237,-37.8690441391406,-9.529377375036539
1699732879,9.7782695549,2.0877377184999997,-0.1926222193,0.019547687622336492,-0.0013744467859455344,-0.003817907738737596,-73.2972814966384,-38.21981876644256,-9.923998830751241
1699732879,9.7782695549,2.0877377184999997,-0.1926222193,0.019547687622336492,-0.0013744467859455344,-0.003817907738737596,-72.8880444314528,-38.322128032738966,-10.71324174218065
1699732879,9.7830552001,2.0841484846,-0.3050848815,-0.0517708289372818,-0.00839939702522271,-0.0198531202414355,-73.16574101140017,-37.97135340543701,-10.494007600116925
1699732879,9.7830552001,2.0841484846,-0.3050848815,-0.0517708289372818,-0.00839939702522271,-0.0198531202414355,-73.00496930722011,-37.386729026600406,-9.909383221280327
1699732879,9.6514499571,2.2528424779,-0.2859423007,-0.11759155835311795,0.0007635815477475192,-0.02672535417116317,-73.03420052616194,-37.92750657702426,-10.947091493715288
1699732879,9.6514499571,2.2528424779,-0.2859423007,-0.11759155835311795,0.0007635815477475192,-0.02672535417116317,-72.96112247880735,-37.562116340251386,-10.47939199064601
1699732879,9.4492564474,2.2636101795999997,-0.299102825,-0.15775594776463747,0.012980886311707827,-0.04428772976935611,-73.12189418298743,-37.8690441391406,-10.494007600116925
1699732879,9.4492564474,2.2636101795999997,-0.299102825,-0.15775594776463747,0.012980886311707827,-0.04428772976935611,-72.8880444314528,-37.32826658871675,-10.230926629640456
1699732879,9.5425765288,2.0662023151,-0.394815729,-0.22983804587200327,0.026572637861613665,-0.05497787143782138,-72.62496346097632,-37.459807073954984,-10.406313943291435
1699732879,9.5425765288,2.0662023151,-0.394815729,-0.22983804587200327,0.026572637861613665,-0.05497787143782138,-72.77111955568547,-37.635194387605964,-10.45016077170418
1699732879,9.7052884656,1.9824535241,-0.3050848815,-0.26465736444929017,-0.001069014166846527,-0.05436700619962337,-72.8880444314528,-37.7667348728442,-10.406313943291435
1699732879,9.7052884656,1.9824535241,-0.3050848815,-0.30390545600351265,0.001069014166846527,-0.04612032548395016,-73.25343466822567,-37.54750073078048,-11.137094416837181
1699732879,9.518648302799999,1.7730815466,-0.33260234139999995,-0.30390545600351265,0.001069014166846527,-0.04612032548395016,-72.508038585209,-37.5767319497223,-11.356328558900906
1699732879,9.468399028199999,1.7515461432000001,-0.3840480273,-0.35720344803628945,0.008857545953871221,-0.025656340004316644,-72.5957322420345,-37.44519146448407,-11.619409529377375
1699732879,9.468399028199999,1.7515461432000001,-0.3840480273,-0.35720344803628945,0.008857545953871221,-0.025656340004316644,-72.31803566208711,-37.313650979245836,-11.064016369482607
1699732879,9.5772724565,1.6103696098,-0.1100698396,-0.38713584470799217,-0.014660765716752368,-0.026572637861613665,-72.14264834843614,-37.22595732242034,-11.40017538731365
1699732879,9.7950193131,1.2299108163999999,-0.031106693799999998,-0.38438695113610116,-0.01389718416900485,-0.038942658935123484,-72.25957322420345,-37.51826951183864,-11.502484653610056
1699732879,9.7950193131,1.2299108163999999,-0.031106693799999998,-0.38438695113610116,-0.01389718416900485,-0.038942658935123484,-71.89418298743058,-37.85442852966969,-11.677871967261035
1699732879,9.8356972973,1.1353943237,-0.08614161359999999,-0.36025777422727956,0.004581489286485115,-0.027641652028460195,-72.78573516515638,-37.05057000876937,-11.560947091493716
1699732879,9.7782695549,1.4021940436,0.0897308475,-0.3659082776806112,0.01511891464540088,0.00916297857297023,-72.36188249049985,-37.459807073954984,-10.435545162233264
1699732879,9.7782695549,1.4021940436,0.0897308475,-0.3659082776806112,0.01511891464540088,0.00916297857297023,-72.74188833674364,-37.15287927506577,-12.160187079801227
1699732879,9.798608546999999,1.4500504956,0.2548356069,-0.41004329114041776,0.030695978219450273,0.04276056667386108,-73.06343174510377,-36.97749196141479,-12.218649517684888
1699732879,9.798608546999999,1.4500504956,0.2548356069,-0.41004329114041776,0.030695978219450273,0.04276056667386108,-72.39111370944168,-36.48056123940368,-13.037123648056124
1699732879,9.846464999,1.3256237203999999,0.3182454058,-0.46746462353103124,0.08078692775168753,0.079412480965742,-72.49342297573808,-36.90441391406022,-12.130955860859398
1699732879,9.846464999,1.3256237203999999,0.3182454058,-0.46746462353103124,0.08078692775168753,0.079412480965742,-72.66881028938906,-36.42209880152002,-11.8386436714411
1699732879,9.8727860476,1.3830514628000001,0.4462614149,-0.5111414880621893,0.12018773561545952,0.10842857978014774,-72.66881028938906,-36.43671441099094,-12.189418298743057
1699732880,9.8727860476,1.3830514628000001,0.4462614149,-0.5111414880621893,0.14095715371419204,0.1114829059711378,-72.39111370944168,-36.14440222157264,-12.67173341128325
1699732880,10.0438728635,1.6438691261999998,0.7597211755,-0.4856378643674222,0.14095715371419204,0.1114829059711378,-72.55188541362175,-36.129786612101725,-13.007892429114293
1699732880,10.0438728635,1.6438691261999998,0.7597211755,-0.44073926935986807,0.18600846503129567,0.12110403347275654,-72.43496053785444,-36.24671148786904,-12.832505115463313
1699732880,10.394421374399998,1.9274186043000001,0.9176474671,-0.44073926935986807,0.18600846503129567,0.12110403347275654,-72.8880444314528,-36.02747734580532,-13.490207541654486
1699732880,10.4901342784,2.2085752598,0.897308475,-0.4747950063894074,0.24694227254154769,0.1666134937185087,-72.68342589886,-36.01286173633441,-13.329435837474424
1699732880,10.4901342784,2.2085752598,0.897308475,-0.4747950063894074,0.24694227254154769,0.1666134937185087,-72.8880444314528,-35.5159310143233,-13.811750950014615
1699732880,10.0115697584,2.4777678023000003,0.8338986760999999,-0.6418666490365645,0.3515529445829578,0.24342979742190912,-72.8003507746273,-35.23823443437591,-14.893306050862321
1699732880,10.0115697584,2.4777678023000003,0.8338986760999999,-0.6418666490365645,0.3515529445829578,0.24342979742190912,-72.5957322420345,-34.8289973691903,-13.577901198479978
1699732880,9.7890372566,2.6380869165,0.6640082715,-0.8345946316880385,0.4231768937616751,0.33154710803197285,-72.42034492838351,-34.28821981876644,-15.30254311604794
1699732880,9.7890372566,2.6380869165,0.6640082715,-0.8345946316880385,0.4231768937616751,0.33154710803197285,-72.09880152002339,-33.80590470622625,-15.404852382344345
1699732880,9.4600241491,3.1214370817,1.028913718,-0.8571966455013651,0.43508876590653645,0.4062253834016802,-72.58111663256358,-33.382052031569714,-15.258696287635196
1699732880,9.4600241491,3.1214370817,1.028913718,-0.8571966455013651,0.43508876590653645,0.4062253834016802,-72.4057293189126,-32.94358374744227,-15.653317743349898
1699732880,9.0903330574,3.3918260355000003,1.3172488413,-0.9191994671784636,0.49617528972633795,0.4520402762665313,-72.8003507746273,-32.3881905875475,-15.799473838059047
1699732880,9.0903330574,3.3918260355000003,1.3172488413,-0.9191994671784636,0.49617528972633795,0.4520402762665313,-72.5957322420345,-32.53434668225665,-16.895644548377668
1699732880,8.7433737804,3.1549365981,1.2394821068,-1.151786406622358,0.5555819341410949,0.4375322268593285,-72.44957614732535,-31.935106693949137,-17.334112832505117
1699732880,8.7433737804,3.1549365981,1.2394821068,-1.151786406622358,0.5555819341410949,0.4375322268593285,-72.12803273896522,-31.102016954106986,-17.085647471499563
1699732880,8.628518295600001,2.5998017549,1.2837493249,-1.429730090002455,0.559247125570283,0.41691552507014545,-71.87956737795966,-30.4296989184449,-18.079508915521778
1699732880,8.628518295600001,2.5998017549,1.2837493249,-1.429730090002455,0.559247125570283,0.41691552507014545,-71.5287927506577,-29.596609178602744,-18.897983045893014
1699732880,9.219545477799999,2.2947168733999996,1.6941184008,-1.6418530439667158,0.49510627555949144,0.45387287198112536,-72.33265127155802,-28.74890382928968,-18.064893306050863
1699732880,9.219545477799999,2.2947168733999996,1.6941184008,-1.7905987294679324,0.4106541563786158,0.4839579849623777,-71.74802689272143,-28.339666764104066,-18.006430868167204
1699732880,9.9960164115,2.285145583,2.368894374,-1.7905987294679324,0.4106541563786158,0.4839579849623777,-71.66033323589593,-27.47734580532008,-18.73721134171295
1699732880,9.9960164115,2.285145583,2.6751756668,-1.8521434022163825,0.3975205537573585,0.438906673645274,-70.78339666764104,-27.068108740134463,-19.117217187956737
1699732880,10.390832140499999,2.1870398563999998,2.6751756668,-1.8521434022163825,0.3975205537573585,0.438906673645274,-71.07570885705934,-26.35194387605963,-18.8833674364221
1699732880,10.3920285518,2.0470597343,2.6859433685,-1.9112446140120405,0.4654793115068877,0.31841350541071545,-70.66647179187372,-26.015784858228585,-20.681087401344637
1699732880,10.3920285518,2.0470597343,2.6859433685,-1.9112446140120405,0.4654793115068877,0.31841350541071545,-70.90032154340837,-25.562700964630224,-19.62876351943876
1699732880,9.8321080634,2.3294128011,2.1547367513,-1.9074267062733028,0.5595525581893821,0.1114829059711378,-70.79801227711195,-25.314235603624667,-20.681087401344637
1699732880,9.8321080634,2.3294128011,2.1547367513,-1.9039142311536645,0.6317873726062974,-0.15210544431130582,-69.95030692779889,-25.211926337328265,-20.66647179187372
1699732880,9.3332045513,2.4059831243,1.8233308212,-1.9039142311536645,0.6317873726062974,-0.15210544431130582,-69.9649225372698,-25.095001461560944,-20.651856182402806
1699732880,9.0281196698,2.2336998971,1.5337992866,-1.9801196696188668,0.6495024645140398,-0.3778201498254725,-69.49722303420053,-24.641917567962583,-20.90032154340836
1699732880,9.0281196698,2.2336998971,1.5337992866,-1.9801196696188668,0.6495024645140398,-0.3778201498254725,-69.64337912890967,-24.218064893306053,-21.455714703303126
1699732880,8.596215190499999,1.4153545679,1.0492527101,-2.1027508661871184,0.5671883736668573,-0.5218316297306546,-69.42414498684595,-24.42268342589886,-21.207249342297573
1699732880,8.596215190499999,1.4153545679,1.0492527101,-2.1027508661871184,0.5671883736668573,-0.5218316297306546,-69.1756796258404,-24.028061970184154,-21.25109617071032
1699732880,8.4550386571,0.09930213789999999,0.5778666579,-2.1849122407247514,0.3515529445829578,-0.5296201615176793,-69.55568547208418,-24.232680502776965,-21.616486407483194
1699732880,8.4550386571,0.09930213789999999,0.5778666579,-2.1849122407247514,0.3515529445829578,-0.5296201615176793,-69.24875767319497,-24.24729611224788,-21.07570885705934
1699732880,8.5328053916,-0.8817551281,0.6496513358999999,-2.1719313544130436,0.12431107597329612,-0.44654248912274924,-69.24875767319497,-23.516515638702135,-21.33878982753581
1699732880,8.5328053916,-0.8817551281,0.6496513358999999,-2.1719313544130436,0.12431107597329612,-0.44654248912274924,-69.80415083308974,-23.35574393452207,-21.10494007600117
1699732880,8.709874264,-1.8113667082,1.1712866627,-2.041358909748218,-0.04337143191205909,-0.3692680364907003,-69.61414790996785,-23.487284419760304,-20.798012277111955
1699732880,8.709874264,-1.8113667082,1.1712866627,-2.041358909748218,-0.04337143191205909,-0.3692680364907003,-69.55568547208418,-22.78573516515639,-19.760304004676996
1699732880,8.7278204335,-2.4059831243,1.8508482811000002,-1.8319848493558482,-0.15546520312139492,-0.33979378874764604,-69.55568547208418,-22.186495176848876,-20.447237649809995
1699732880,8.7278204335,-2.4059831243,1.8508482811000002,-1.8319848493558482,-0.15546520312139492,-0.33979378874764604,-69.4679918152587,-22.71265711780181,-20.052616194095293
1699732880,8.7852481759,-2.0901305410999997,2.2564317118,-1.5496123929988153,-0.19242255003237485,-0.34086280291449256,-69.16106401636948,-22.771119555685473,-19.935691318327976
1699732880,8.7852481759,-2.0901305410999997,2.2564317118,-1.5496123929988153,-0.19242255003237485,-0.3772092845872745,-69.51183864367144,-22.639579070447237,-19.921075708857057
1699732880,8.697910151,-1.4404792052000002,2.3700907853,-1.2125674978230603,-0.18997908907958277,-0.3772092845872745,-69.33645133002047,-23.23881905875475,-20.271850336159016
1699732880,8.697910151,-1.4404792052000002,2.3700907853,-0.8474228016901968,-0.18936822384138474,-0.44806965221824424,-69.6579947383806,-23.399590762934814,-19.687225957322422
1699732880,8.596215190499999,-0.9535398061,2.5686950610999997,-0.8474228016901968,-0.18936822384138474,-0.44806965221824424,-69.61414790996785,-23.41420637240573,-19.643379128909675
1699732880,8.596215190499999,-0.9535398061,2.5686950610999997,-0.5232060765166001,-0.20586158527273116,-0.5102251902048923,-70.12569424144986,-23.370359543992986,-19.935691318327976
1699732880,8.3210405915,-0.5623133109999999,2.8402804262,-0.5232060765166001,-0.20586158527273116,-0.5102251902048923,-70.30108155510085,-23.50190002923122,-14.980999707687811
1699732880,8.1463645417,-0.1519442351,2.9359933301999996,-0.4074471138780762,-0.2864957967148692,-0.5409211684243426,-69.77491961414792,-23.998830751242327,-19.204910844782226
1699732880,8.1463645417,-0.1519442351,2.9359933301999996,-0.4074471138780762,-0.2864957967148692,-0.5409211684243426,-69.95030692779889,-23.79421221864952,-18.28412744811459
1699732880,8.569894141899999,-0.0897308475,2.9814569596,-0.5183191546110161,-0.40866884435447226,-0.538324991162001,-70.38877521192633,-23.896521484945925,-18.24028061970184
1699732880,8.569894141899999,-0.0897308475,2.9814569596,-0.5183191546110161,-0.40866884435447226,-0.538324991162001,-70.43262204033908,-24.15960245542239,-18.357205495469163
1699732880,8.901300072,-0.3278166962,3.2614172038,-0.6858489461868217,-0.5048801193706597,-0.5102251902048923,-70.52031569716458,-24.831920491084478,-17.78719672610348
1699732880,8.901300072,-0.3278166962,3.2614172038,-0.6858489461868217,-0.5048801193706597,-0.5102251902048923,-70.68108740134463,-24.218064893306053,-17.436422098801522
1699732880,9.0652084201,-0.4618147618,3.7112678526000002,-0.8155050929943505,-0.5473352534254218,-0.4219551632852791,-70.65185618240281,-24.378836597486114,-17.173341128325053
1699732880,9.0652084201,-0.4618147618,3.7112678526000002,-0.8155050929943505,-0.5473352534254218,-0.4219551632852791,-70.38877521192633,-24.846536100555394,-16.354866997953817
1699732880,9.054440718399999,-0.5718846014,4.0043886211,-0.8501716952620878,-0.5639813311663177,-0.35124751196385884,-70.81262788658287,-24.3642209880152,-16.60333235895937
1699732880,9.054440718399999,-0.5718846014,4.0043886211,-0.8501716952620878,-0.5639813311663177,-0.35124751196385884,-71.41186787489038,-24.24729611224788,-16.237942122186492
1699732880,8.8522472087,-0.9750752094999999,3.4480573666,-0.8889616378876619,-0.516486558896422,-0.3051271864799087,-71.22186495176848,-24.218064893306053,-16.515638702133877
1699732880,8.8522472087,-0.9750752094999999,3.4480573666,-0.8889616378876619,-0.516486558896422,-0.3051271864799087,-71.17801812335574,-25.080385852090032,-16.325635779011986
1699732880,9.531808827099999,-0.9966106129000001,2.5627130046,-0.8961393044364885,-0.5465716718776742,-0.28359418683342863,-71.36802104647764,-24.68576439637533,-15.536392867582578
1699732880,9.531808827099999,-0.9966106129000001,2.5627130046,-0.8961393044364885,-0.5465716718776742,-0.28359418683342863,-71.6164864074832,-24.641917567962583,-15.21484945922245
1699732880,11.053644000699999,0.4103690759,2.6057838114000003,-0.7049384848805097,-0.7750352709637319,-0.25793784682911197,-71.44109909383222,-24.59807073954984,-14.14790996784566
1699732880,11.053644000699999,0.4103690759,2.6057838114000003,-0.7049384848805097,-0.7750352709637319,-0.25793784682911197,-72.20111078631979,-24.714995615317157,-13.694826074247295
1699732880,12.052647436200001,2.0650059038,4.1072799929,-0.49663343865498644,-0.9045387014617112,-0.2796235627851415,-72.47880736626718,-25.475007307804738,-13.344051446945338
1699732880,12.052647436200001,2.0650059038,4.1072799929,-0.49663343865498644,-0.6265950180816142,-0.31337386719558186,-71.9234142063724,-25.3434668225665,-13.241742180648933
1699732880,11.2606231556,1.3268201317000001,4.6037906824000006,-0.396146106971413,-0.6265950180816142,-0.31337386719558186,-72.24495761473253,-25.781935106693947,-13.007892429114293
1699732880,11.2606231556,1.3268201317000001,4.6037906824000006,-0.49128836782075386,-0.33673946255665593,-0.10812314716104872,-72.15726395790705,-25.358082432037417,-12.949429991230636
1699732880,10.4099747213,0.062213387599999996,4.0761732991,-0.49128836782075386,-0.33673946255665593,-0.10812314716104872,-72.46419175679625,-24.919614147909968,-13.285589009061678
1699732880,10.4099747213,-0.6029912952,2.7816562725,-0.7625125335806726,-0.3390302071998985,0.19792033717615698,-72.84419760304004,-24.320374159602455,-12.452499269219526
1699732880,10.3082797608,-0.6029912952,2.7816562725,-0.7625125335806726,-0.3390302071998985,0.19792033717615698,-72.81496638409821,-24.115755627009648,-11.940952937737503
1699732880,9.665806892700001,0.1842473402,1.7144573929,-1.000902692787448,-0.36514469613286366,0.3775147172063735,-72.55188541362175,-23.50190002923122,-11.458637825197311
1699732880,9.665806892700001,0.1842473402,1.7144573929,-1.000902692787448,-0.36514469613286366,0.3775147172063735,-72.8003507746273,-23.15112540192926,-11.064016369482607
1699732880,8.2013994615,2.691925425,0.12681959780000002,-1.1982121647254071,-0.377667433515923,0.32284227838765106,-72.77111955568547,-22.902660040923706,-10.830166617947969
1699732880,8.2013994615,2.691925425,0.12681959780000002,-1.1982121647254071,-0.377667433515923,0.32284227838765106,-72.87342882198188,-22.668810289389068,-10.464776381175096
1699732880,8.195417404999999,3.5964123677999997,-1.6223337227999999,-1.258229674378362,-0.5529857568787534,0.27214046361721583,-72.9903536977492,-22.011107863197896,-9.923998830751241
1699732880,8.195417404999999,3.5964123677999997,-1.6223337227999999,-1.258229674378362,-0.5529857568787534,0.27214046361721583,-73.194972230342,-21.55802396959953,-9.967845659163988
1699732880,8.841479506999999,3.8321053939,-2.1607188078,-0.9480628496833198,-0.7267769171460887,0.38347065327880414,-72.63957907044724,-21.777258111663254,-9.280912014030985
1699732880,8.841479506999999,3.8321053939,-2.1607188078,-0.9480628496833198,-0.7267769171460887,0.38347065327880414,-73.22420344928383,-22.05495469161064,-9.134755919321835
1699732880,9.93021379,4.6731825378,-1.1700902514,-0.06047565858160352,-0.7312056901230244,0.1282817000215832,-72.8003507746273,-21.952645425314234,-9.222449576147325
1699732880,9.93021379,4.6731825378,-1.1700902514,0.5244278069929962,-0.9260717011081913,-0.2620611871869486,-73.4872844197603,-22.274188833674362,-8.28705057000877
1699732880,10.5702938355,4.9986064114,-0.20338992099999997,0.5244278069929962,-0.9260717011081913,-0.2620611871869486,-73.0926629640456,-22.946506869336453,-6.620871090324466
1699732880,10.5702938355,4.9986064114,-0.20338992099999997,-0.5841398840268521,-1.0943650742317446,-0.4631885668636451,-73.73574978076586,-22.946506869336453,-6.080093539900614
1699732880,10.037890807,1.9812571127999998,-1.1198409768,-0.5841398840268521,-1.0943650742317446,-0.4631885668636451,-73.26805027769659,-23.23881905875475,-4.954691610640164
1699732880,9.7591269741,-1.0241280728,-2.5555345367999998,-2.0080667542664257,-1.2380711215178277,-0.5280929984221843,-73.51651563870213,-23.487284419760304,-4.866997953814674
1699732880,9.7591269741,-1.0241280728,-2.5555345367999998,-2.0080667542664257,-1.2380711215178277,-0.5280929984221843,-73.194972230342,-23.019584916691027,-3.536977491961415
1699732880,9.497112899400001,-2.0853448959,-1.5086746492999998,-2.1902573115589843,-1.4251486007159697,-0.39584067435231396,-73.80882782812044,-23.224203449283834,-1.7246419175679626
1699732880,9.497112899400001,-2.0853448959,-1.5086746492999998,-2.1902573115589843,-1.4251486007159697,-0.39584067435231396,-73.60420929552762,-22.8003507746273,-0.7453960830166617
1699732880,10.1036934285,-0.4079762533,0.5048855686,-1.7757852474416307,-1.351844772132208,-0.02901609881440573,-73.63344051446946,-22.420344928383514,-0.5700087693656825
1699732880,10.1036934285,-0.4079762533,0.5048855686,-1.7757852474416307,-1.351844772132208,-0.02901609881440573,-74.34960537854428,-22.23034200526162,-0.08769365682548962
1699732880,10.447063471600002,2.3485553819,0.48693939909999995,-0.8944594250314439,-0.995710338262765,0.14966198335851374,-73.47266881028939,-22.508038585209004,0.8330897398421515
1699732880,10.447063471600002,2.3485553819,0.48693939909999995,-0.8944594250314439,-0.995710338262765,0.14966198335851374,-74.08652440806782,-22.201110786319788,1.15463314820228
1699732880,10.3274223416,2.9934210726,-0.1698904046,-0.8243626389482217,-0.7870998594181428,0.1232420618064496,-73.64805612394036,-21.99649225372698,1.856182402806197
1699732880,10.3274223416,2.9934210726,-0.1698904046,-0.8243626389482217,-0.7870998594181428,0.1232420618064496,-73.66267173341127,-22.128032738965214,1.7977199649225375
1699732880,9.7124669334,2.1284157027,-0.8338986760999999,-1.257924241759263,-0.63713244344053,0.01634064512179691,-73.83805904706226,-22.46419175679626,1.8415667933352822
1699732880,9.7124669334,2.1284157027,-0.8338986760999999,-1.257924241759263,-0.63713244344053,0.01634064512179691,-73.5895936860567,-22.31803566208711,1.9438760596316866
1699732880,9.3140619705,1.1330015010999999,-1.5242279962,-1.4987578619188306,-0.5012149279414716,-0.12583823906879116,-73.53113124817305,-22.186495176848876,2.8646594562993277
1699732881,9.3140619705,1.1330015010999999,-1.5242279962,-1.4987578619188306,-0.5012149279414716,-0.12583823906879116,-72.96112247880735,-22.508038585209004,2.747734580532008
1699732881,9.248259349,0.6352944003,-1.387837108,-1.668883830756978,-0.5175555730632685,-0.14935655073941473,-73.37035954399298,-22.71265711780181,3.8292896813797133
1699732881,9.248259349,0.6352944003,-1.387837108,-1.668883830756978,-0.5175555730632685,-0.14935655073941473,-73.3849751534639,-22.4057293189126,4.004676995030692
1699732881,9.2231347117,0.0466600407,-1.2861421475,-1.653154050873379,-0.5824600046218077,-0.15729779883598893,-73.80882782812044,-22.4057293189126,4.428529669687226
1699732881,9.2231347117,0.0466600407,-1.2861421475,-1.653154050873379,-0.5824600046218077,-0.15729779883598893,-73.67728734288221,-22.668810289389068,5.276235019000293
1699732881,9.1920280179,-0.2309073809,-1.806581063,-1.5459472015696274,-0.5810855578358621,-0.10705413299420219,-74.0719087985969,-22.595732242034494,5.115463314820228
1699732881,9.4791667299,-0.4043870194,-1.9836499354,-1.4547755647685736,-0.6493497482044903,-0.019394971312786988,-73.82344343759135,-22.698041508330896,5.83162817889506
1699732881,9.4791667299,-0.4043870194,-1.9836499354,-1.4547755647685736,-0.6493497482044903,-0.019394971312786988,-73.5749780765858,-22.62496346097632,6.591639871382636
1699732881,9.9266245561,-0.0933200814,-1.3579268255,-1.4034628847599402,-0.7197519669068116,0.05329799203277684,-73.47266881028939,-22.44957614732534,7.322420344928384
1699732881,9.9266245561,-0.0933200814,-1.3579268255,-1.4034628847599402,-0.7197519669068116,0.05329799203277684,-73.37035954399298,-22.829581993569132,7.965507161648641
1699732881,10.462616818499999,0.015553346899999999,-0.7429714173,-1.4627168128651478,-0.7312056901230244,0.09269879989654883,-72.94650686933645,-22.71265711780181,8.053200818474131
1699732881,10.462616818499999,0.015553346899999999,-0.7429714173,-1.4627168128651478,-0.7312056901230244,0.09269879989654883,-73.47266881028939,-22.88804443145279,8.681672025723474
1699732881,10.2987084704,0.4235296002,-0.4510470601,-1.4718797914381179,-0.6281221811771094,0.11850785621041497,-73.42882198187665,-22.31803566208711,9.339374451914646
1699732881,10.2987084704,0.4235296002,-0.4510470601,-1.4718797914381179,-0.6281221811771094,0.11850785621041497,-73.01958491669103,-22.332651271558024,9.12014030985092
1699732881,10.140782178799999,0.9906285563999999,-0.5754738353000001,-1.4656184227465883,-0.46929721924562534,0.1230893454969001,-72.61034785150541,-22.508038585209004,9.807073954983924
1699732881,10.140782178799999,0.9906285563999999,-0.5754738353000001,-1.4656184227465883,-0.46929721924562534,0.1230893454969001,-72.85881321251097,-22.420344928383514,9.967845659163988
1699732881,9.8093762487,1.4679966650999998,-0.40319060809999996,-1.4905111812031575,-0.3772092845872745,0.08445211918087563,-72.81496638409821,-23.03420052616194,10.36246711487869
1699732881,9.8093762487,1.4679966650999998,-0.40319060809999996,-1.4905111812031575,-0.3772092845872745,0.08445211918087563,-72.62496346097632,-22.71265711780181,10.45016077170418
1699732881,9.554540641800001,1.2741780345,-0.2297109696,-1.5378532371635036,-0.3278819166027847,-0.00198531202414355,-73.32651271558024,-22.522654194679916,11.107863197895353
1699732881,9.554540641800001,1.2741780345,-0.2297109696,-1.5378532371635036,-0.3278819166027847,-0.00198531202414355,-73.10727857351652,-23.399590762934814,10.552470038000585
1699732881,9.3643112451,0.6269195211999999,-0.8781658942,-1.5027284859671177,-0.22174408146587957,-0.11652254418627142,-72.9026600409237,-23.545746857643966,11.239403683133586
1699732881,9.3643112451,0.6269195211999999,-0.8781658942,-1.5027284859671177,-0.22174408146587957,-0.21242838658335986,-73.06343174510377,-23.311897106109324,11.736334405144696
1699732881,9.2027957196,0.1220339526,-1.495514125,-1.3881912538049899,-0.1950187272947164,-0.21242838658335986,-73.22420344928383,-23.7795966091786,11.853259280912013
1699732881,9.2027957196,0.1220339526,-1.495514125,-1.2857186100972728,-0.31306843457648287,-0.2817615911188346,-73.1803566208711,-24.013446360713242,11.882490499853844
1699732881,9.1190469286,-0.2321037922,-1.3507483577,-1.2857186100972728,-0.31306843457648287,-0.2817615911188346,-73.31189710610933,-24.057293189125986,12.61327097339959
1699732881,9.1190469286,-0.2321037922,-1.3507483577,-1.190576349247932,-0.47097709865066983,-0.3289509307696313,-72.8003507746273,-24.59807073954984,11.867874890382929
1699732881,9.1956172518,-0.5802594805,-0.9906285563999999,-1.190576349247932,-0.47097709865066983,-0.3289509307696313,-72.63957907044724,-25.562700964630224,12.920198772288805
1699732881,9.487541608999999,-1.0097711372,-0.9284151688,-1.0639745286313933,-0.5262604027075902,-0.3564398664885419,-72.53726980415082,-25.401929260450164,13.183279742765272
1699732881,9.487541608999999,-1.0097711372,-0.9284151688,-1.0639745286313933,-0.5262604027075902,-0.3564398664885419,-72.5957322420345,-25.781935106693947,13.665594855305466
1699732881,9.865607579799999,-1.0983055734,-1.0085747259,-0.8782714962191965,-0.5019785094892191,-0.3564398664885419,-72.65419467991815,-26.16194095293774,13.037123648056124
1699732881,9.865607579799999,-1.0983055734,-1.0085747259,-0.8782714962191965,-0.5019785094892191,-0.3564398664885419,-72.43496053785444,-26.19117217187957,14.454837766734874
1699732881,10.106086251099999,-0.5670989562,-0.8937192411,-0.7040221870232126,-0.41905355340383854,-0.2944370448114434,-72.8003507746273,-26.264250219234142,14.32329728149664
1699732881,10.106086251099999,-0.5670989562,-0.8937192411,-0.7040221870232126,-0.41905355340383854,-0.2944370448114434,-72.8003507746273,-26.64425606547793,13.826366559485532
1699732881,10.2664053653,0.3529413335,-0.8865407733,-0.6513350602286339,-0.32116239898260657,-0.20509800372498366,-72.9026600409237,-26.585793627594274,13.884828997369189
1699732881,10.2664053653,0.3529413335,-0.8865407733,-0.6513350602286339,-0.32116239898260657,-0.20509800372498366,-72.20111078631979,-26.702718503361588,13.212510961707103
1699732881,10.2185489133,0.7692924659,-1.028913718,-0.736245328338158,-0.21700987586984494,-0.17348572764823636,-72.2157263957907,-27.301958491669104,13.110201695410698
1699732881,10.2185489133,0.7692924659,-1.028913718,-0.736245328338158,-0.21700987586984494,-0.17348572764823636,-72.2157263957907,-27.11195556854721,13.490207541654486
1699732881,9.6095755616,0.7142575461,-1.1964113,-0.8139779298988555,-0.06444628262989062,-0.17379116026733535,-72.1134171294943,-27.37503653902368,13.270973399590764
1699732881,9.371489712899999,0.741775006,-1.1066804525,-0.815352376684801,0.03115412714809878,-0.16783522419490474,-72.91727565039461,-27.462730195849165,13.168664133294358
1699732881,9.371489712899999,0.741775006,-1.1066804525,-0.815352376684801,0.03115412714809878,-0.16783522419490474,-72.47880736626718,-27.506577024261915,13.241742180648933
1699732881,9.702895643,0.9415756931,-0.9678967417,-0.8546004682390235,0.04092797095926703,-0.1395827069282465,-72.43496053785444,-28.00350774627302,12.920198772288805
1699732881,9.702895643,0.9415756931,-0.9678967417,-0.8546004682390235,0.04092797095926703,-0.1395827069282465,-72.65419467991815,-27.94504530838936,12.803273896521485
1699732881,10.667203150799999,0.8913264185,-1.3328021881999998,-1.0473284508904972,0.0879645943005142,-0.07528914060790538,-72.58111663256358,-27.47734580532008,13.02250803858521
1699732881,10.667203150799999,0.8913264185,-1.3328021881999998,-1.0473284508904972,0.0879645943005142,-0.07528914060790538,-72.58111663256358,-27.871967261034786,12.174802689272141
1699732881,11.9736842904,1.0384850084,-1.351944769,-1.239140135684674,0.023823744289722597,0.0716239491787173,-72.56650102309267,-28.325051154633147,12.87635194387606
1699732881,11.9736842904,1.0384850084,-1.351944769,-1.239140135684674,0.023823744289722597,0.0716239491787173,-72.2157263957907,-27.506577024261915,12.700964630225082
1699732881,12.0538438475,1.8340985228999998,-0.4941178669,-1.2938125745033964,-0.02748893571891069,0.2984076688597305,-72.2157263957907,-27.199649225372696,13.650979245834552
1699732881,12.0538438475,1.8340985228999998,-0.4941178669,-1.3897184169004848,0.16600262848031067,0.37827829875412095,-72.20111078631979,-27.38965214849459,12.920198772288805
1699732881,12.5336047788,1.6331014245,0.1411765334,-1.3897184169004848,0.16600262848031067,0.37827829875412095,-72.53726980415082,-27.258111663256358,12.320958783981292
1699732881,12.5336047788,1.6331014245,0.1411765334,-1.4714216425094695,0.5050328356802092,0.3321579732701708,-72.74188833674364,-26.92195264542531,11.40017538731365
1699732881,12.7788690953,0.0586241537,0.179461695,-1.4714216425094695,0.5050328356802092,0.3321579732701708,-72.52265419467992,-26.93656825489623,11.648640748319206
1699732881,12.7788690953,0.0586241537,0.7274180704000001,-1.5410602796640431,0.8242099226386722,0.4095851422117693,-72.44957614732535,-26.3227126571178,10.932475884244374
1699732881,11.8229364666,-1.1509476706000001,0.7274180704000001,-1.5410602796640431,0.8242099226386722,0.4095851422117693,-72.28880444314528,-26.001169248757673,9.222449576147325
1699732881,10.283155123499998,-0.5132604477,1.5840485612,-1.5734361372885382,1.2565497949733175,0.8361217947835335,-72.58111663256358,-25.285004384682843,8.46243788365975
1699732881,10.283155123499998,-0.5132604477,1.5840485612,-1.5734361372885382,1.2565497949733175,0.8361217947835335,-72.44957614732535,-24.378836597486114,7.439345220695703
1699732881,9.6849494735,1.9860427579999997,1.5876377951,-1.3975069486875098,1.8041904810178384,1.313971127363931,-72.36188249049985,-23.458053200818473,5.714703303127741
1699732881,9.6849494735,1.9860427579999997,1.5876377951,-1.3975069486875098,1.8041904810178384,1.313971127363931,-72.08418591055246,-22.62496346097632,4.545454545454546
1699732881,9.4767739073,5.1230331866,0.969093153,-1.4262176148828163,2.047772994749297,1.5567900595476423,-72.24495761473253,-21.631102016954106,3.8877521192633733
1699732881,9.4767739073,5.1230331866,0.969093153,-1.4262176148828163,2.047772994749297,1.5567900595476423,-72.47880736626718,-20.66647179187372,3.2446653025431162
1699732881,9.6059863277,7.1509503401,0.6831508522999999,-1.8629862601943972,1.6383405688470771,1.4949399541800932,-71.57263957907045,-19.89184448991523,3.2008184741303713
1699732881,9.6059863277,7.1509503401,0.6831508522999999,-1.8629862601943972,1.6383405688470771,1.4949399541800932,-71.16340251388483,-19.424144986845953,2.557731657410114
1699732881,8.9216390641,6.824330055200001,1.220339526,-2.455372824936923,0.9970847850487105,1.1589640731711846,-71.20724934229757,-18.70798012277112,2.4992692195264543
1699732881,8.9216390641,6.824330055200001,1.220339526,-2.455372824936923,0.9970847850487105,1.1589640731711846,-71.35340543700673,-18.38643671441099,2.4992692195264543
1699732881,9.1585285015,4.7916272565,1.5457633996,-2.7133106717660347,0.5429064804484861,0.8020660577539941,-70.79801227711195,-18.196433791289095,3.040046769950307
1699732881,9.1585285015,4.7916272565,1.5457633996,-2.7133106717660347,0.5429064804484861,0.8020660577539941,-71.41186787489038,-17.743349897690734,2.104647763811751
1699732881,10.4410814151,2.4693929232,1.2346964616,-2.6477953749692977,0.4657847441259867,0.48930305579661026,-71.47033031277404,-17.436422098801522,2.6454253142356037
1699732881,10.4410814151,2.4693929232,1.2346964616,-2.6477953749692977,0.4657847441259867,0.48930305579661026,-71.11955568547208,-17.538731365097927,1.9438760596316866
1699732881,11.0751794041,0.6532405698,0.8338986760999999,-2.302656515387419,0.5578726787843376,0.3107776899332403,-70.88570593393744,-17.158725518854137,2.791581408944753
1699732881,11.0751794041,0.6532405698,0.8338986760999999,-2.302656515387419,0.5578726787843376,0.3107776899332403,-70.47646886875182,-16.720257234726688,2.6746565331774335
1699732881,10.2939228252,-0.7345965382,1.5457633996,-1.9741637335464362,0.5597052744989316,0.3289509307696313,-70.09646302250803,-16.31102016954107,2.1631102016954107
1699732881,10.2939228252,-0.7345965382,1.5457633996,-1.9741637335464362,0.5597052744989316,0.3908010361371803,-70.18415667933353,-16.617947968430283,1.5931014323297281
1699732881,9.2805624541,-0.3768695595,1.8616159827999998,-1.6265814130117655,0.6333145357017924,0.3908010361371803,-69.8626132709734,-16.01870798012277,1.9584916691026015
1699732881,9.2805624541,-0.3768695595,1.8616159827999998,-1.393078175710574,0.6056728836733323,0.4413501345980661,-69.55568547208418,-15.667933352820812,0.9061677871967261
1699732881,8.4658063588,0.3278166962,1.4668002538,-1.393078175710574,0.6056728836733323,0.4413501345980661,-69.4679918152587,-15.638702133878981,1.2569424144986847
1699732881,8.4658063588,0.3278166962,1.4668002538,-1.2841914470017777,0.42378775899987314,0.44501532602725413,-68.85413621748026,-15.244080678164279,1.1107863197895351
1699732881,8.1009009123,0.4414757697,1.2227323486,-1.2841914470017777,0.42378775899987314,0.44501532602725413,-69.14644840689857,-15.317158725518853,1.7977199649225375
1699732881,8.1009009123,-0.5886343596,1.0133603711,-1.0957395210176901,0.31551189552927494,0.43218715602509583,-69.11721718795674,-14.849459222449577,1.417714118678749
1699732881,8.0961152671,-0.5886343596,1.0133603711,-1.0957395210176901,0.31551189552927494,0.43218715602509583,-69.19029523531131,-14.14790996784566,0.5846243788365975
1699732881,8.3318082932,-0.7250252478,1.220339526,-0.6105598055789163,0.29565877528783946,0.4457789075750017,-68.88336743642209,-13.97252265419468,0.8330897398421515
1699732881,8.3318082932,-0.7250252478,1.220339526,-0.6105598055789163,0.29565877528783946,0.4457789075750017,-68.43028354282373,-13.91406021631102,0.5700087693656825
1699732881,8.4765740605,-0.6161518195,1.8484554585000001,-0.22907446432425577,0.2977968036215325,0.49861875067913003,-68.73721134171295,-13.344051446945338,0.8769365682548963
1699732881,8.4765740605,-0.6161518195,1.8484554585000001,-0.22907446432425577,0.2977968036215325,0.49861875067913003,-68.70798012277112,-13.05173925752704,0.233849751534639
1699732881,8.0662049846,-0.4474578262,2.081755662,0.04321871560250958,0.27779096707054746,0.478002048889947,-68.21104940076002,-12.949429991230636,0.1607717041800643
1699732881,8.0662049846,-0.4474578262,2.081755662,0.04321871560250958,0.27779096707054746,0.478002048889947,-68.4010523238819,-12.920198772288805,1.4761765565624088
1699732881,7.6749784895,-0.6580262149999999,1.8197415872999998,0.20540343634408267,0.18768834443634022,0.39813141899555654,-67.87489038292897,-12.394036831335868,0.3653902367728734
1699732881,7.6749784895,-0.6580262149999999,1.8197415872999998,0.20540343634408267,0.18768834443634022,0.39813141899555654,-67.53873136509793,-12.598655363928676,0.14615609470914936
1699732881,7.317251510799999,-0.7848458128,1.4656038425,0.3787364476827695,0.03451388595818787,0.24908030087524075,-67.75796550716164,-11.970184156679334,0.38000584624378836
1699732881,7.317251510799999,-0.7848458128,1.4656038425,0.3787364476827695,0.03451388595818787,0.24908030087524075,-67.65565624086524,-12.90558316281789,0.233849751534639
1699732881,7.5864440533,-0.6125625856,1.4644074312,0.514653963181828,-0.19486601098516687,0.039095375244672985,-68.0941245249927,-12.759427068108739,0.3069277988892137
1699732881,7.5864440533,-0.6125625856,1.4644074312,0.514653963181828,-0.19486601098516687,0.039095375244672985,-67.74334989769073,-12.78865828705057,0.964630225080386
1699732881,7.7958160308,-0.5659025448999999,1.9010975557,0.6656903933262872,-0.3095559594568442,-0.13729196228500395,-68.02104647763811,-12.569424144986845,-0.10230926629640456
1699732881,7.7958160308,-0.5659025448999999,1.9010975557,0.6656903933262872,-0.3095559594568442,-0.13729196228500395,-67.36334405144694,-12.759427068108739,0.05846243788365975
1699732881,7.6881390138,0.49292145559999995,2.2516460665999998,0.8814785387197361,-0.30405817231306215,-0.33597588100890846,-67.6118094124525,-13.344051446945338,0.5261619409529378
1699732881,7.6881390138,0.49292145559999995,2.2516460665999998,0.8814785387197361,-0.30405817231306215,-0.33597588100890846,-67.74334989769073,-13.724057293189126,1.0523238819058756
1699732881,8.017152121299999,0.6041877065,2.7900311516,0.8733845743136124,-0.3436116964863836,-0.5181664383014665,-68.15258696287636,-14.454837766734874,0.14615609470914936
1699732881,8.017152121299999,0.6041877065,2.7900311516,0.8733845743136124,-0.3436116964863836,-0.5181664383014665,-67.46565331774335,-14.104063139432915,-0.7892429114294066
1699732882,8.129614783500001,0.8530412569000001,3.2638100264,0.9004153611038747,-0.3346014342229629,-0.6808093079716881,-67.67027185033616,-15.12715580239696,0.45308389359836304
1699732882,8.129614783500001,0.8530412569000001,3.2638100264,0.9004153611038747,-0.3346014342229629,-0.6808093079716881,-68.43028354282373,-15.50716164864075,0.08769365682548962
1699732882,8.831908216599999,0.5754738353000001,4.1479579771,0.6653849607071882,-0.3724750789912398,-0.8155050929943505,-68.47413037123648,-15.244080678164279,0.3069277988892137
1699732882,8.831908216599999,0.5754738353000001,4.1479579771,0.2736676267127109,-0.45387287198112536,-0.8533787377626275,-68.37182110494008,-16.062554808535516,0.8330897398421515
1699732882,10.16949605,-0.015553346899999999,4.8071806034,0.2736676267127109,-0.45387287198112536,-0.8533787377626275,-68.21104940076002,-16.325635779011986,0.7892429114294066
1699732882,10.16949605,-0.015553346899999999,4.8071806034,-0.22281309563272608,-0.47907106305679353,-0.761138086794727,-68.35720549546916,-16.340251388482898,1.4761765565624088
1699732882,11.0057875487,-0.7250252478,5.3228338737000005,-0.22281309563272608,-0.47907106305679353,-0.761138086794727,-67.93335282081263,-16.179479684302837,1.169248757673195
1699732882,10.7007026672,-2.3234307446,4.6528435457,-0.8497135463334394,-0.4497495316232888,-0.5584835440225355,-67.84565916398714,-16.866413329435836,2.090032154340836
1699732882,10.7007026672,-2.3234307446,4.6528435457,-0.8497135463334394,-0.4497495316232888,-0.5584835440225355,-68.02104647763811,-17.041800643086816,2.3677287342882196
1699732882,10.6337036344,-2.9922246613000003,3.9326039431,-1.0503827770814873,-0.3469714552964727,-0.32162054791125505,-67.56796258403975,-16.968722595732242,2.39695995323005
1699732882,10.6337036344,-2.9922246613000003,3.9326039431,-1.0503827770814873,-0.3469714552964727,-0.32162054791125505,-67.56796258403975,-16.676410406313945,2.39695995323005
1699732882,11.414960213299999,-1.8376877568,3.6705898684,-0.45937065912490754,-0.1840231530071521,-0.23380866992029037,-67.74334989769073,-17.23180356620871,3.1277404267757962
1699732882,11.414960213299999,-1.8376877568,3.6705898684,-0.45937065912490754,-0.1840231530071521,-0.23380866992029037,-67.58257819351067,-17.451037708272434,2.6454253142356037
1699732882,11.2630159782,-0.4103690759,2.3988046565,0.40989057483086827,-0.08903360846736075,-0.3620903699418736,-67.49488453668519,-17.96258403975446,2.4408067816427943
1699732882,11.2630159782,-0.4103690759,2.3988046565,0.40989057483086827,-0.08903360846736075,-0.3620903699418736,-67.18795673779596,-17.91873721134171,3.43466822566501
1699732882,9.6598248362,0.4007977855,0.6544369810999999,0.6293439116535053,-0.21365011705975587,-0.36545012875196264,-67.14410990938322,-17.626425021923414,2.6308097047646886
1699732882,9.6598248362,0.4007977855,0.6544369810999999,0.6293439116535053,-0.21365011705975587,-0.36545012875196264,-67.05641625255772,-17.743349897690734,3.2446653025431162
1699732882,9.1896351953,1.5864413838,0.7334001269,0.3672827244665567,-0.5181664383014665,-0.30024026457432457,-67.20257234726688,-17.78719672610348,3.7854428529669684
1699732882,9.1896351953,1.5864413838,0.7334001269,0.3672827244665567,-0.5181664383014665,-0.30024026457432457,-67.04180064308682,-17.96258403975446,3.288512130955861
1699732882,10.1826565743,3.1920253483999996,2.2181465501999997,0.4291328298341058,-0.8194757170426376,-0.48227810555733314,-66.85179771996492,-18.152586962876352,3.7854428529669684
1699732882,10.1826565743,3.1920253483999996,2.2181465501999997,0.4291328298341058,-0.8194757170426376,-0.5865833449796443,-67.11487869044139,-18.576439637532886,4.399298450745396
1699732882,11.602796787399999,4.3094735026,4.0953158799,0.5039638215133626,-0.654083953800525,-0.5865833449796443,-66.32563577901198,-18.985676702718504,4.750073078047355
1699732882,11.602796787399999,4.3094735026,4.0953158799,0.08093964406123703,-0.45494188614797193,-0.3234531436258491,-66.09178602747735,-18.70798012277112,5.173925752703887
1699732882,12.016755097199999,1.6869399330000001,2.3892333661,0.08093964406123703,-0.45494188614797193,-0.3234531436258491,-66.48640748319204,-18.70798012277112,5.524700380005846
1699732882,12.016755097199999,1.6869399330000001,2.3892333661,-0.8329147522829938,-0.5181664383014665,0.058337630247910464,-66.55948553054662,-18.722595732242034,5.670856474714996
1699732882,10.619346698800001,-0.7920242806,0.526420972,-0.8329147522829938,-0.5181664383014665,0.058337630247910464,-66.31102016954107,-18.664133294358376,6.182402806197018
1699732882,10.619346698800001,-0.7920242806,0.526420972,-1.2159272566331496,-0.5482515512827187,0.07528914060790538,-66.53025431160479,-18.91259865536393,5.91932183572055
1699732882,8.640482408599999,0.0933200814,-0.3242274623,-1.2159272566331496,-0.5482515512827187,0.07528914060790538,-65.9456299327682,-18.517977199649224,6.2554808535515924
1699732882,7.429714173,2.5543381254999997,-0.39960137419999997,-0.7932085118001229,-0.4622722690063481,0.01038470904936626,-65.79947383805904,-18.576439637532886,6.138555977784273
1699732882,7.429714173,2.5543381254999997,-0.39960137419999997,-0.7932085118001229,-0.4622722690063481,0.01038470904936626,-65.82870505700087,-18.985676702718504,6.021631102016954
1699732882,7.1353969932,4.6157547954,-0.3086741154,0.22495112396641914,-0.21823160634624097,-0.04321871560250958,-65.41946799181527,-18.64951768488746,5.700087693656825
1699732882,7.1353969932,4.6157547954,-0.3086741154,0.22495112396641914,-0.21823160634624097,-0.04321871560250958,-65.74101140017538,-18.2987430575855,5.597778427360421
1699732882,7.573283529,4.6695933039,-0.9056833541,0.67408979035151,-0.04321871560250958,-0.05711589977151443,-65.74101140017538,-18.64951768488746,6.927798889213681
1699732882,7.573283529,4.6695933039,-0.9056833541,0.67408979035151,-0.04321871560250958,-0.05711589977151443,-65.71178018123356,-18.488745980707396,6.620871090324466
1699732882,10.097711372000001,2.7948167968,-2.6057838114000003,0.4230241774521256,-0.33643402993755694,-0.2565634000431664,-65.52177725811167,-18.70798012277112,7.293189125986553
1699732882,10.097711372000001,2.7948167968,-2.6057838114000003,0.4230241774521256,-0.33643402993755694,-0.2565634000431664,-65.53639286758258,-19.292604501607716,7.059339374451914
1699732882,10.7820586356,-1.1449656141,-4.4494536247,-0.25717426528136444,-0.6258314365338667,-0.7808384907266132,-65.18561824028062,-20.72493422975738,7.570885705933937
1699732882,10.7820586356,-1.1449656141,-4.4494536247,-0.25717426528136444,-0.6258314365338667,-0.7808384907266132,-65.20023384975153,-20.447237649809995,8.667056416252558
1699732882,9.621539674600001,-3.1716863562999995,-3.864408499,-0.37980546184961606,-0.7764097177496775,-1.0137308627896064,-65.09792458345513,-20.593393744519144,9.485530546623794
1699732882,9.621539674600001,-3.1716863562999995,-3.864408499,-0.37980546184961606,-0.7764097177496775,-1.0137308627896064,-65.33177433498977,-20.87109032446653,10.011692487576731
1699732882,9.3188476157,-2.6093730453,-0.5874379483000001,-0.42088614911843253,-1.296408751765738,-0.751669675602658,-64.63022508038586,-20.885705933937444,10.669394913767904
1699732882,9.3188476157,-2.6093730453,-0.5874379483000001,-0.42088614911843253,-1.296408751765738,-0.751669675602658,-64.3817597193803,-21.10494007600117,10.50862320958784
1699732882,9.9613204838,0.622133876,3.0089744195,-0.2831360379047801,-1.3440562403451835,-0.1511891464540088,-64.54253142356036,-20.418006430868168,10.77170418006431
1699732882,9.9613204838,0.622133876,3.0089744195,-0.2831360379047801,-1.3440562403451835,-0.1511891464540088,-64.25021923414207,-20.710318620286465,11.034785150540777
1699732882,9.9972128228,2.5615165933,0.9296115801,0.6716463293987179,-0.5928447136711739,0.020922134408282025,-63.9871382636656,-20.783396667641043,11.137094416837181
1699732882,9.9972128228,2.5615165933,0.9296115801,0.6716463293987179,-0.5928447136711739,0.020922134408282025,-64.73253434668226,-20.330312774042678,11.268634902075418
1699732882,9.629914553699999,2.4143580034,-1.280160091,0.8002334620394002,-0.2528982086139784,-0.008093964406123703,-64.42560654779305,-20.228003507746273,11.444022215726395
1699732882,9.629914553699999,2.4143580034,-1.280160091,0.13439035240356337,-0.3660609939901607,0.0678060414399797,-64.01636948260743,-20.432622040339083,12.087109032446651
1699732882,10.106086251099999,2.3593230836,-0.8805587168,0.13439035240356337,-0.3660609939901607,0.0678060414399797,-63.88482899736919,-20.885705933937444,11.955568547208419
1699732882,10.106086251099999,2.3593230836,-0.8805587168,-0.5551237852124464,-0.4816672403191351,0.09056077156285577,-63.9871382636656,-20.63724057293189,12.467114878690442
1699732882,10.0366943957,2.1439690496,0.1962114532,-0.5551237852124464,-0.4816672403191351,0.09056077156285577,-63.446360713241745,-20.622624963460975,11.940952937737503
1699732882,10.0366943957,2.1439690496,0.1962114532,-0.836274511093083,-0.37552940518222994,0.026878070480712675,-63.85559777842737,-20.72493422975738,12.218649517684888
1699732882,9.5042913672,1.7431712641,0.1854437515,-0.836274511093083,-0.37552940518222994,0.026878070480712675,-63.72405729318913,-20.681087401344637,12.262496346097631
1699732882,9.0245304359,1.2239287599,-0.6269195211999999,-0.7990117315630041,-0.179441663720667,-0.07055493501187078,-63.92867582578193,-21.207249342297573,11.882490499853844
1699732882,9.0245304359,1.2239287599,-0.6269195211999999,-0.7990117315630041,-0.179441663720667,-0.07055493501187078,-63.70944168371822,-21.36802104647764,13.197895352236188
1699732882,8.805587167999999,0.885344362,-1.3591232368,-0.4013384614960961,-0.11484266478122689,-0.2037235569390381,-63.13943291435253,-21.16340251388483,12.67173341128325
1699732882,8.805587167999999,0.885344362,-1.3591232368,-0.4013384614960961,-0.11484266478122689,-0.2037235569390381,-63.35866705641625,-21.55802396959953,13.037123648056124
1699732882,9.1322074529,0.7489534738,-1.4285150922,0.14538592669112765,-0.21471913122660238,-0.34406984541503216,-62.65711780181233,-21.894182987430575,13.417129494299912
1699732882,9.1322074529,0.7489534738,-1.4285150922,0.14538592669112765,-0.21471913122660238,-0.34406984541503216,-62.686349020754164,-21.631102016954106,13.460976322712655
1699732882,9.6598248362,0.3672982691,-0.9284151688,0.3862195468506952,-0.3877467099461902,-0.45127669471878384,-63.15404852382345,-21.7187956737796,13.168664133294358
1699732882,9.6598248362,0.3672982691,-0.9284151688,0.3862195468506952,-0.3877467099461902,-0.45127669471878384,-63.12481730488161,-21.631102016954106,13.7971353405437
1699732882,9.509077012399999,-0.7525427077,-1.040877831,0.2747366408795574,-0.4731151269843629,-0.49632800603588745,-62.87635194387606,-21.70418006430868,13.724057293189126
1699732882,9.509077012399999,-0.7525427077,-1.040877831,0.2747366408795574,-0.4731151269843629,-0.49632800603588745,-63.09558608593978,-21.864951768488748,13.97252265419468
1699732882,9.2638126959,-0.5407779076,-1.0109675485,0.20173824491489456,-0.4728096943652639,-0.40088031256744755,-62.67173341128325,-21.981876644256065,14.747149956153171
1699732882,9.2638126959,-0.5407779076,-1.0109675485,0.20173824491489456,-0.4728096943652639,-0.40088031256744755,-62.554808535515924,-22.4057293189126,14.761765565624085
1699732882,9.272187575,0.6388836341999999,-0.6855436748999999,0.0035124751196385882,-0.44700063805139767,-0.21319196813110736,-62.21864951768489,-22.756503946214558,15.755627009646304
1699732882,9.272187575,0.6388836341999999,-0.6855436748999999,0.0035124751196385882,-0.44700063805139767,-0.21319196813110736,-62.18941829874306,-22.332651271558024,14.92253726980415
1699732882,9.554540641800001,1.9250257817,-0.0681954441,-0.05390885727097486,-0.4816672403191351,-0.1837177203880531,-61.99941537562116,-22.756503946214558,16.13563285589009
1699732882,9.554540641800001,1.9250257817,-0.0681954441,-0.05390885727097486,-0.4816672403191351,-0.1837177203880531,-62.04326220403391,-22.668810289389068,15.828705057000878
1699732882,9.5700939887,2.2157537276,0.35892339,-0.079717913584841,-0.49953504853642705,-0.25335635754262686,-61.85325928091201,-22.49342297573809,16.910260157848583
1699732882,9.5700939887,2.2157537276,0.35892339,-0.079717913584841,-0.49953504853642705,-0.25335635754262686,-62.087109032446655,-23.06343174510377,16.237942122186492
1699732882,9.5569334644,1.7479569093,-0.071784678,-0.11071932442339028,-0.39507709280456643,-0.35796702958403703,-61.531715872551885,-23.428821981876645,15.784858228588133
1699732882,9.5569334644,1.7479569093,-0.071784678,-0.12140946609185554,-0.27412577564135937,-0.4303545603105018,-62.16018707980123,-23.44343759134756,16.471791873721134
1699732882,9.7399843933,1.4895320685,-0.6077769404,-0.12140946609185554,-0.27412577564135937,-0.4303545603105018,-61.41479099678456,-23.516515638702135,16.66179479684303
1699732882,9.7399843933,1.4895320685,-0.6077769404,-0.22418754241867164,-0.23014347849110228,-0.4338670354301404,-61.19555685472085,-23.50190002923122,16.325635779011986
1699732882,9.8644111685,1.4715858990000001,-0.7692924659,-0.22418754241867164,-0.23014347849110228,-0.4338670354301404,-60.9617071031862,-23.896521484945925,16.60333235895937
1699732882,9.8644111685,1.4715858990000001,-0.7692924659,-0.3874412773270912,-0.16600262848031067,-0.440433836740769,-60.99093832212803,-24.0719087985969,17.304881613563285
1699732882,9.6681997153,1.1222337994,-0.9822536772999999,-0.3874412773270912,-0.16600262848031067,-0.440433836740769,-60.976322712657115,-24.495761473253435,17.129494299912306
1699732882,9.6143612068,0.33260234139999995,-1.6402798923,-0.5354233812805604,-0.05146539631818279,-0.478307481509046,-61.34171294943,-24.48114586378252,16.720257234726688
1699732882,9.6143612068,0.33260234139999995,-1.6402798923,-0.5354233812805604,-0.05146539631818279,-0.478307481509046,-61.22478807366267,-24.6565331774335,16.354866997953817
1699732882,9.5688975774,-0.5682953675,-2.0853448959,-0.659276308325208,0.05513058774737088,-0.5283984310412833,-61.32709733995908,-24.96346097632271,16.515638702133877
1699732882,9.5688975774,-0.5682953675,-2.0853448959,-0.659276308325208,0.05513058774737088,-0.5283984310412833,-61.502484653610054,-25.182695118386437,16.60333235895937
1699732882,9.5605226983,-0.6041877065,-1.6199409001999998,-0.6739370740419605,0.05085453107998478,-0.4331034538823929,-60.74247296112247,-25.650394621455714,16.164864074831918
1699732882,9.5605226983,-0.6041877065,-1.6199409001999998,-0.6739370740419605,0.05085453107998478,-0.4331034538823929,-60.68401052323882,-25.89885998246127,16.530254311604793
1699732882,10.9567346854,-0.131605243,-1.2741780345,-0.5079344455616498,-0.0033597588100890844,-0.22113321622768156,-60.17246419175679,-25.285004384682843,17.3194972230342
1699732882,10.9567346854,-0.131605243,-1.2741780345,-0.5079344455616498,-0.0033597588100890844,-0.22113321622768156,-60.31862028646594,-25.387313650979248,17.217187956737796
1699732882,12.6113715133,0.3086741154,-1.1569297271,-0.23823744289722598,-0.031001410838549282,-0.04902193536539073,-60.02630809704764,-25.22654194679918,17.40719087985969
1699732882,12.6113715133,0.3086741154,-1.1569297271,-0.23823744289722598,-0.031001410838549282,-0.04902193536539073,-60.18707980122772,-25.387313650979248,17.187956737795968
1699732882,12.836296837699999,1.2454641632999999,-0.1351944769,0.01114829059711378,0.031001410838549282,0.15699236621688992,-60.45016077170418,-24.554223911137093,16.76410406313943
1699732882,12.836296837699999,1.2454641632999999,-0.1351944769,0.01114829059711378,0.031001410838549282,0.15699236621688992,-59.953230049693076,-24.86115171002631,16.705641625255772
1699732882,13.3806639792,2.1846470338,1.0229316615,0.23304508837254284,0.25793784682911197,0.2528982086139784,-59.47091493715288,-24.919614147909968,15.98947676118094
1699732882,13.3806639792,2.1846470338,1.0229316615,0.23304508837254284,0.25793784682911197,0.2528982086139784,-59.86553639286758,-24.817304881613563,15.434083601286176
1699732882,13.196416639,1.7407784414999998,0.5587240770999999,0.1435533309765336,0.7339545836949155,0.21975876944173603,-59.821689564454836,-24.758842443729904,14.68868751826951
1699732882,13.196416639,1.7407784414999998,0.5587240770999999,0.1435533309765336,0.7339545836949155,0.21975876944173603,-59.953230049693076,-24.495761473253435,14.513300204618531
1699732882,12.525229899700001,0.6233302873,-0.1423729447,-0.37079519958619533,1.1027644712569673,0.3014619950507206,-59.79245834551301,-24.24729611224788,14.03098509207834
1699732882,12.525229899700001,0.6233302873,-0.1423729447,-0.37079519958619533,1.1027644712569673,0.3014619950507206,-59.967845659163984,-24.33498976907337,13.592516807950892
1699732882,11.215159526199999,0.8362914987,1.2849457361999999,-0.7403686686959946,1.3248139853419458,0.5937610115284709,-59.777842736042096,-23.925752703887753,12.277111955568547
1699732882,11.215159526199999,0.8362914987,1.2849457361999999,-0.7403686686959946,1.3248139853419458,0.5937610115284709,-59.52937737503654,-23.3849751534639,11.824028061970184
1699732883,10.1623175822,1.8628123941,1.6666009409,-0.614377713317654,1.7062993265966064,0.8854491627680232,-59.55860859397837,-23.078047354574686,10.391698333820521
1699732883,10.1623175822,1.8628123941,1.6666009409,-0.614377713317654,1.7062993265966064,0.8854491627680232,-59.51476176556562,-22.873428821981875,9.865536392867583
1699732883,9.3164547931,3.5820554322,0.299102825,-0.44638977281319975,1.8770361606729518,1.073290223513913,-59.441683718211046,-21.967261034785153,9.14937152879275
1699732883,9.3164547931,3.5820554322,0.299102825,-0.44638977281319975,1.8770361606729518,1.073290223513913,-59.543992984507454,-21.309558608593978,9.690149079216603
1699732883,8.7924266437,5.0285166938999994,-0.7668996433,-0.6233879755810747,1.5711453926452954,1.010523820289067,-58.74013446360713,-21.70418006430868,8.418591055247004
1699732883,8.7924266437,5.8456656118,-0.5407779076,-1.0680978689892298,1.0358747276742846,0.892932261935949,-59.66091786027478,-21.07570885705934,8.28705057000877
1699732883,8.5495551498,5.8456656118,-0.5407779076,-1.0680978689892298,1.0358747276742846,0.892932261935949,-58.75475007307804,-21.236480561239404,8.593978368897984
1699732883,8.3688970435,4.9363930238,0.6843472636,-1.455233713697222,0.6308710747490004,0.876897049433251,-58.97398421514177,-20.98801520023385,8.28705057000877
1699732883,8.3688970435,4.9363930238,0.6843472636,-1.455233713697222,0.6308710747490004,0.876897049433251,-58.389359836305175,-20.315697164571763,7.950891552177726
1699732883,8.7182491431,3.2470602682000003,1.79461695,-1.4475978982197468,0.3393356398189975,0.8649851772883898,-58.22858813212511,-20.578778135048232,7.512423268050278
1699732883,8.7182491431,3.2470602682000003,1.79461695,-1.4475978982197468,0.3393356398189975,0.8649851772883898,-58.944752996199945,-19.89184448991523,7.848582285881321
1699732883,8.9024964833,1.9202401365000001,1.8293128776999998,-1.3532192189181536,0.2955060589782899,0.718072087501767,-58.49166910260158,-19.80415083308974,8.550131540485237
1699732883,8.9024964833,1.9202401365000001,1.8293128776999998,-1.3532192189181536,0.2955060589782899,0.718072087501767,-58.433206664717915,-20.739549839228296,7.585501315404852
1699732883,8.8079799906,1.1892328322,1.1772687192,-1.1968377179394616,0.39568795804276446,0.6130032665317084,-57.556270096463024,-19.59953230049693,8.140894475299621
1699732883,8.8079799906,1.1892328322,1.1772687192,-1.1968377179394616,0.39568795804276446,0.6130032665317084,-57.585501315404855,-19.74568839520608,7.804735457468577
1699732883,8.7182491431,0.6484549246,1.3974083984,-1.1586586405520856,0.31994066850621056,0.6511823439190844,-57.79011984799766,-19.190295235311314,8.433206664717918
1699732883,8.7182491431,0.6484549246,1.3974083984,-1.1586586405520856,0.31994066850621056,0.6511823439190844,-57.64396375328851,-19.073370359543993,9.003215434083602
1699732883,8.872586200799999,0.2835494781,1.866401628,-1.0358747276742846,0.18845192598408772,0.7058547827378068,-57.54165448699211,-18.941829874305757,8.886290558316281
1699732883,8.872586200799999,0.2835494781,1.866401628,-1.0358747276742846,0.18845192598408772,0.7058547827378068,-57.99473838059047,-18.50336159017831,8.447822274188834
1699732883,8.873782612100001,0.6951149653,1.7766707805,-0.7052439174996087,0.09056077156285577,0.7028004565468167,-57.49780765857936,-18.28412744811459,9.310143232972814
1699732883,8.873782612100001,0.6951149653,1.7766707805,-0.7052439174996087,0.09056077156285577,0.7028004565468167,-57.453960830166615,-17.91873721134171,9.193218357205495
1699732883,9.006584266399999,0.6017948839,1.5900306177,-0.5062545661566052,0.027336219409361186,0.7509060940549104,-57.453960830166615,-18.035662087109035,9.573224203449284
1699732883,9.006584266399999,0.6017948839,1.5900306177,-0.5062545661566052,0.027336219409361186,0.7509060940549104,-56.69394913767904,-17.34872844197603,8.46243788365975
1699732883,9.2183490665,-0.0059820565,1.3064811396,-0.20005836550985004,0.07651087108430142,0.7608326541756282,-56.518561824028055,-17.187956737795968,8.681672025723474
1699732883,9.2183490665,-0.0059820565,1.3064811396,-0.20005836550985004,0.07651087108430142,0.7608326541756282,-56.67933352820813,-16.910260157848583,10.055539315989478
1699732883,8.8701933782,0.5371886737,1.4943177136999999,0.35796702958403703,0.21823160634624097,0.7565565975082419,-56.48933060508623,-16.471791873721134,8.97398421514177
1699732883,8.8701933782,0.5371886737,1.4943177136999999,0.35796702958403703,0.21823160634624097,0.7565565975082419,-56.48933060508623,-16.340251388482898,8.900906167787197
1699732883,8.5232341012,1.220339526,1.7527425545,0.5879577917655898,0.17760906800607296,0.7803803417979646,-55.977784273604215,-16.01870798012277,9.076293481438176
1699732883,8.5232341012,1.220339526,1.7527425545,0.5879577917655898,0.17760906800607296,0.7803803417979646,-55.61239403683133,-15.887167494884535,9.295527623501899
1699732883,8.294719542900001,1.2885349701,1.7778671918,0.5119050696099369,0.009010262263420726,0.675616953447005,-55.74393452206957,-16.25255773165741,9.090909090909092
1699732883,8.294719542900001,1.2885349701,1.7778671918,0.5119050696099369,0.009010262263420726,0.675616953447005,-56.41625255773166,-15.799473838059047,8.827828120432622
1699732883,7.9310105077,0.7154539574000001,1.7407784414999998,0.3816380575642101,-0.13775011121365247,0.47189339650796686,-55.495469161064015,-15.638702133878981,8.900906167787197
1699732883,7.9310105077,0.7154539574000001,1.7407784414999998,0.29046642076315626,-0.22815816646695872,0.24022275492136952,-56.021631102016954,-15.594855305466238,9.047062262496345
1699732883,7.788637563,-0.1351944769,1.722832272,0.29046642076315626,-0.22815816646695872,0.24022275492136952,-55.89009061677872,-16.03332358959369,9.105524700380005
1699732883,7.788637563,-0.1351944769,1.722832272,0.29825495255018103,-0.25259277599487934,0.05360342465187585,-55.93393744519146,-15.711780181233555,9.397836889798304
1699732883,8.0111700648,-0.6699903279999999,1.962114532,0.29825495255018103,-0.25259277599487934,0.05360342465187585,-55.875475007307806,-16.296404560070155,8.842443729903538
1699732883,8.0111700648,-0.6699903279999999,1.962114532,0.3854559653029477,-0.2351831167062359,-0.08888089215781124,-55.89009061677872,-16.121017246419175,10.011692487576731
1699732883,8.470592004,-0.9140582332,2.2516460665999998,0.3854559653029477,-0.2351831167062359,-0.08888089215781124,-55.84624378836598,-15.711780181233555,10.084770534931305
1699732883,8.5220376899,-0.8745766603,2.3473589706,0.4929682472257984,-0.19226983372282533,-0.17440202550553338,-55.70008769365683,-16.077170418006432,10.011692487576731
1699732883,8.5220376899,-0.8745766603,2.3473589706,0.4929682472257984,-0.19226983372282533,-0.17440202550553338,-55.495469161064015,-16.384098216895644,9.690149079216603
1699732883,8.6356967634,-0.46540399569999996,2.3425733254,0.5239696580643476,-0.14996741597761276,-0.2350304003966864,-55.30546623794213,-16.39871382636656,9.807073954983924
1699732883,8.6356967634,-0.46540399569999996,2.3425733254,0.5239696580643476,-0.14996741597761276,-0.2350304003966864,-55.115463314820225,-16.515638702133877,10.09938614440222
1699732883,8.9802632178,0.0035892339,2.739781877,0.5059491335375061,-0.09911288489762798,-0.2999348319552255,-55.05700087693657,-16.208710903244665,9.690149079216603
1699732883,8.9802632178,0.0035892339,2.739781877,0.5059491335375061,-0.09911288489762798,-0.2999348319552255,-55.13007892429115,-16.647179187372114,8.988599824612686
1699732883,9.232706002099999,0.9308079913999999,3.0472595810999996,0.42821653197680876,-0.07024950239277176,-0.3507893630352103,-54.896229172756506,-16.983338205203157,9.646302250803858
1699732883,9.232706002099999,0.9308079913999999,3.0472595810999996,0.42821653197680876,-0.07024950239277176,-0.3507893630352103,-55.30546623794213,-17.275650394621454,9.23706518561824
1699732883,9.5174518915,0.9667003303999999,3.3164521235999995,0.30268372552711664,-0.1316414588316723,-0.43127085816779887,-54.88161356328559,-16.983338205203157,9.32475884244373
1699732883,9.5174518915,0.9667003303999999,3.3164521235999995,0.30268372552711664,-0.1316414588316723,-0.43127085816779887,-55.13007892429115,-17.46565331774335,9.821689564454838
1699732883,9.0149591455,-0.2344966148,2.9706892578999997,0.3020728602889186,-0.099418317516727,-0.44089198566941756,-54.896229172756506,-17.772581116632562,10.406313943291435
1699732883,9.0149591455,-0.2344966148,2.9706892578999997,0.26603181123523567,-0.08949175739600926,-0.297949519931082,-54.76468868751827,-17.81642794504531,9.514761765565623
1699732883,9.6562356023,-1.2239287599,2.7290141752999997,0.26603181123523567,-0.08949175739600926,-0.297949519931082,-54.82315112540193,-17.37795966091786,9.836305173925751
1699732883,9.6562356023,-1.2239287599,2.7290141752999997,0.2231185282518251,-0.15424347264499888,-0.1831068551498551,-55.276235019000296,-18.26951183864367,9.792458345513008
1699732883,10.6265251666,-1.7072789251,3.4564322457,0.2231185282518251,-0.15424347264499888,-0.1831068551498551,-55.24700380005846,-18.050277696579947,11.137094416837181
1699732883,11.1601246064,-1.7132609816000002,4.5236311253,0.32818734922188375,-0.17043140145724628,-0.1264491043069892,-55.042385267465654,-18.26951183864367,10.230926629640456
1699732883,11.1601246064,-1.7132609816000002,4.5236311253,0.32818734922188375,-0.17043140145724628,-0.1264491043069892,-55.217772581116634,-17.91873721134171,9.792458345513008
1699732883,9.9493563708,-1.7994025952000001,4.2687955184,0.2509128965898348,-0.0320704250053958,-0.05360342465187585,-55.641625255773164,-18.24028061970184,10.71324174218065
1699732883,9.9493563708,-1.7994025952000001,4.2687955184,0.2509128965898348,-0.0320704250053958,-0.05360342465187585,-55.4808535515931,-18.313358667056416,10.50862320958784
1699732883,7.9357961529,-0.48933222169999996,3.3236305914,-0.09040805525330627,0.006566801310628665,-0.1556179194309444,-54.69161064016369,-18.50336159017831,10.669394913767904
1699732883,7.9357961529,-0.48933222169999996,3.3236305914,-0.09040805525330627,0.006566801310628665,-0.1556179194309444,-54.866997953814675,-18.781058170125693,11.60479391990646
1699732883,8.0422767586,1.5493526335,1.6642081183,-0.24862215194659223,-0.3034473070748641,-0.3943135112568189,-54.58930137386729,-19.65799473838059,11.590178310435546
1699732883,8.0422767586,1.5493526335,1.6642081183,-0.24862215194659223,-0.3034473070748641,-0.3943135112568189,-54.516223326512716,-19.643379128909675,11.195556854720841
1699732883,10.198209921199998,3.3774690999,1.1700902514,-0.10522153727960813,-0.8068002633500287,-0.6548475353482724,-54.73545746857644,-20.00876936568255,12.934814381759718
1699732883,10.198209921199998,3.3774690999,1.1700902514,-0.10522153727960813,-0.8068002633500287,-0.6548475353482724,-54.32622040339082,-20.403390821397252,12.90558316281789
1699732883,12.659227965300001,3.7531422481,2.8941189347,0.3144428813624284,-0.97875882790277,-0.8820894039579341,-54.618532592809125,-20.651856182402806,12.598655363928676
1699732883,12.659227965300001,3.7531422481,2.8941189347,0.3144428813624284,-0.6577491452297131,-0.9540187857557505,-54.82315112540193,-21.207249342297573,12.686349020754164
1699732883,13.6211426505,1.5349956979000001,2.4514467537,0.7425066970296876,-0.6577491452297131,-0.9540187857557505,-54.45776088862906,-21.031862028646593,12.67173341128325
1699732883,13.6211426505,1.5349956979000001,2.4514467537,0.7970264195388604,-0.5458080903299267,-0.595288174623966,-55.14469453376206,-21.061093247588424,13.475591932183573
1699732883,13.6438744652,-1.9250257817,1.6019947307,0.7970264195388604,-0.5458080903299267,-0.595288174623966,-55.1885413621748,-21.221864951768488,13.724057293189126
1699732883,13.6438744652,-1.9250257817,1.6019947307,0.19730947193795895,-0.6969972367839355,0.0675006088208807,-54.67699503069278,-20.75416544869921,14.352528500438469
1699732883,11.653046062,-4.7150569333,0.5431707302,0.19730947193795895,-0.6969972367839355,0.0675006088208807,-54.57468576439638,-20.783396667641043,14.849459222449577
1699732883,8.877371846,-2.3030917525,0.0765703232,-0.6433938121320597,-0.5071708640139022,0.5474879697349713,-54.282373574978074,-20.578778135048232,14.586378251973105
1699732883,8.877371846,-2.3030917525,0.0765703232,-0.6433938121320597,-0.5071708640139022,0.5474879697349713,-54.67699503069278,-20.5495469161064,14.86407483192049
1699732883,7.4069823583000005,2.2564317118,1.2370892842,-0.6872233929727672,-0.3535382566071014,0.5743660402156839,-54.618532592809125,-20.827243496053786,15.317158725518853
1699732883,7.4069823583000005,2.2564317118,1.2370892842,-0.6872233929727672,-0.3535382566071014,0.5743660402156839,-54.64776381175095,-20.315697164571763,15.30254311604794
1699732883,7.2753771152999995,6.508477471999999,0.6137589969,0.4324925886441949,-0.29245173278729986,0.34956763255881423,-53.99006138555977,-20.24261911721719,15.185618240280618
1699732883,7.2753771152999995,6.508477471999999,0.6137589969,0.4324925886441949,-0.29245173278729986,0.34956763255881423,-54.16544869921076,-20.081847413037124,14.937152879275065
1699732883,7.405785946999999,6.3517475917,-0.849452023,1.0366383092220322,-0.04016438941151951,-0.002748893571891069,-54.22391113709442,-20.37415960245542,15.112540192926044
1699732883,7.405785946999999,6.3517475917,-0.849452023,1.0366383092220322,-0.04016438941151951,-0.002748893571891069,-53.8146740719088,-20.783396667641043,15.317158725518853
1699732883,9.1920280179,4.6384866101,-2.0506489682,0.6469062872516982,-0.01511891464540088,-0.2515237618280328,-54.18006430868167,-20.885705933937444,14.790996784565916
1699732883,9.1920280179,4.6384866101,-2.0506489682,0.6469062872516982,-0.01511891464540088,-0.2515237618280328,-54.18006430868167,-21.484945922244957,15.653317743349898
1699732883,11.087143517100001,1.2287144051,-3.6251262389999996,-0.07513642429835589,-0.34101551922404205,-0.5077817292521003,-54.39929845074539,-22.1134171294943,15.171002630809705
1699732883,11.087143517100001,1.2287144051,-3.6251262389999996,-0.07513642429835589,-0.34101551922404205,-0.5077817292521003,-54.39929845074539,-22.654194679918152,15.916398713826366
1699732883,10.4386885925,-2.1667008643,-3.278166962,-0.5833763024791045,-0.7832819516794051,-1.0256427349344677,-54.5016077170418,-23.194972230342007,17.58257819351067
1699732883,10.4386885925,-2.1667008643,-3.278166962,-0.8220718943049792,-1.1713340942446944,-1.070541329942022,-53.99006138555977,-23.823443437591347,18.50336159017831
1699732883,9.6394858441,-3.4851461168999998,-0.0323031051,-0.8220718943049792,-1.1713340942446944,-1.070541329942022,-53.75621163402514,-23.998830751242327,17.801812335574393
1699732883,9.6394858441,-3.4851461168999998,-0.0323031051,-0.855974915024969,-1.0128145649323095,-0.338877490890349,-53.77082724349606,-23.574978076585793,18.722595732242034
1699732883,9.9625168951,-2.0566310246999997,1.9393827173,-0.855974915024969,-1.0128145649323095,-0.338877490890349,-52.99619994153756,-23.925752703887753,18.21104940076001
1699732883,9.9625168951,-2.0566310246999997,1.9393827173,0.23839015920677548,-0.498313318060031,0.14553864300067715,-53.405437006723176,-23.6772873428822,18.547208418591055
1699732883,9.665806892700001,1.91425808,-0.0681954441,0.23839015920677548,-0.498313318060031,0.14553864300067715,-52.806197018415666,-23.691902952353114,18.605670856474717
1699732883,9.665806892700001,1.91425808,-1.5050854154,0.6039930042682877,-0.38438695113610116,0.10231992739816757,-53.39082139725227,-23.574978076585793,18.8833674364221
1699732883,9.0604227749,3.3511480513,-1.5050854154,0.6039930042682877,-0.38438695113610116,0.10231992739816757,-53.11312481730488,-23.50190002923122,19.102601578485825
1699732883,9.2685983411,2.261217357,-1.2143574695,0.03268129024359382,-0.4642575810304917,-0.009010262263420726,-53.01081555100847,-23.487284419760304,20.111078631978955
1699732883,9.2685983411,2.261217357,-1.2143574695,0.03268129024359382,-0.4642575810304917,-0.009010262263420726,-53.09850920783396,-23.80882782812043,19.672610347851503
1699732883,9.7663054419,1.4668002538,-0.5156532703,-0.39645153959051194,-0.5291620125890308,-0.07284567965511334,-53.14235603624671,-24.042677579655074,20.34492838351359
1699732883,9.7663054419,1.4668002538,-0.5156532703,-0.39645153959051194,-0.5291620125890308,-0.07284567965511334,-52.8354282373575,-24.232680502776965,20.75416544869921
1699732883,9.6358966102,1.1868400096,0.1256231865,-0.5009094953223726,-0.47555858793715494,-0.12583823906879116,-52.806197018415666,-24.30575855013154,20.16954106986261
1699732883,9.6358966102,1.1868400096,0.1256231865,-0.5009094953223726,-0.47555858793715494,-0.12583823906879116,-52.70388775211926,-25.285004384682843,19.921075708857057
1699732884,9.4085784632,1.0109675485,0.0035892339,-0.43508876590653645,-0.3422372497004381,-0.16432274907526612,-52.70388775211926,-24.831920491084478,20.432622040339083
1699732884,9.4085784632,1.0109675485,0.0035892339,-0.43508876590653645,-0.3422372497004381,-0.16432274907526612,-52.5431160479392,-24.77345805320082,20.5495469161064
1699732884,9.2219383004,0.6137589969,-0.8003991597,-0.28115072588063655,-0.257326981590914,-0.22876903170515675,-52.2508038585209,-24.74422683425899,21.04647763811751
1699732884,9.2219383004,0.6137589969,-0.8003991597,-0.28115072588063655,-0.257326981590914,-0.22876903170515675,-52.39695995323005,-25.679625840397545,20.739549839228296
1699732884,9.0520478958,0.1495514125,-1.6869399330000001,-0.04520402762665313,-0.23655756349218146,-0.3335324200561164,-52.39695995323005,-25.22654194679918,21.33878982753581
1699732884,9.0520478958,0.1495514125,-1.6869399330000001,0.02550362369476714,-0.2829833215952306,-0.3749185399440319,-52.3384975153464,-25.43116047939199,20.66647179187372
1699732884,9.2315095908,-0.16630117069999997,-1.8520446924,0.02550362369476714,-0.2829833215952306,-0.3749185399440319,-52.55773165741011,-25.562700964630224,21.835720549546917
1699732884,9.6681997153,-0.2452643165,-1.3339985995,-0.0015271630954950383,-0.39110646875627936,-0.32681290243593825,-52.119263373282664,-25.60654779304297,21.5287927506577
1699732884,9.6681997153,-0.2452643165,-1.3339985995,-0.0015271630954950383,-0.39110646875627936,-0.32681290243593825,-52.04618532592809,-25.85501315404852,21.265711780181235
1699732884,9.7926264905,-0.0251246373,-0.729810893,0.1385136927614,-0.4514294110283333,-0.2832887542143296,-51.91464484068986,-26.35194387605963,22.420344928383514
1699732884,9.7926264905,-0.0251246373,-0.729810893,0.1385136927614,-0.4514294110283333,-0.2832887542143296,-51.929260450160776,-26.264250219234142,21.5287927506577
1699732884,9.5270231819,0.9774680320999999,-0.3900300838,0.3104722573141413,-0.40515636923483367,-0.24480424420785463,-52.26541946799181,-26.278865828705054,22.215726395790707
1699732884,9.5270231819,0.9774680320999999,-0.3900300838,0.3104722573141413,-0.40515636923483367,-0.24480424420785463,-51.22771119555686,-26.176556562408653,22.011107863197896
1699732884,9.3738825355,1.6199409001999998,-0.6855436748999999,0.22739458491921122,-0.32604932088819066,-0.2151772801552509,-52.10464776381175,-26.20578778135048,22.1134171294943
1699732884,9.3738825355,1.6199409001999998,-0.6855436748999999,0.22739458491921122,-0.32604932088819066,-0.2151772801552509,-51.6661794796843,-26.425021923414207,22.08418591055247
1699732884,9.3631148338,1.8735800958,-0.729810893,0.1195768703772615,-0.32238412945900263,-0.24908030087524075,-51.79771996492254,-26.527331189710612,22.902660040923706
1699732884,9.3631148338,1.8735800958,-0.729810893,0.1195768703772615,-0.32238412945900263,-0.24908030087524075,-51.31540485238234,-26.790412160187078,22.873428821981875
1699732884,9.403792818,1.7252250946,-0.3337987527,0.02138028333693054,-0.3460551574391757,-0.31658090969612146,-51.43232972814966,-27.404267757965506,22.88804443145279
1699732884,9.403792818,1.7252250946,-0.3337987527,0.02138028333693054,-0.3460551574391757,-0.31658090969612146,-51.34463607132418,-27.02426191172172,23.00496930722011
1699732884,9.6155576181,1.3160524299999998,-0.394815729,-0.11789699097221695,-0.3081815126708987,-0.3840815185170022,-50.87693656825489,-27.38965214849459,23.311897106109324
1699732884,9.6155576181,1.3160524299999998,-0.394815729,-0.11789699097221695,-0.3081815126708987,-0.3840815185170022,-51.38848289973692,-27.784273604209297,23.41420637240573
1699732884,9.8021977809,0.7645068207,-0.909272588,-0.2780963996896465,-0.2645046481397406,-0.43127085816779887,-51.31540485238234,-27.57965507161649,23.50190002923122
1699732884,9.8021977809,0.7645068207,-0.909272588,-0.2780963996896465,-0.2645046481397406,-0.43127085816779887,-51.02309266296404,-27.28734288219819,24.042677579655074
1699732884,9.6143612068,0.40558343069999997,-1.2837493249,-0.3262020371977402,-0.22632557075236467,-0.4686863540074273,-51.31540485238234,-28.237357497807658,23.706518561824026
1699732884,9.6143612068,0.40558343069999997,-1.2837493249,-0.3262020371977402,-0.22632557075236467,-0.4686863540074273,-51.12540192926045,-28.20812627886583,24.33498976907337
1699732884,9.4229353988,0.6125625856,-1.1401799688999998,-0.2157881453934489,-0.20479257110588464,-0.4540255882906749,-50.891552177725806,-28.237357497807658,24.524992692195262
1699732884,9.535398061,1.1102696864,-0.8410771438999999,-0.10919216132789523,-0.16615534478986016,-0.40515636923483367,-50.950014615609476,-28.471207249342296,23.458053200818473
1699732884,9.535398061,1.1102696864,-0.8410771438999999,-0.10919216132789523,-0.16615534478986016,-0.40515636923483367,-50.774627301958496,-28.880444314527914,23.98421514177141
1699732884,9.6275217311,1.3208380752,-0.9487541609,-0.10537425358915764,-0.09697485656393494,-0.3692680364907003,-50.87693656825489,-29.143525285004383,23.721134171294946
1699732884,9.6275217311,1.3208380752,-0.9487541609,-0.10537425358915764,-0.09697485656393494,-0.3692680364907003,-50.920783396667645,-29.450453083893596,24.013446360713242
1699732884,9.9613204838,1.1018948073,-1.3172488413,-0.05085453107998478,-0.07254024703601432,-0.3865249794697942,-51.11078631978954,-29.435837474422684,24.261911721718796
1699732884,9.9613204838,1.1018948073,-1.3172488413,-0.05085453107998478,-0.07254024703601432,-0.3865249794697942,-51.02309266296404,-29.75738088278281,24.14498684595148
1699732884,10.640882102199999,0.4295116567,-1.4392827939,0.03497203488683638,-0.13133602621257331,-0.4575380634103135,-50.65770242619118,-29.815843320666474,24.437299035369776
1699732884,10.640882102199999,0.4295116567,-1.4392827939,0.03497203488683638,-0.13133602621257331,-0.4575380634103135,-50.76001169248757,-30.575855013154047,24.057293189125986
1699732884,10.7629160548,-0.3960121403,-1.0959127508,-0.024740042147019622,-0.14538592669112765,-0.5097670412762438,-50.76001169248757,-30.795089155217774,23.925752703887753
1699732884,11.827722111799998,-0.9044869428,-0.8673981925,-0.2587014283768595,-0.09819658704033096,-0.457385347100764,-50.40923706518562,-31.189710610932476,23.940368313358668
1699732884,11.827722111799998,-0.9044869428,-0.8673981925,-0.2587014283768595,-0.09819658704033096,-0.457385347100764,-50.496930722011115,-30.99970768781058,24.53960830166618
1699732884,12.345768204699999,-0.5910271822000001,-0.3720839143,-0.36010505791773006,-0.03436116964863836,-0.2544253717094734,-50.27769657994738,-31.452791581408945,23.194972230342007
1699732884,12.345768204699999,-0.5910271822000001,-0.3720839143,-0.36010505791773006,-0.03436116964863836,-0.2544253717094734,-51.00847705349313,-31.61356328558901,23.95498392282958
1699732884,12.3433753821,0.1292124204,0.08135596839999999,-0.1359175154990584,0.20876319515417174,-0.08048149513258852,-50.394621455714706,-31.62817889505992,23.9695995323005
1699732884,12.3433753821,0.1292124204,0.08135596839999999,-0.1359175154990584,0.20876319515417174,-0.08048149513258852,-50.496930722011115,-31.745103770827242,24.466530254311607
1699732884,12.787243974399999,0.0729810893,-0.12083754129999999,0.1310305935934743,0.5106833391335408,-0.023212879051524585,-50.93539900613856,-31.52586962876352,23.574978076585793
1699732884,12.787243974399999,0.0729810893,-0.12083754129999999,0.1310305935934743,0.5106833391335408,-0.023212879051524585,-50.86232095878398,-31.803566208710905,23.15112540192926
1699732884,12.323036389999999,-0.7094719009,-0.051445685899999996,0.3265074698168392,0.8208501638285831,0.061391956438900545,-51.22771119555686,-31.394329143525283,22.698041508330896
1699732884,12.323036389999999,-1.0432706536,0.7513462964000001,0.5500841469973128,1.089020003397512,0.2712241657599188,-51.72464191756796,-31.043554516223328,21.894182987430575
1699732884,11.7535446112,-1.0432706536,0.7513462964000001,0.5500841469973128,1.089020003397512,0.2712241657599188,-51.60771704180064,-31.05817012569424,20.856474714995617
1699732884,11.2043918245,0.1603191142,1.6725829974,0.8055785328736327,1.4529429690539795,0.6101016566502677,-51.49079216603333,-31.233557439345223,20.18415667933353
1699732884,11.2043918245,0.1603191142,1.6725829974,0.8055785328736327,1.4529429690539795,0.6101016566502677,-51.900029231218944,-30.415083308973983,19.131832797427652
1699732884,9.8010013696,1.7814564256999998,0.9702895642999999,0.8527678725244294,2.0073031727186783,0.9082038928908993,-52.41157556270096,-30.10815551008477,18.21104940076001
1699732884,9.8010013696,1.7814564256999998,0.9702895642999999,0.8527678725244294,2.0073031727186783,0.9082038928908993,-53.04004676995031,-29.465068693364515,17.684887459807076
1699732884,9.0891366461,3.9744783386,-0.47976093129999997,0.7237225909550987,2.2600486650231075,1.0401507843416706,-53.47851505407776,-29.24583455130079,16.93949137679041
1699732884,9.0891366461,3.9744783386,-0.47976093129999997,0.7237225909550987,2.2600486650231075,1.0401507843416706,-53.463899444606845,-28.880444314527914,15.244080678164279
1699732884,8.8558364426,6.0550375893,-1.2957134379000002,0.24633140730334968,1.9999727898603024,1.0093020898126708,-53.551593101432324,-28.427360420929553,14.92253726980415
1699732884,8.8558364426,6.0550375893,-1.2957134379000002,0.24633140730334968,1.9999727898603024,1.0093020898126708,-54.16544869921076,-28.675825781935103,14.3817597193803
1699732884,8.5627156741,5.9330036367,-1.1198409768,-0.4532620067429274,1.419498097262638,0.7612908031042765,-54.136217480268925,-28.09120140309851,14.586378251973105
1699732884,8.5627156741,5.9330036367,-1.1198409768,-0.4532620067429274,1.419498097262638,0.7612908031042765,-53.65390236772873,-27.959660917860273,13.987138263665594
1699732884,8.6045900696,3.7698920062999997,-0.5682953675,-0.8101600221601178,0.8946121413409934,0.5865833449796443,-53.77082724349606,-28.5735165156387,13.76790412160187
1699732884,8.6045900696,3.7698920062999997,-0.5682953675,-0.9669996720674583,0.5606215723562287,0.5288565799699317,-53.683133586670564,-28.06197018415668,13.446360713241742
1699732884,9.4851487864,0.9822536772999999,0.0574277424,-0.9669996720674583,0.5606215723562287,0.5288565799699317,-53.84390529085062,-28.00350774627302,12.978661210172465
1699732884,9.4851487864,0.9822536772999999,0.0574277424,-0.9297368925373795,0.4830416871050806,0.6075054793879262,-53.97544577608886,-28.06197018415668,12.67173341128325
1699732884,10.034301573099999,-0.5551348432,0.7130611348,-0.9297368925373795,0.4830416871050806,0.6075054793879262,-54.15083308973985,-27.448114586378253,12.90558316281789
1699732884,10.034301573099999,-0.5551348432,0.7130611348,-0.7360926120286084,0.5013676442510211,0.697149953093485,-54.12160187079801,-27.68196433791289,13.855597778427361
1699732884,10.0654082669,-0.9750752094999999,0.9032905315,-0.7360926120286084,0.5013676442510211,0.697149953093485,-54.472376498099976,-27.345805320081844,13.037123648056124
1699732884,9.6921279413,-0.7154539574000001,0.8003991597,-0.45219299257608087,0.46028695698220456,0.8342891990689395,-54.60391698333821,-26.76118094124525,12.642502192341421
1699732884,9.6921279413,-0.7154539574000001,0.8003991597,-0.45219299257608087,0.46028695698220456,0.8342891990689395,-54.76468868751827,-26.571178018123355,12.262496346097631
1699732884,9.4097748745,-0.4606183505,0.6759723845,-0.09636399132573692,0.3416263844622401,1.0030407211211412,-53.99006138555977,-26.337328266588717,12.481730488161356
1699732884,9.4097748745,-0.4606183505,0.6759723845,-0.09636399132573692,0.3416263844622401,1.0030407211211412,-54.70622624963462,-25.504238526746565,12.262496346097631
1699732884,8.9048893059,-0.4582255279,0.3661018578,0.3439171291054826,0.25335635754262686,1.083064067325081,-54.530838935983624,-25.314235603624667,12.277111955568547
1699732884,8.9048893059,-0.4582255279,0.3661018578,0.3439171291054826,0.25335635754262686,1.083064067325081,-54.282373574978074,-24.992692195264542,12.320958783981292
1699732884,8.931210354500001,-0.9116654106,0.08135596839999999,0.7525859734599548,0.1305724446648258,1.1355984778101105,-54.26775796550716,-24.451914644840688,12.67173341128325
1699732884,8.931210354500001,-0.9116654106,0.08135596839999999,0.7525859734599548,0.1305724446648258,1.1355984778101105,-54.37006723180357,-23.852674656533175,12.218649517684888
1699732884,9.0221376133,-0.9379864592,0.1962114532,1.0853548119683238,0.048869219055841226,1.2325733343740455,-54.0046769950307,-23.15112540192926,11.926337328266587
1699732884,9.0221376133,-0.9379864592,0.1962114532,1.4089606719037224,-0.01756237559819294,1.2918272624792528,-54.26775796550716,-22.88804443145279,11.590178310435546
1699732884,9.1011007591,-0.48095734259999995,0.48933222169999996,1.4089606719037224,-0.01756237559819294,1.2918272624792528,-54.296989184449,-22.654194679918152,11.473253434668226
1699732884,9.1011007591,-0.48095734259999995,0.48933222169999996,1.890169763294209,-0.0198531202414355,1.1498010945982142,-53.785442852966966,-22.361882490499855,11.72171879567378
1699732884,9.0233340246,0.34576286570000003,0.48574298779999997,1.890169763294209,-0.0198531202414355,1.1498010945982142,-53.85852090032154,-21.411867874890383,7.629348143817598
1699732884,8.530412569000001,0.9355936366,0.5288137946,2.3215933377715574,0.016187928812247405,0.8994990632465776,-53.80005846243788,-21.031862028646593,10.50862320958784
1699732884,8.530412569000001,0.9355936366,0.5288137946,2.3215933377715574,0.016187928812247405,0.8994990632465776,-54.22391113709442,-21.207249342297573,10.377082724349606
1699732884,7.9034930478000005,1.9573288867999998,0.8709874264,2.459038016366111,-0.04810563750809371,0.7073819458333018,-53.59543992984508,-20.90032154340836,9.850920783396667
1699732884,7.9034930478000005,1.9573288867999998,0.8709874264,2.459038016366111,-0.04810563750809371,0.7073819458333018,-53.06927798889214,-20.46185325928091,11.049400760011691
1699732884,7.4524459877,2.9587251449000003,1.3830514628000001,2.170556907627098,-0.15378532371635034,0.5073235803234517,-53.69774919614147,-20.593393744519144,10.830166617947969
1699732884,7.4524459877,2.9587251449000003,1.3830514628000001,2.170556907627098,-0.15378532371635034,0.5073235803234517,-53.90236772873429,-20.564162525577316,10.084770534931305
1699732884,7.1772713886999995,2.8701907087,1.8687944506,1.6800321213540919,-0.3220786968399036,0.2744312082604584,-53.887752119263375,-20.491084478222742,10.45016077170418
1699732884,7.1772713886999995,2.8701907087,1.8687944506,1.6800321213540919,-0.3220786968399036,0.2744312082604584,-53.85852090032154,-20.768781058170124,10.435545162233264
1699732884,7.998009540499999,1.6929219895,2.4215364712,1.3339769639149162,-0.45494188614797193,0.007483099167925688,-54.07775504238527,-20.37415960245542,10.260157848582285
1699732884,7.998009540499999,1.6929219895,2.4215364712,1.3339769639149162,-0.45494188614797193,0.007483099167925688,-54.23852674656533,-20.301081555100847,10.070154925460391
1699732884,8.446663778,0.5276173833,2.4957139718,1.2941180071224954,-0.4257730710240167,-0.2144136986075034,-54.019292604501615,-21.002630809704765,10.815551008477053
1699732884,8.446663778,0.5276173833,2.4957139718,1.2941180071224954,-0.4257730710240167,-0.2144136986075034,-54.03390821397252,-21.031862028646593,9.865536392867583
1699732884,9.535398061,-0.35892339,2.1320049366,1.2322679017549465,-0.3903428872085318,-0.39278634816132385,-53.8146740719088,-21.294942999123062,9.777842736042093
1699732884,9.535398061,-0.35892339,2.1320049366,1.2322679017549465,-0.3903428872085318,-0.39278634816132385,-54.019292604501615,-21.762642502192342,9.777842736042093
1699732884,10.3274223416,-1.2705888006,1.6833506991,1.0616837839881506,-0.32482759041179465,-0.4334088865014919,-54.19467991815259,-21.938029815843322,9.529377375036539
1699732884,10.3274223416,-1.2705888006,1.6833506991,1.0616837839881506,-0.32482759041179465,-0.4334088865014919,-54.18006430868167,-22.02572347266881,10.172464191756795
1699732884,10.64806057,-1.9752750562999999,2.2504496553,0.9915869979049284,-0.2715295983790178,-0.32803463291233426,-53.72698041508331,-21.455714703303126,9.193218357205495
1699732884,10.64806057,-1.9752750562999999,2.2504496553,0.9915869979049284,-0.2715295983790178,-0.32803463291233426,-54.282373574978074,-21.616486407483194,9.543992984507454
1699732884,10.600204118,-1.4368899712999998,2.6835505459,1.283733298073129,-0.09285151620609834,-0.17287486241003833,-53.93159894767612,-21.791873721134174,9.529377375036539
1699732885,10.600204118,-1.4368899712999998,2.6835505459,1.283733298073129,-0.09285151620609834,-0.17287486241003833,-54.384682841274476,-21.090324466530255,9.923998830751241
1699732885,9.3631148338,-1.0193424276,1.8233308212,1.6136005267000575,-0.031001410838549282,-0.05100724738953428,-54.37006723180357,-21.265711780181235,10.011692487576731
1699732885,9.3631148338,-1.0193424276,1.8233308212,1.6136005267000575,-0.031001410838549282,-0.05100724738953428,-54.23852674656533,-21.236480561239404,9.251680795089156
1699732885,8.8426759183,-0.9224331123,0.969093153,1.490358464893608,-0.12858713264068222,0.18829920967453823,-53.85852090032154,-21.19263373282666,9.397836889798304
1699732885,8.8426759183,-0.9224331123,0.969093153,1.2203560296100853,-0.29138271862045334,0.32864549815053223,-54.26775796550716,-20.651856182402806,8.988599824612686
1699732885,9.6119683842,-0.7190431913,2.309073809,1.2203560296100853,-0.29138271862045334,0.32864549815053223,-53.72698041508331,-20.783396667641043,9.251680795089156
1699732885,9.8596255233,-1.1353943237,4.4901316089,0.9993755296919531,-0.2950479100496414,0.30115656243162153,-54.19467991815259,-20.66647179187372,9.047062262496345
1699732885,9.8596255233,-1.1353943237,4.4901316089,0.9993755296919531,-0.2950479100496414,0.30115656243162153,-54.106986261327094,-20.432622040339083,9.792458345513008
1699732885,8.5483587385,-1.4440684390999998,4.0881374121,0.6311765073680994,-0.20861047884462225,0.19593502515201341,-54.54545454545454,-20.914937152879276,9.982461268634903
1699732885,8.5483587385,-1.4440684390999998,4.0881374121,0.6311765073680994,-0.20861047884462225,0.19593502515201341,-53.93159894767612,-20.681087401344637,10.36246711487869
1699732885,8.2660056717,-0.2201396792,1.1090732750999999,0.48365255234327864,-0.3361285973184579,0.09040805525330627,-53.960830166617946,-20.681087401344637,10.040923706518562
1699732885,8.2660056717,-0.2201396792,1.1090732750999999,0.48365255234327864,-0.3361285973184579,0.09040805525330627,-53.94621455714703,-20.5495469161064,10.245542239111371
1699732885,10.4997055688,2.3868405435,-1.79461695,0.8886562052685628,-0.6953173573788909,-0.12553280644969214,-53.93159894767612,-20.95878398129202,10.36246711487869
1699732885,10.4997055688,2.3868405435,-1.79461695,0.8886562052685628,-0.6953173573788909,-0.12553280644969214,-53.80005846243788,-21.10494007600117,10.786319789535224
1699732885,13.286147486499999,3.433700431,-1.2047861791,1.3148874252212281,-0.9088147581290973,-0.46410486472094215,-53.84390529085062,-21.7187956737796,10.917860274773458
1699732885,13.286147486499999,3.433700431,-1.2047861791,1.3148874252212281,-0.9088147581290973,-0.46410486472094215,-53.93159894767612,-21.616486407483194,11.064016369482607
1699732885,12.6412817958,3.9314075318,2.8139593776000003,1.9356792235399611,-0.8465065038328997,-0.7942775259669694,-54.296989184449,-22.098801520023382,10.903244665302543
1699732885,12.6412817958,3.9314075318,2.8139593776000003,2.407725336357477,-0.41661009245104647,-0.9807441399269137,-54.83776673487284,-22.171879567377957,10.757088570593394
1699732885,12.573086351699999,4.4327038665,5.1577291143,2.407725336357477,-0.41661009245104647,-0.9807441399269137,-54.82315112540193,-22.128032738965214,11.034785150540777
1699732885,12.573086351699999,4.4327038665,5.1577291143,1.1410962649538925,-0.3069597821945027,-0.6919575985688019,-54.5016077170418,-22.62496346097632,10.888629055831627
1699732885,12.4163564714,0.981057266,2.9850461935,1.1410962649538925,-0.3069597821945027,-0.6919575985688019,-54.39929845074539,-23.15112540192926,11.458637825197311
1699732885,12.4163564714,0.981057266,2.9850461935,-0.9059131482476568,-0.5473352534254218,-0.1748601744341819,-54.69161064016369,-22.917275650394622,11.911721718795674
1699732885,9.853643466800001,-2.6811577232999997,-0.7920242806,-0.9059131482476568,-0.5473352534254218,-0.1748601744341819,-54.42852966968723,-22.78573516515639,11.780181233557439
1699732885,8.1667035338,-1.5361921092,-1.6953148121,-1.01877050100474,-0.4150829293555514,0.03329215548179183,-54.69161064016369,-23.136509792458344,11.98479976615025
1699732885,8.1667035338,-1.5361921092,-1.6953148121,-1.01877050100474,-0.4150829293555514,0.03329215548179183,-54.45776088862906,-22.990353697749196,12.320958783981292
1699732885,6.9810599355,1.4069796888000001,-0.9200402897,0.050243665841786765,-0.3075706474327007,0.19364428050877086,-54.662379421221864,-22.756503946214558,12.744811458637825
1699732885,6.9810599355,1.4069796888000001,-0.9200402897,0.050243665841786765,-0.3075706474327007,0.19364428050877086,-54.95469161064016,-22.46419175679626,12.96404560070155
1699732885,7.1030938881,4.2053857195,0.3732803256,1.0125091323132105,-0.31215213671918585,0.22067506729903305,-55.01315404852383,-22.566501023092663,12.335574393452207
1699732885,7.1030938881,4.2053857195,0.3732803256,1.0125091323132105,-0.31215213671918585,0.22067506729903305,-54.70622624963462,-21.894182987430575,12.43788365974861
1699732885,7.8209406681,5.1673004047,0.35772697870000003,1.6233743705112258,-0.15424347264499888,-0.002901609881440573,-54.09237065185618,-22.02572347266881,12.467114878690442
1699732885,7.8209406681,5.1673004047,0.35772697870000003,1.6233743705112258,-0.15424347264499888,-0.002901609881440573,-54.54545454545454,-22.741888336743642,12.920198772288805
1699732885,9.6957171752,2.0721843716,-2.3593230836,1.7437148224362349,-0.04260785036431157,-0.48670687853426875,-54.5016077170418,-23.35574393452207,12.540192926045016
1699732885,9.6957171752,2.0721843716,-2.3593230836,1.7437148224362349,-0.04260785036431157,-0.48670687853426875,-54.73545746857644,-23.531131248173047,13.08097047646887
1699732885,10.5942220615,-2.0901305410999997,-4.3238304382,1.2139419446090058,-0.3023782929080176,-0.9413433320631417,-55.14469453376206,-24.232680502776965,12.642502192341421
1699732885,10.5942220615,-2.0901305410999997,-4.3238304382,1.2139419446090058,-0.3023782929080176,-0.9413433320631417,-54.69161064016369,-23.95498392282958,12.452499269219526
1699732885,10.7150596028,-3.0077780082,-2.7361926431000003,0.9673051046865573,-0.5404630194956941,-0.9094256233672954,-55.33469745688395,-23.633440514469452,13.25635779011985
1699732885,10.7150596028,-3.0077780082,-2.7361926431000003,0.9673051046865573,-0.5404630194956941,-0.9094256233672954,-54.472376498099976,-24.408067816427945,14.352528500438469
1699732885,10.3238331077,-2.8450660714,0.48574298779999997,0.20005836550985004,-0.915076126820627,-0.5169447078250704,-54.77930429698918,-24.057293189125986,14.425606547793043
1699732885,10.1623175822,0.9738787981999999,1.5038890041,0.8245153552577712,-0.638965039155124,0.049785516913138254,-54.96930722011108,-23.940368313358668,14.074831920491086
1699732885,10.1623175822,0.9738787981999999,1.5038890041,0.8245153552577712,-0.638965039155124,0.049785516913138254,-54.45776088862906,-23.35574393452207,14.17714118678749
1699732885,9.4827559638,2.237289131,-0.1507478238,1.552819435499355,-0.24022275492136952,0.05711589977151443,-54.662379421221864,-23.662671733411283,13.607132417421807
1699732885,9.4827559638,2.237289131,-0.1507478238,1.552819435499355,-0.24022275492136952,0.05711589977151443,-54.70622624963462,-23.750365390236773,13.884828997369189
1699732885,9.21236701,1.5385849318,-1.3411770673,1.3991868280925541,-0.10629055144645466,-0.018936822384138473,-54.530838935983624,-23.691902952353114,14.045600701549255
1699732885,9.21236701,1.5385849318,-1.3411770673,1.3991868280925541,-0.10629055144645466,-0.018936822384138473,-54.75007307804736,-23.35574393452207,13.621748026892721
1699732885,9.6155576181,1.4069796888000001,-1.4763715442,1.1111638682821898,-0.16615534478986016,-0.05406157358052436,-54.7939199064601,-23.20958783981292,13.840982168956446
1699732885,9.6155576181,1.4069796888000001,-1.4763715442,1.1111638682821898,-0.16615534478986016,-0.05406157358052436,-54.83776673487284,-22.946506869336453,13.97252265419468
1699732885,9.5856473356,2.1044874766999997,-0.7716852885,1.0018189906447452,-0.25610525111451793,-0.036193765363232405,-54.618532592809125,-23.32651271558024,13.314820228003507
1699732885,9.5856473356,2.1044874766999997,-0.7716852885,1.0018189906447452,-0.25610525111451793,-0.036193765363232405,-54.866997953814675,-23.0926629640456,13.91406021631102
1699732885,9.1274218077,2.368894374,-0.7633104094,0.9309586230137754,-0.20876319515417174,-0.050549098460885775,-54.22391113709442,-23.604209295527625,13.855597778427361
1699732885,9.1274218077,2.368894374,-0.7633104094,0.9309586230137754,-0.20876319515417174,-0.050549098460885775,-54.45776088862906,-22.88804443145279,14.00175387313651
1699732885,8.8582292652,2.177468566,-1.2239287599,0.9034696872948647,-0.15302174216860284,-0.17379116026733535,-54.73545746857644,-22.902660040923706,14.352528500438469
1699732885,8.8582292652,2.177468566,-1.2239287599,0.9034696872948647,-0.15302174216860284,-0.17379116026733535,-55.1885413621748,-23.44343759134756,13.957907044723767
1699732885,8.859425676499999,1.8987047331,-1.1880364209,0.7628179661997716,-0.2105957908687658,-0.25274549230442883,-54.720841859105526,-22.858813212510963,13.534054370067231
1699732885,8.859425676499999,1.8987047331,-1.1880364209,0.7628179661997716,-0.2105957908687658,-0.25274549230442883,-55.20315697164572,-22.8003507746273,14.279450453083895
1699732885,9.0137627342,1.3507483577,-1.1916256548,0.6007859617677481,-0.25686883266226546,-0.2860376477862207,-55.115463314820225,-22.844197603040048,14.367144109909383
1699732885,9.0137627342,1.3507483577,-1.1916256548,0.6007859617677481,-0.25686883266226546,-0.2860376477862207,-55.14469453376206,-22.931891259865537,14.03098509207834
1699732885,9.2937229784,0.9535398061,-1.3938191645,0.558941692951184,-0.2840523357620771,-0.2747366408795574,-54.09237065185618,-23.35574393452207,13.7971353405437
1699732885,9.2937229784,0.9535398061,-1.3938191645,0.558941692951184,-0.2840523357620771,-0.2747366408795574,-54.75007307804736,-23.531131248173047,14.92253726980415
1699732885,9.4002035841,1.064806057,-1.1712866627,0.5751296217634314,-0.36407568196601714,-0.26481008075883966,-54.92546039169833,-23.662671733411283,15.477930429698919
1699732885,9.4002035841,1.064806057,-1.1712866627,0.5751296217634314,-0.36407568196601714,-0.26481008075883966,-54.940076001169246,-23.7795966091786,14.674071908798597
1699732885,9.2015993083,1.2000005339,-1.1641081949,0.5314527572322734,-0.378889163992319,-0.28115072588063655,-55.20315697164572,-24.028061970184154,14.571762642502192
1699732885,9.2015993083,1.2000005339,-1.1641081949,0.5314527572322734,-0.3733913768485369,-0.30039298088387406,-54.88161356328559,-24.115755627009648,15.185618240280618
1699732885,9.1968136631,1.5397813431,-1.2406785181,0.4497495316232888,-0.3733913768485369,-0.30039298088387406,-54.69161064016369,-23.925752703887753,14.630225080385854
1699732885,9.1968136631,1.5397813431,-1.2406785181,0.33750304410440346,-0.3984368516146555,-0.34009922136674503,-54.75007307804736,-23.925752703887753,15.0686933645133
1699732885,9.2853480993,1.8029918290999998,-1.1617153723,0.33750304410440346,-0.3984368516146555,-0.34009922136674503,-55.01315404852383,-23.911137094416837,15.317158725518853
1699732885,9.2853480993,1.8029918290999998,-1.1617153723,0.24007003861182005,-0.40775254649717524,-0.43142357447734836,-54.75007307804736,-23.881905875475006,15.390236772873427
1699732885,9.5030949559,1.5804593273,-1.0743773474,0.24007003861182005,-0.40775254649717524,-0.43142357447734836,-54.35545162233265,-24.802689272142647,15.828705057000878
1699732885,9.5030949559,1.2634103328,-0.9583254512999999,0.13072516097437528,-0.399200433162403,-0.4874704600820162,-54.69161064016369,-24.802689272142647,15.682548962291728
1699732885,9.687342296099999,1.2634103328,-0.9583254512999999,0.13072516097437528,-0.399200433162403,-0.4874704600820162,-54.45776088862906,-25.197310727857353,16.36948260742473
1699732885,9.728020280299999,1.1820543644000001,-0.9224331123,0.06887505560682623,-0.3746131073249329,-0.5006040627032736,-54.82315112540193,-24.890382928968137,16.03332358959369
1699732885,9.728020280299999,1.1820543644000001,-0.9224331123,0.06887505560682623,-0.3746131073249329,-0.5006040627032736,-55.422391113709445,-25.85501315404852,16.19409529377375
1699732885,10.1587283483,0.8542376682,-1.3507483577,0.057574048700162944,-0.33750304410440346,-0.5259549700884912,-54.88161356328559,-25.518854136217477,16.66179479684303
1699732885,10.1587283483,0.8542376682,-1.3507483577,0.057574048700162944,-0.33750304410440346,-0.5259549700884912,-55.43700672318036,-25.445776088862903,17.173341128325053
1699732885,10.168299638699999,0.251246373,-1.5038890041,0.13713924597545443,-0.3274237676741362,-0.5755877706920799,-54.83776673487284,-26.118094124524994,16.54486992107571
1699732885,10.168299638699999,0.251246373,-1.5038890041,0.13713924597545443,-0.3274237676741362,-0.5755877706920799,-54.73545746857644,-26.132709733995906,17.34872844197603
1699732885,10.0462656861,-0.2907279459,-1.1904292435000001,0.3240640088640471,-0.22418754241867164,-0.617126606889545,-55.07161648640748,-26.337328266588717,15.697164571762642
1699732885,10.0462656861,-0.2907279459,-1.1904292435000001,0.4022547593533931,-0.10247264370771707,-0.5598579908084811,-54.76468868751827,-26.834258988599824,16.325635779011986
1699732885,10.540383553,-0.2596212521,-0.6424728680999999,0.4022547593533931,-0.10247264370771707,-0.5598579908084811,-54.57468576439638,-26.731949722303423,16.83718211049401
1699732885,10.540383553,-0.2596212521,-0.6424728680999999,0.30421088862261164,-0.01038470904936626,-0.41080687268816535,-54.75007307804736,-26.688102893890676,16.60333235895937
1699732885,11.6494568281,0.08614161359999999,-0.6652046827999999,0.30421088862261164,-0.01038470904936626,-0.41080687268816535,-55.20315697164572,-26.834258988599824,17.670271850336157
1699732885,11.6494568281,0.08614161359999999,-1.256231865,0.23243422313434486,0.10690141668465268,-0.2930625980254979,-55.17392575270389,-26.863490207541656,16.968722595732242
1699732885,12.573086351699999,0.3672982691,-1.256231865,0.23243422313434486,0.10690141668465268,-0.2930625980254979,-55.23238819058754,-27.053493130663547,16.85179771996492
1699732885,12.1627172758,0.1531406464,-1.0085747259,0.1681406568140037,0.2808452932615375,-0.22067506729903305,-55.15931014323298,-27.053493130663547,16.164864074831918
1699732885,12.1627172758,0.1531406464,-1.0085747259,0.1681406568140037,0.2808452932615375,-0.22067506729903305,-55.261619409529374,-26.805027769657997,16.413329435837472
1699732885,12.418749294,-0.4630111731,-0.4630111731,0.1821905572925581,0.47647488579445196,-0.10461067204141013,-54.983922829581985,-27.301958491669104,16.01870798012277
1699732885,12.418749294,-0.4630111731,-0.4630111731,0.1821905572925581,0.47647488579445196,-0.10461067204141013,-55.086232095878394,-26.892721426483483,15.361005553931598
1699732885,12.2069844939,-0.6951149653,0.4749752861,0.2771801018323495,0.6398813370124211,0.10629055144645466,-55.13007892429115,-26.76118094124525,14.849459222449577
1699732885,12.2069844939,-0.6951149653,0.4749752861,0.2771801018323495,0.6398813370124211,0.10629055144645466,-55.597778427360424,-26.483484361297865,14.849459222449577
1699732885,11.8707929186,-0.9559326287,1.0612168231,0.3793473129209675,0.9563095303989929,0.39965858209105154,-55.042385267465654,-26.29348143817597,13.811750950014615
1699732885,11.8707929186,-0.9559326287,1.0612168231,0.3793473129209675,0.9563095303989929,0.39965858209105154,-55.320081847413036,-25.270388775211927,13.285589009061678
1699732885,11.174481542,-0.3960121403,1.2526426310999998,0.6247624223670202,1.3859005091617473,0.7324274205994205,-55.948553054662376,-25.285004384682843,12.394036831335868
1699732885,11.174481542,-0.3960121403,1.2526426310999998,0.6247624223670202,1.3859005091617473,0.7324274205994205,-59.441683718211046,-24.451914644840688,11.385559777842737
1699732885,10.0271231053,1.0875378717,0.981057266,0.8087855753741724,1.8425222747147636,1.0503827770814873,-56.12394036831336,-23.896521484945925,10.669394913767904
1699732885,10.0271231053,1.0875378717,0.981057266,0.8087855753741724,1.8425222747147636,1.0503827770814873,-55.80239695995323,-23.458053200818473,10.464776381175096
1699732885,9.4672026169,3.3810583338,0.1160518961,0.7883215898945387,2.1331414117874696,1.2767083478338521,-56.357790119848,-22.756503946214558,9.646302250803858
1699732885,9.4672026169,3.3810583338,0.1160518961,0.7883215898945387,2.1331414117874696,1.2767083478338521,-55.99239988307513,-22.303420052616193,8.447822274188834
1699732885,9.4767739073,5.4628139958,-0.7154539574000001,0.4127921847123089,2.047467562130198,1.2843441633113273,-56.518561824028055,-22.274188833674362,7.6147325343466825
1699732886,9.4767739073,5.4628139958,-0.7154539574000001,0.4127921847123089,2.047467562130198,1.2843441633113273,-56.08009353990061,-21.99649225372698,6.328558900906167
1699732886,9.3643112451,6.1686966628,-1.1054840412,-0.14019357216644454,1.6059647112225823,1.010829252908166,-56.24086524408067,-21.689564454837768,6.138555977784273
1699732886,9.3643112451,6.1686966628,-1.1054840412,-0.14019357216644454,1.6059647112225823,1.010829252908166,-56.34317451037708,-21.148786904413914,5.057000876936568
1699732886,9.5282195932,5.4352965359,-1.0815558152,-0.534659799732813,1.0835222162537297,0.7860308452512963,-56.1677871967261,-20.768781058170124,6.153171587255189
1699732886,9.5282195932,5.4352965359,-1.0815558152,-0.534659799732813,1.0835222162537297,0.7860308452512963,-56.065477930429694,-20.5495469161064,5.276235019000293
1699732886,9.8560362894,3.3918260355000003,-0.2644068973,-0.9468411192069238,0.6258314365338667,0.834747347997588,-55.919321835720545,-20.388775211926337,6.138555977784273
1699732886,9.8560362894,3.3918260355000003,-0.2644068973,-0.9468411192069238,0.37446039101538336,0.8035932208494891,-55.23238819058754,-19.964922537269807,5.5685472084185905
1699732886,10.2137632681,1.1808579531,0.7489534738,-1.293659858193847,0.37446039101538336,0.8035932208494891,-55.81701256942414,-19.83338205203157,5.305466237942122
1699732886,10.2137632681,1.1808579531,0.7489534738,-1.2023355050832438,0.3300199449364778,0.8549059008581225,-56.03624671148787,-19.45337620578778,5.553931598947677
1699732886,9.9481599595,0.11964113,1.1820543644000001,-1.2023355050832438,0.3300199449364778,0.8549059008581225,-55.43700672318036,-19.248757673194973,5.583162817889506
1699732886,9.9481599595,0.11964113,1.1820543644000001,-0.9579894098040376,0.2819143074283841,0.9285151620609834,-55.217772581116634,-18.70798012277112,6.401636948260743
1699732886,9.6490571345,-0.3649054465,1.2035897678,-0.9579894098040376,0.2819143074283841,0.9285151620609834,-55.1885413621748,-18.313358667056416,6.5331774334989765
1699732886,9.6490571345,-0.3649054465,1.2035897678,-0.579252962121268,0.21013764194011728,1.0218248271957302,-55.422391113709445,-18.38643671441099,6.343174510377082
1699732886,9.3068835027,-1.0265208954,1.2598210989,-0.579252962121268,0.21013764194011728,1.0218248271957302,-55.34931306635487,-17.071031862028647,6.6501023092662965
1699732886,9.032905315,-0.8937192411,1.0540383553,0.13408491978446438,0.24159720170731505,1.0708467625611209,-55.23238819058754,-17.3194972230342,4.6039169833382045
1699732886,9.032905315,-0.8937192411,1.0540383553,0.13408491978446438,0.24159720170731505,1.0708467625611209,-54.70622624963462,-16.734872844197604,5.144694533762058
1699732886,8.8091764019,-0.2727817764,0.8219345630999999,0.7304421085752768,0.28451048469072565,1.1081095420912,-54.560070154925455,-16.384098216895644,5.305466237942122
1699732886,8.8091764019,-0.2727817764,0.8219345630999999,0.7304421085752768,0.28451048469072565,1.1081095420912,-53.99006138555977,-15.945629932768195,5.0862320958783975
1699732886,8.7505522482,0.1782652837,0.729810893,1.0848966630396752,0.23701571242082994,1.112080166139487,-54.26775796550716,-15.03946214557147,4.326220403390821
1699732886,8.7505522482,0.1782652837,0.729810893,1.0848966630396752,0.23701571242082994,1.112080166139487,-54.32622040339082,-15.27331189710611,3.8439052908506284
1699732886,8.584251077500001,0.8877371846000001,0.8542376682,1.3871222396381433,0.21303925182155786,0.9825767356415077,-54.07775504238527,-14.3817597193803,5.188541362174803
1699732886,8.584251077500001,0.8877371846000001,0.8542376682,1.3871222396381433,0.21303925182155786,0.9825767356415077,-54.41391406021631,-14.410990938322128,4.267757965507162
1699732886,8.185846114599999,1.3220344865,1.0755737587,1.5459472015696274,0.19242255003237485,0.8654433262170382,-53.63928675825782,-13.753288512130958,4.136217480268927
1699732886,8.185846114599999,1.3220344865,1.0755737587,1.5459472015696274,0.19242255003237485,0.8654433262170382,-53.960830166617946,-14.089447529962,3.8877521192633733
1699732886,7.7982088534,1.5613167465000002,1.0468598875,1.60978261896132,0.1395827069282465,0.7906123345377813,-53.99006138555977,-13.519438760596318,3.478515054077755
1699732886,7.7982088534,1.5613167465000002,1.0468598875,1.60978261896132,0.1395827069282465,0.7906123345377813,-53.20081847413037,-13.431745103770828,2.4115755627009645
1699732886,7.2203421955,1.9465611851,1.0121639598,1.5441146058550332,0.010995574287564275,0.6235406918906241,-53.63928675825782,-12.920198772288805,3.2446653025431162
1699732886,7.2203421955,1.9465611851,1.0121639598,1.5441146058550332,0.010995574287564275,0.6235406918906241,-53.65390236772873,-12.949429991230636,3.58082432037416
1699732886,6.6544396506,2.7385854657,1.2945170266,1.321912375460505,-0.16936238729039974,0.4360050637638334,-53.34697456883952,-13.782519731072787,3.317743349897691
1699732886,6.6544396506,2.7385854657,1.2945170266,1.321912375460505,-0.16936238729039974,0.4360050637638334,-53.49313066354867,-13.73867290266004,3.010815551008477
1699732886,6.8566331603,2.7888347403,1.8592231602,0.8700248155035234,-0.4147774967364524,0.16615534478986016,-53.69774919614147,-13.694826074247295,3.0254311604793918
1699732886,6.8566331603,2.7888347403,1.8592231602,0.8700248155035234,-0.4147774967364524,0.16615534478986016,-53.63928675825782,-13.25635779011985,3.5662087109032443
1699732886,7.9932238953,1.2370892842,2.5447668351,0.48212538924778364,-0.6097962240311688,-0.14141530264284052,-53.65390236772873,-13.782519731072787,4.223911137094417
1699732886,7.9932238953,1.2370892842,2.5447668351,0.48212538924778364,-0.6097962240311688,-0.14141530264284052,-53.507746273019585,-14.060216311020168,4.6039169833382045
1699732886,9.1680997919,-0.5958128274,3.1034909122000003,0.4644102973400412,-0.6239988408192726,-0.3665191429188092,-53.551593101432324,-14.191756796258403,5.042385267465653
1699732886,9.1680997919,-0.5958128274,3.1034909122000003,0.4644102973400412,-0.6239988408192726,-0.3665191429188092,-53.85852090032154,-14.776381175095002,4.647763811750949
1699732886,9.9218389109,-1.3543375915999998,3.0640093393,0.5754350543825304,-0.5094616086571448,-0.5154175447295755,-53.44928383513593,-14.907921660333237,4.194679918152587
1699732886,9.9218389109,-1.3543375915999998,3.0640093393,0.5754350543825304,-0.5094616086571448,-0.5154175447295755,-53.916983338205206,-14.703303127740428,4.633148202280035
1699732886,10.389635729199998,-2.6608187311999996,2.4562323989,0.5537493384265009,-0.3181080727916165,-0.55710909723659,-53.551593101432324,-14.951768488745982,4.340836012861737
1699732886,10.7976119825,-2.7672993369,2.3784656644,0.5992587986722531,-0.14278974942878608,-0.43997568781212054,-54.26775796550716,-15.682548962291728,4.296989184448992
1699732886,10.7976119825,-2.7672993369,2.3784656644,0.5992587986722531,-0.14278974942878608,-0.43997568781212054,-54.15083308973985,-15.12715580239696,3.8877521192633733
1699732886,10.9316100481,-2.8941189347,2.5495524802999996,0.7429648459583362,-0.09819658704033096,-0.23243422313434486,-53.916983338205206,-14.893306050862321,4.61853259280912
1699732886,10.9316100481,-2.8941189347,2.5495524802999996,0.7429648459583362,-0.09819658704033096,-0.23243422313434486,-54.340836012861736,-15.390236772873427,4.121601870798012
1699732886,9.7842516114,-2.3653051401,2.3353948576,1.0855075282778732,-0.05375614096142535,-0.023518311670623588,-54.16544869921076,-15.828705057000878,3.916983338205203
1699732886,9.7842516114,-2.3653051401,2.3353948576,1.0855075282778732,-0.05375614096142535,-0.023518311670623588,-53.94621455714703,-15.887167494884535,3.9023677287342884
1699732886,8.9563349918,-1.6797614652,1.7982061838999999,1.153008137098754,-0.04810563750809371,0.15378532371635034,-53.82928968137971,-15.872551885413621,4.413914060216311
1699732886,8.9563349918,-1.6797614652,1.7982061838999999,1.153008137098754,-0.04810563750809371,0.15378532371635034,-53.361590178310436,-14.951768488745982,4.2823735749780765
1699732886,8.6584285781,-0.8638089586000001,2.3282163898,0.9088147581290973,-0.16264286967022157,0.2747366408795574,-53.5223618824905,-15.390236772873427,5.188541362174803
1699732886,8.6584285781,-0.8638089586000001,2.3282163898,0.9088147581290973,-0.16264286967022157,0.2747366408795574,-53.80005846243788,-15.521777258111664,4.326220403390821
1699732886,8.2767733734,-0.0705882667,3.6167513599,0.6731734924942129,-0.23655756349218146,0.25014931504208726,-53.8146740719088,-14.951768488745982,4.048523823443437
1699732886,8.2767733734,-0.0705882667,3.6167513599,0.6731734924942129,-0.23655756349218146,0.25014931504208726,-53.90236772873429,-15.010230926629639,4.852382344343759
1699732886,8.0183485326,0.6544369810999999,3.6119657146999997,0.4372267942402295,-0.3150537466006264,0.09086620418195478,-54.136217480268925,-15.112540192926044,5.232388190587548
1699732886,8.0183485326,0.6544369810999999,3.6119657146999997,0.4372267942402295,-0.3150537466006264,0.09086620418195478,-53.69774919614147,-15.784858228588133,5.071616486407484
1699732886,9.2303131795,1.5840485612,1.639083481,0.2724458962363148,-0.6027712737918917,-0.1627955859797711,-54.32622040339082,-15.741011400175386,5.65624086524408
1699732886,9.2303131795,1.5840485612,1.639083481,0.2724458962363148,-0.6027712737918917,-0.1627955859797711,-54.019292604501615,-16.091786027477344,6.021631102016954
1699732886,11.636296303799998,2.8055844984999996,-0.2859423007,0.4540255882906749,-1.030529656840052,-0.4874704600820162,-54.22391113709442,-16.530254311604793,6.620871090324466
1699732886,11.636296303799998,2.8055844984999996,-0.2859423007,0.4540255882906749,-1.030529656840052,-0.4874704600820162,-54.23852674656533,-17.01256942414499,6.854720841859105
